timestamp_ns,accel_x,accel_y,accel_z,gyro_x,gyro_y,gyro_z
18869338917800,0.20111294090747833,-9.90241813659668,0.35434186458587646,-0.004791259765625,-0.0063883461989462376,0.014373779296875
18869340154875,0.23822307586669922,-9.913191795349121,0.37469255924224854,-0.0029279920272529125,-0.007453070487827063,0.01650322787463665
18869341391975,0.22744916379451752,-9.87967300415039,0.3387795388698578,-0.0023956298828125,-0.010381062515079975,0.01783413253724575
18869342629062,0.23822307586669922,-9.890447616577148,0.3519476652145386,0.0021294488105922937,-0.0002661811013240367,0.01463996060192585
18869343866162,0.21667525172233582,-9.86770248413086,0.3794809579849243,-0.003460354171693325,-0.0015970865497365594,0.014373779296875
18869345103237,0.21428105235099792,-9.908403396606445,0.3387795388698578,-0.0023956298828125,-0.0053236219100654125,0.0186326764523983
18869346340337,0.2298433631658554,-9.888052940368652,0.33518823981285095,-0.003460354171693325,-0.0066545275039970875,0.0204959437251091
18869347577425,0.20350714027881622,-9.890447616577148,0.365115761756897,-0.00452507846057415,-0.0031941730994731188,0.01463996060192585
18869348814500,0.23822307586669922,-9.90241813659668,0.38307228684425354,-0.0015970865497365594,0.0007985432748682797,0.01756795309484005
18869350051612,0.19153614342212677,-9.860519409179688,0.40222588181495667,-0.0029279920272529125,-0.005057440605014563,0.0191650390625
18869351288687,0.21428105235099792,-9.856928825378418,0.365115761756897,-0.0026618109550327063,-0.0090501569211483,0.02022976242005825
18869352525787,0.22385786473751068,-9.86770248413086,0.35913026332855225,-0.0031941730994731188,0.0015970865497365594,0.01463996060192585
18869353762887,0.21787235140800476,-9.895236015319824,0.3770867586135864,-0.0029279920272529125,-0.0010647244052961469,0.01889885775744915
18869354999975,0.20470423996448517,-9.86889934539795,0.3531447649002075,-0.0023956298828125,-0.0007985432748682797,0.0220930315554142
18869356237062,0.2322375625371933,-9.86770248413086,0.37828385829925537,-0.005057440605014563,0.0031941730994731188,0.01597086526453495
18869357474150,0.25019407272338867,-9.898826599121094,0.34835633635520935,-0.0042588976211845875,0.0039927163161337376,0.0167694091796875
18869358711237,0.19871874153614044,-9.907206535339355,0.37229835987091064,-0.005057440605014563,-0.0013309054775163531,0.02369011752307415
18869359948337,0.18794482946395874,-9.897629737854004,0.36990416049957275,-0.008517795242369175,0.0015970865497365594,0.0223592109978199
18869361185437,0.2082955539226532,-9.852140426635742,0.3531447649002075,-0.00692070834338665,0.0031941730994731188,0.01783413253724575
18869362422537,0.18914192914962769,-9.917980194091797,0.3280056416988373,-0.0090501569211483,0.0021294488105922937,0.0138414166867733
18869363659600,0.21308395266532898,-9.86889934539795,0.3818751871585846,-0.010913425125181675,0.0021294488105922937,0.0186326764523983
18869364896712,0.22385786473751068,-9.914389610290527,0.3519476652145386,-0.00692070834338665,0.004791259765625,0.0196974016726017
18869366133787,0.21428105235099792,-9.888052940368652,0.3758896589279175,-0.010381062515079975,0.0002661811013240367,0.02022976242005825
18869367370875,0.2322375625371933,-9.898826599121094,0.3555389642715454,-0.008783976547420025,0.0037265352439135313,0.0234239362180233
18869368607975,0.21787235140800476,-9.886856079101562,0.365115761756897,-0.006122165359556675,0.006122165359556675,0.02076212503015995
18869369845062,0.1867477297782898,-9.876082420349121,0.38546648621559143,-0.007985432632267475,0.0029279920272529125,0.02369011752307415
18869371082150,0.22385786473751068,-9.86650562286377,0.3998316824436188,-0.010913425125181675,0.0010647244052961469,0.02369011752307415
18869372319250,0.23822307586669922,-9.855731010437012,0.40940847992897034,-0.01171196810901165,0.0026618109550327063,0.0247548408806324
18869373556350,0.22625206410884857,-9.898826599121094,0.3579331636428833,-0.008783976547420025,0.0029279920272529125,0.0247548408806324
18869374793437,0.2214636653661728,-9.883264541625977,0.35434186458587646,-0.006122165359556675,0.0037265352439135313,0.0223592109978199
18869376030537,0.20111294090747833,-9.889249801635742,0.34356793761253357,-0.010913425125181675,0.0,0.01836649514734745
18869377267637,0.21547815203666687,-9.87967300415039,0.32680854201316833,-0.01171196810901165,-0.0026618109550327063,0.0223592109978199
18869378504700,0.21428105235099792,-9.911994934082031,0.37828385829925537,-0.0077192517928779125,-0.0031941730994731188,0.0276828333735466
18869379741800,0.2801215946674347,-9.910798072814941,0.35913026332855225,-0.010381062515079975,0.0023956298828125,0.02555338479578495
18869380978887,0.2082955539226532,-9.8784761428833,0.3555389642715454,-0.01357523538172245,0.004791259765625,0.02182685025036335
18869382215975,0.2621650993824005,-9.889249801635742,0.38546648621559143,-0.0138414166867733,0.0005323622026480734,0.0258195661008358
18869383453062,0.2669534981250763,-9.856928825378418,0.37229835987091064,-0.0138414166867733,-0.0002661811013240367,0.0210283063352108
18869384690162,0.23942017555236816,-9.876082420349121,0.4058171808719635,-0.00984870083630085,0.0005323622026480734,0.02369011752307415
18869385927250,0.21787235140800476,-9.855731010437012,0.3734954595565796,-0.010114881210029125,0.0023956298828125,0.0210283063352108
18869387164350,0.2454056739807129,-9.884461402893066,0.38546648621559143,-0.010381062515079975,0.0007985432748682797,0.02369011752307415
18869388401425,0.1843535304069519,-9.907206535339355,0.3866635859012604,-0.01171196810901165,0.0042588976211845875,0.0228915736079216
18869389638537,0.1999158412218094,-9.84615421295166,0.38546648621559143,-0.0157046839594841,0.0026618109550327063,0.02555338479578495
18869390875612,0.24181437492370605,-9.841365814208984,0.3064578175544739,-0.01650322787463665,0.0037265352439135313,0.0228915736079216
18869392112712,0.19632454216480255,-9.909601211547852,0.3687070608139038,-0.014373779296875,0.005057440605014563,0.02129448764026165
18869393349812,0.17717093229293823,-9.872490882873535,0.3758896589279175,-0.01463996060192585,0.005589802749454975,0.02502102218568325
18869394586887,0.21667525172233582,-9.9000244140625,0.2968810200691223,-0.014906140975654125,0.007985432632267475,0.02129448764026165
18869395823987,0.20470423996448517,-9.860519409179688,0.3076549172401428,-0.012776692397892475,0.010381062515079975,0.0191650390625
18869397061087,0.19871874153614044,-9.883264541625977,0.34835633635520935,-0.02022976242005825,0.00958251953125,0.02129448764026165
18869398298162,0.24899697303771973,-9.864110946655273,0.3495534360408783,-0.02129448764026165,0.00984870083630085,0.02022976242005825
18869399535275,0.21547815203666687,-9.864110946655273,0.3292027413845062,-0.015438503585755825,0.0053236219100654125,0.0252872034907341
18869400772350,0.20470423996448517,-9.86770248413086,0.39384618401527405,-0.013042873702943325,0.005855984054505825,0.0295461006462574
18869402009450,0.2322375625371933,-9.898826599121094,0.36750996112823486,-0.012776692397892475,0.003460354171693325,0.02182685025036335
18869403246525,0.22744916379451752,-9.858125686645508,0.40701428055763245,-0.015438503585755825,0.003460354171693325,0.02182685025036335
18869404483612,0.2082955539226532,-9.850942611694336,0.36152446269989014,-0.012510511092841625,0.0063883461989462376,0.02262539230287075
18869405720712,0.23582887649536133,-9.888052940368652,0.3016694188117981,-0.012776692397892475,0.0039927163161337376,0.0181003138422966
18869406957812,0.2585738003253937,-9.873687744140625,0.3603273630142212,-0.01703559048473835,0.005589802749454975,0.0173017717897892
18869408194900,0.19632454216480255,-9.84256362915039,0.3902548849582672,-0.02022976242005825,0.0071868896484375,0.01889885775744915
18869409432000,0.2346317619085312,-9.81024169921875,0.33279404044151306,-0.015438503585755825,0.003460354171693325,0.0196974016726017
18869410669087,0.1628057211637497,-9.861717224121094,0.33279404044151306,-0.01410759799182415,0.0010647244052961469,0.02182685025036335
18869411906175,0.1975216418504715,-9.838972091674805,0.363918662071228,-0.015438503585755825,0.00692070834338665,0.0247548408806324
18869413143275,0.2513911724090576,-9.849745750427246,0.33039984107017517,-0.012510511092841625,0.0039927163161337376,0.0215606689453125
18869414380362,0.26575639843940735,-9.849745750427246,0.3603273630142212,-0.013042873702943325,0.005589802749454975,0.02022976242005825
18869415617462,0.23104046285152435,-9.817423820495605,0.3711012601852417,-0.01756795309484005,0.0119781494140625,0.02315775491297245
18869416854550,0.2454056739807129,-9.848548889160156,0.37469255924224854,-0.01597086526453495,0.008517795242369175,0.0223592109978199
18869418091650,0.2406172752380371,-9.874884605407715,0.304063618183136,-0.01650322787463665,0.00692070834338665,0.0204959437251091
18869419328725,0.18914192914962769,-9.886856079101562,0.3423708379268646,-0.01650322787463665,0.0119781494140625,0.01943122036755085
18869420565812,0.26096799969673157,-9.86889934539795,0.36152446269989014,-0.01783413253724575,0.008251613937318325,0.01783413253724575
18869421802925,0.24181437492370605,-9.794679641723633,0.3519476652145386,-0.0191650390625,0.006122165359556675,0.0167694091796875
18869423040012,0.21428105235099792,-9.884461402893066,0.32441434264183044,-0.0157046839594841,0.0077192517928779125,0.01996358297765255
18869424277087,0.243011474609375,-9.852140426635742,0.3579331636428833,-0.01996358297765255,0.01117960549890995,0.0220930315554142
18869425514200,0.25258827209472656,-9.823410034179688,0.3878606855869293,-0.014373779296875,0.00692070834338665,0.0191650390625
18869426751275,0.22625206410884857,-9.864110946655273,0.38307228684425354,-0.01650322787463665,0.0026618109550327063,0.01889885775744915
18869427988387,0.2597709000110626,-9.849745750427246,0.36750996112823486,-0.023956298828125,0.006122165359556675,0.01889885775744915
18869429225450,0.21428105235099792,-9.84256362915039,0.3315969407558441,-0.02182685025036335,0.01117960549890995,0.02022976242005825
18869430462550,0.2298433631658554,-9.806650161743164,0.3603273630142212,-0.01650322787463665,0.01224433071911335,0.01943122036755085
18869431699650,0.23822307586669922,-9.816226959228516,0.3411737382411957,-0.0173017717897892,0.01171196810901165,0.0196974016726017
18869432936750,0.2298433631658554,-9.835380554199219,0.3734954595565796,-0.0181003138422966,0.0114457868039608,0.0157046839594841
18869434173825,0.20949265360832214,-9.850942611694336,0.3148375153541565,-0.0223592109978199,0.006122165359556675,0.01836649514734745
18869435410925,0.24779987335205078,-9.838972091674805,0.3447650372982025,-0.02315775491297245,0.005589802749454975,0.0204959437251091
18869436648000,0.28131869435310364,-9.837775230407715,0.31962594389915466,-0.02022976242005825,0.0037265352439135313,0.0181003138422966
18869437885100,0.2513911724090576,-9.822212219238281,0.365115761756897,-0.01889885775744915,0.0071868896484375,0.01650322787463665
18869439122187,0.23582887649536133,-9.825803756713867,0.35075056552886963,-0.012510511092841625,0.00931633822619915,0.0196974016726017
18869440359275,0.26096799969673157,-9.827000617980957,0.3471592366695404,-0.01703559048473835,0.005855984054505825,0.02315775491297245
18869441596387,0.23942017555236816,-9.824606895446777,0.365115761756897,-0.01650322787463665,0.010647243820130825,0.0196974016726017
18869442833475,0.23582887649536133,-9.832986831665039,0.34835633635520935,-0.0186326764523983,0.00984870083630085,0.01756795309484005
18869444070550,0.2454056739807129,-9.854534149169922,0.3148375153541565,-0.014906140975654125,0.005057440605014563,0.01650322787463665
18869445307637,0.24181437492370605,-9.841365814208984,0.28371289372444153,-0.014373779296875,0.0018632676219567657,0.02076212503015995
18869446544737,0.21667525172233582,-9.871294021606445,0.3256114423274994,-0.01410759799182415,0.012510511092841625,0.0162370465695858
18869447781837,0.23822307586669922,-9.824606895446777,0.31603461503982544,-0.01703559048473835,0.01171196810901165,0.0157046839594841
18869449018912,0.21547815203666687,-9.849745750427246,0.3423708379268646,-0.0181003138422966,0.010381062515079975,0.01889885775744915
18869450256025,0.22026655077934265,-9.8784761428833,0.3100491166114807,-0.01410759799182415,0.010647243820130825,0.0167694091796875
18869451493100,0.24420857429504395,-9.86889934539795,0.3423708379268646,-0.0173017717897892,0.008783976547420025,0.0162370465695858
18869452730212,0.2537853717803955,-9.847352027893066,0.3531447649002075,-0.0157046839594841,0.004791259765625,0.01650322787463665
18869453967300,0.25019407272338867,-9.84256362915039,0.2861070930957794,-0.013042873702943325,0.007453070487827063,0.0186326764523983
18869455204362,0.24181437492370605,-9.84495735168457,0.3495534360408783,-0.01597086526453495,0.00984870083630085,0.01996358297765255
18869456441475,0.181959331035614,-9.838972091674805,0.3208230435848236,-0.01703559048473835,0.008783976547420025,0.01597086526453495
18869457678562,0.22385786473751068,-9.823410034179688,0.3256114423274994,-0.014373779296875,0.005589802749454975,0.014373779296875
18869458915650,0.2454056739807129,-9.801861763000488,0.30286651849746704,-0.0162370465695858,0.015172322280704975,0.010913425125181675
18869460152750,0.22625206410884857,-9.835380554199219,0.37469255924224854,-0.012510511092841625,0.00931633822619915,0.010647243820130825
18869461389837,0.2801215946674347,-9.830592155456543,0.3531447649002075,-0.0167694091796875,0.010913425125181675,0.0181003138422966
18869462626937,0.22744916379451752,-9.797073364257812,0.3064578175544739,-0.01463996060192585,0.0090501569211483,0.014373779296875
18869463864037,0.20470423996448517,-9.799468040466309,0.3064578175544739,-0.01703559048473835,0.0063883461989462376,0.01463996060192585
18869465101112,0.22864626348018646,-9.84256362915039,0.2968810200691223,-0.01224433071911335,0.00452507846057415,0.015172322280704975
18869466338212,0.2513911724090576,-9.823410034179688,0.3064578175544739,-0.00984870083630085,0.01171196810901165,0.014373779296875
18869467575300,0.2298433631658554,-9.870096206665039,0.3627215623855591,-0.01117960549890995,0.005855984054505825,0.01410759799182415
18869468812400,0.22385786473751068,-9.872490882873535,0.2693476974964142,-0.01650322787463665,0.007453070487827063,0.01224433071911335
18869470049487,0.25498247146606445,-9.84615421295166,0.3387795388698578,-0.01463996060192585,0.008783976547420025,0.010114881210029125
18869471286575,0.2298433631658554,-9.856928825378418,0.3280056416988373,-0.014373779296875,0.0063883461989462376,0.005057440605014563
18869472523675,0.22625206410884857,-9.852140426635742,0.33758243918418884,-0.010381062515079975,0.005855984054505825,0.0157046839594841
18869473760775,0.2717418968677521,-9.824606895446777,0.3292027413845062,-0.008783976547420025,0.0063883461989462376,0.01357523538172245
18869474997850,0.2406172752380371,-9.834183692932129,0.29568392038345337,-0.010381062515079975,0.0063883461989462376,0.0173017717897892
18869476234950,0.2645592987537384,-9.832986831665039,0.2944868206977844,-0.0066545275039970875,0.008251613937318325,0.01597086526453495
18869477472037,0.2322375625371933,-9.828198432922363,0.30047231912612915,-0.0053236219100654125,0.0071868896484375,0.0162370465695858
18869478709125,0.22385786473751068,-9.81263542175293,0.31842881441116333,-0.008251613937318325,0.00958251953125,0.015172322280704975
18869479946225,0.23942017555236816,-9.8784761428833,0.33039984107017517,-0.01117960549890995,0.008251613937318325,0.01410759799182415
18869481183300,0.2298433631658554,-9.855731010437012,0.30286651849746704,-0.012776692397892475,0.005057440605014563,0.00984870083630085
18869482420387,0.1951274424791336,-9.827000617980957,0.3076549172401428,-0.013042873702943325,0.006122165359556675,0.00984870083630085
18869483657487,0.2106897532939911,-9.821015357971191,0.37469255924224854,-0.01171196810901165,0.0063883461989462376,0.01171196810901165
18869484894575,0.243011474609375,-9.829395294189453,0.31842881441116333,-0.0071868896484375,0.007453070487827063,0.010913425125181675
18869486131662,0.2346317619085312,-9.840168952941895,0.2669534981250763,-0.006122165359556675,0.010114881210029125,0.0138414166867733
18869487368762,0.1951274424791336,-9.84615421295166,0.2861070930957794,-0.01117960549890995,0.0090501569211483,0.01171196810901165
18869488605850,0.23942017555236816,-9.854534149169922,0.3148375153541565,-0.0167694091796875,0.006122165359556675,0.01117960549890995
18869489842950,0.2513911724090576,-9.886856079101562,0.2992752194404602,-0.008783976547420025,0.008251613937318325,0.01410759799182415
18869491080050,0.19393034279346466,-9.891644477844238,0.3315969407558441,-0.007985432632267475,0.008251613937318325,0.014373779296875
18869492317125,0.19632454216480255,-9.909601211547852,0.3315969407558441,-0.012776692397892475,0.00692070834338665,0.010913425125181675
18869493554225,0.25498247146606445,-9.888052940368652,0.2932897210121155,-0.01410759799182415,0.0071868896484375,0.0114457868039608
18869494791325,0.2298433631658554,-9.890447616577148,0.33758243918418884,-0.010114881210029125,0.008517795242369175,0.01117960549890995
18869496028425,0.24660277366638184,-9.885659217834473,0.2944868206977844,-0.010647243820130825,0.0090501569211483,0.007985432632267475
18869497265500,0.24181437492370605,-9.84256362915039,0.32680854201316833,-0.01410759799182415,0.0114457868039608,0.0053236219100654125
18869498502600,0.22864626348018646,-9.86889934539795,0.3100491166114807,-0.0138414166867733,0.008517795242369175,0.010913425125181675
18869499739700,0.25737667083740234,-9.86889934539795,0.3124433159828186,-0.010114881210029125,0.0053236219100654125,0.014906140975654125
18869500976787,0.2190694510936737,-9.854534149169922,0.3471592366695404,-0.010114881210029125,0.00692070834338665,0.013042873702943325
18869502213850,0.2513911724090576,-9.872490882873535,0.2992752194404602,-0.012510511092841625,0.0071868896484375,0.015172322280704975
18869503450962,0.2561795711517334,-9.892841339111328,0.27413609623908997,-0.014906140975654125,0.00984870083630085,0.008251613937318325
18869504688062,0.22625206410884857,-9.854534149169922,0.2693476974964142,-0.0173017717897892,0.014906140975654125,0.010913425125181675
18869505925137,0.2106897532939911,-9.855731010437012,0.29568392038345337,-0.01171196810901165,0.00984870083630085,0.013309055007994175
18869507162237,0.2406172752380371,-9.858125686645508,0.2861070930957794,-0.01117960549890995,0.007985432632267475,0.010913425125181675
18869508399337,0.23822307586669922,-9.859322547912598,0.3076549172401428,-0.0114457868039608,0.01410759799182415,0.010114881210029125
18869509636425,0.26096799969673157,-9.835380554199219,0.31842881441116333,-0.0138414166867733,0.01357523538172245,0.00931633822619915
18869510873512,0.19033904373645782,-9.800664901733398,0.2885012924671173,-0.010114881210029125,0.008783976547420025,0.0114457868039608
18869512110612,0.22625206410884857,-9.81024169921875,0.3315969407558441,-0.008251613937318325,0.00452507846057415,0.012776692397892475
18869513347675,0.21308395266532898,-9.832986831665039,0.37469255924224854,-0.005855984054505825,0.006122165359556675,0.014373779296875
18869514584775,0.22026655077934265,-9.781511306762695,0.32202014327049255,-0.01410759799182415,0.0090501569211483,0.01224433071911335
18869515821875,0.1735796183347702,-9.785102844238281,0.29807811975479126,-0.00958251953125,0.007985432632267475,0.0090501569211483
18869517058962,0.21547815203666687,-9.783905029296875,0.32680854201316833,-0.0077192517928779125,0.007985432632267475,0.0157046839594841
18869518296075,0.23582887649536133,-9.75397777557373,0.33279404044151306,-0.01117960549890995,0.008783976547420025,0.015438503585755825
18869519533150,0.20111294090747833,-9.807847023010254,0.3292027413845062,-0.0138414166867733,0.010647243820130825,0.0090501569211483
18869520770250,0.20470423996448517,-9.77552604675293,0.33279404044151306,-0.008251613937318325,0.008783976547420025,0.01171196810901165
18869522007337,0.22864626348018646,-9.827000617980957,0.30885201692581177,-0.0077192517928779125,0.0071868896484375,0.013042873702943325
18869523244425,0.24899697303771973,-9.822212219238281,0.32441434264183044,-0.00692070834338665,0.007453070487827063,0.0162370465695858
18869524481512,0.24779987335205078,-9.822212219238281,0.3100491166114807,-0.0071868896484375,0.0066545275039970875,0.01117960549890995
18869525718600,0.1951274424791336,-9.828198432922363,0.33279404044151306,-0.00984870083630085,0.008783976547420025,0.0090501569211483
18869526955712,0.2322375625371933,-9.822212219238281,0.27892449498176575,-0.005589802749454975,0.00984870083630085,0.014373779296875
18869528192800,0.22744916379451752,-9.816226959228516,0.3232172429561615,-0.005589802749454975,0.00692070834338665,0.012510511092841625
18869529429875,0.22505496442317963,-9.822212219238281,0.33997663855552673,-0.00692070834338665,0.005589802749454975,0.01224433071911335
18869530666987,0.18076223134994507,-9.813833236694336,0.3423708379268646,-0.005589802749454975,0.003460354171693325,0.014373779296875
18869531904062,0.2537853717803955,-9.876082420349121,0.3292027413845062,-0.0026618109550327063,0.0071868896484375,0.01996358297765255
18869533141175,0.20350714027881622,-9.84615421295166,0.30885201692581177,-0.0053236219100654125,0.012776692397892475,0.010381062515079975
18869534378237,0.2214636653661728,-9.835380554199219,0.2968810200691223,0.0007985432748682797,0.008251613937318325,0.005855984054505825
18869535615362,0.243011474609375,-9.837775230407715,0.32441434264183044,-0.0066545275039970875,0.007985432632267475,0.0114457868039608
18869536852437,0.2082955539226532,-9.838972091674805,0.32441434264183044,-0.0039927163161337376,0.0042588976211845875,0.01357523538172245
18869538089537,0.22266076505184174,-9.84615421295166,0.3148375153541565,-0.0023956298828125,-0.0015970865497365594,0.013309055007994175
18869539326625,0.2190694510936737,-9.80904483795166,0.3411737382411957,-0.0042588976211845875,0.00931633822619915,0.010913425125181675
18869540563712,0.23582887649536133,-9.805453300476074,0.3232172429561615,-0.0013309054775163531,0.01463996060192585,0.01117960549890995
18869541800812,0.23822307586669922,-9.84256362915039,0.31962594389915466,-0.006122165359556675,0.007985432632267475,0.012510511092841625
18869543037887,0.2322375625371933,-9.852140426635742,0.3531447649002075,-0.0077192517928779125,0.0063883461989462376,0.0157046839594841
18869544274987,0.243011474609375,-9.823410034179688,0.3016694188117981,-0.0042588976211845875,0.0031941730994731188,0.01463996060192585
18869545512075,0.2059013545513153,-9.805453300476074,0.3387795388698578,-0.0039927163161337376,0.008517795242369175,0.0167694091796875
18869546749162,0.24899697303771973,-9.819818496704102,0.29807811975479126,-0.0039927163161337376,0.008517795242369175,0.01224433071911335
18869547986275,0.25737667083740234,-9.831789016723633,0.3292027413845062,-0.0039927163161337376,0.0066545275039970875,0.00931633822619915
18869549223350,0.2190694510936737,-9.886856079101562,0.3495534360408783,-0.00452507846057415,0.00692070834338665,0.010114881210029125
18869550460450,0.19871874153614044,-9.834183692932129,0.3172317147254944,-0.0018632676219567657,0.008517795242369175,0.01357523538172245
18869551697537,0.2059013545513153,-9.821015357971191,0.2908955216407776,-0.006122165359556675,0.008251613937318325,0.007985432632267475
18869552934612,0.1951274424791336,-9.850942611694336,0.32680854201316833,-0.0042588976211845875,0.0026618109550327063,0.010114881210029125
18869554171737,0.19033904373645782,-9.84615421295166,0.3100491166114807,-0.003460354171693325,0.004791259765625,0.01357523538172245
18869555408812,0.22266076505184174,-9.806650161743164,0.2908955216407776,-0.00692070834338665,0.00692070834338665,0.01357523538172245
18869556645887,0.2513911724090576,-9.840168952941895,0.304063618183136,-0.0066545275039970875,0.0066545275039970875,0.00931633822619915
18869557883000,0.21308395266532898,-9.819818496704102,0.3124433159828186,-0.006122165359556675,0.00984870083630085,0.007453070487827063
18869559120100,0.21188685297966003,-9.800664901733398,0.304063618183136,-0.005057440605014563,0.0090501569211483,0.010913425125181675
18869560357187,0.24181437492370605,-9.799468040466309,0.32441434264183044,-0.0053236219100654125,0.008251613937318325,0.010381062515079975
18869561594287,0.2106897532939911,-9.837775230407715,0.31364041566848755,-0.0031941730994731188,0.0029279920272529125,0.00958251953125
18869562831350,0.22505496442317963,-9.874884605407715,0.29807811975479126,-0.0037265352439135313,0.005855984054505825,0.0063883461989462376
18869564068450,0.19393034279346466,-9.853337287902832,0.3064578175544739,-0.0066545275039970875,0.005855984054505825,0.00984870083630085
18869565305537,0.23343466222286224,-9.854534149169922,0.2861070930957794,-0.0007985432748682797,0.008517795242369175,0.01117960549890995
18869566542637,0.2513911724090576,-9.871294021606445,0.3363853394985199,-0.0005323622026480734,0.00984870083630085,0.008783976547420025
18869567779737,0.2406172752380371,-9.87967300415039,0.30047231912612915,-0.00452507846057415,0.0066545275039970875,0.00692070834338665
18869569016812,0.22266076505184174,-9.858125686645508,0.2968810200691223,-0.005057440605014563,0.0066545275039970875,0.0077192517928779125
18869570253912,0.2346317619085312,-9.84615421295166,0.3100491166114807,-0.0029279920272529125,0.0042588976211845875,0.004791259765625
18869571491025,0.21188685297966003,-9.84495735168457,0.29209262132644653,-0.0037265352439135313,0.0042588976211845875,0.005855984054505825
18869572728100,0.22266076505184174,-9.872490882873535,0.2885012924671173,-0.0029279920272529125,0.0053236219100654125,0.0071868896484375
18869573965162,0.23104046285152435,-9.853337287902832,0.31364041566848755,-0.004791259765625,0.00452507846057415,0.006122165359556675
18869575202287,0.2190694510936737,-9.877279281616211,0.304063618183136,-0.0077192517928779125,0.006122165359556675,0.0063883461989462376
18869576439375,0.19153614342212677,-9.87967300415039,0.32441434264183044,-0.0031941730994731188,0.007985432632267475,0.00931633822619915
18869577676462,0.21428105235099792,-9.874884605407715,0.34835633635520935,-0.00452507846057415,0.0023956298828125,0.005855984054505825
18869578913525,0.20949265360832214,-9.892841339111328,0.3411737382411957,-0.0039927163161337376,0.007453070487827063,0.0037265352439135313
18869580150637,0.181959331035614,-9.86650562286377,0.3016694188117981,-0.0077192517928779125,0.005589802749454975,0.00692070834338665
18869581387725,0.25737667083740234,-9.84615421295166,0.2968810200691223,-0.007985432632267475,0.005589802749454975,0.0042588976211845875
18869582624825,0.2346317619085312,-9.852140426635742,0.3423708379268646,-0.0039927163161337376,0.00984870083630085,0.0015970865497365594
18869583861912,0.24779987335205078,-9.871294021606445,0.2944868206977844,-0.0029279920272529125,0.004791259765625,0.0029279920272529125
18869585099037,0.2322375625371933,-9.926360130310059,0.3208230435848236,-0.0063883461989462376,0.0053236219100654125,-0.0021294488105922937
18869586336100,0.2406172752380371,-9.882067680358887,0.35673606395721436,-0.010114881210029125,0.007985432632267475,0.0015970865497365594
18869587573187,0.2513911724090576,-9.823410034179688,0.3387795388698578,-0.0029279920272529125,0.006122165359556675,-0.0013309054775163531
18869588810275,0.24420857429504395,-9.830592155456543,0.3232172429561615,-0.006122165359556675,0.006122165359556675,-0.0031941730994731188
18869590047387,0.21787235140800476,-9.847352027893066,0.3172317147254944,-0.00958251953125,0.0039927163161337376,0.005589802749454975
18869591284462,0.1975216418504715,-9.841365814208984,0.2992752194404602,-0.005855984054505825,0.0037265352439135313,0.0021294488105922937
18869592521562,0.20350714027881622,-9.865307807922363,0.2944868206977844,-0.00692070834338665,0.0053236219100654125,-0.00452507846057415
18869593758650,0.23104046285152435,-9.856928825378418,0.2717418968677521,-0.0053236219100654125,0.005855984054505825,-0.0007985432748682797
18869594995737,0.2082955539226532,-9.847352027893066,0.304063618183136,-0.0031941730994731188,0.0063883461989462376,-0.0005323622026480734
18869596232862,0.2454056739807129,-9.872490882873535,0.3100491166114807,-0.003460354171693325,0.008783976547420025,0.0018632676219567657
18869597469937,0.24779987335205078,-9.859322547912598,0.3064578175544739,-0.006122165359556675,0.0063883461989462376,-0.0031941730994731188
18869598707012,0.20111294090747833,-9.86770248413086,0.31603461503982544,-0.0090501569211483,0.008783976547420025,-0.0029279920272529125
18869599944125,0.19632454216480255,-9.892841339111328,0.29807811975479126,-0.00692070834338665,0.01224433071911335,-0.0023956298828125
18869601181212,0.2298433631658554,-9.834183692932129,0.2908955216407776,-0.0090501569211483,0.010913425125181675,-0.0066545275039970875
18869602418300,0.24899697303771973,-9.836577415466309,0.2944868206977844,-0.00958251953125,0.0071868896484375,-0.010647243820130825
18869603655400,0.243011474609375,-9.84376049041748,0.30047231912612915,-0.00452507846057415,0.0031941730994731188,-0.004791259765625
18869604892487,0.23104046285152435,-9.853337287902832,0.3016694188117981,-0.006122165359556675,0.010913425125181675,-0.003460354171693325
18869606129562,0.22026655077934265,-9.853337287902832,0.25258827209472656,-0.003460354171693325,0.0077192517928779125,-0.005855984054505825
18869607366675,0.20111294090747833,-9.838972091674805,0.2801215946674347,0.0013309054775163531,0.008517795242369175,-0.0071868896484375
18869608603737,0.2214636653661728,-9.841365814208984,0.33039984107017517,-0.004791259765625,0.00692070834338665,-0.008517795242369175
18869609840850,0.24899697303771973,-9.805453300476074,0.2825157940387726,-0.010381062515079975,0.013042873702943325,-0.008783976547420025
18869611077925,0.2537853717803955,-9.841365814208984,0.272938996553421,-0.006122165359556675,0.013042873702943325,-0.007985432632267475
18869612315025,0.22385786473751068,-9.852140426635742,0.2992752194404602,-0.007453070487827063,0.0090501569211483,-0.00958251953125
18869613552125,0.2322375625371933,-9.827000617980957,0.2849099934101105,-0.010381062515079975,0.014373779296875,-0.0138414166867733
18869614789212,0.23942017555236816,-9.819818496704102,0.29807811975479126,-0.0053236219100654125,0.01650322787463665,-0.0157046839594841
18869616026312,0.23942017555236816,-9.859322547912598,0.2908955216407776,-0.00984870083630085,0.00931633822619915,-0.01117960549890995
18869617263400,0.243011474609375,-9.800664901733398,0.3256114423274994,-0.005855984054505825,0.01357523538172245,-0.00958251953125
18869618500487,0.19273324310779572,-9.815030097961426,0.23822307586669922,-0.003460354171693325,0.010647243820130825,-0.01410759799182415
18869619737575,0.2190694510936737,-9.827000617980957,0.29807811975479126,-0.00931633822619915,0.0196974016726017,-0.0077192517928779125
18869620974687,0.21667525172233582,-9.793481826782227,0.2932897210121155,-0.0071868896484375,0.012510511092841625,-0.008517795242369175
18869622211762,0.2406172752380371,-9.834183692932129,0.3124433159828186,-0.0029279920272529125,0.0114457868039608,-0.01650322787463665
18869623448862,0.24779987335205078,-9.81143856048584,0.3124433159828186,-0.006122165359556675,0.013309055007994175,-0.01357523538172245
18869624685937,0.24660277366638184,-9.849745750427246,0.31603461503982544,-0.0077192517928779125,0.008251613937318325,-0.007985432632267475
18869625923037,0.272938996553421,-9.818621635437012,0.3471592366695404,-0.0029279920272529125,0.0039927163161337376,-0.010647243820130825
18869627160137,0.26575639843940735,-9.799468040466309,0.31603461503982544,-0.0042588976211845875,0.010913425125181675,-0.012776692397892475
18869628397237,0.24899697303771973,-9.794679641723633,0.2968810200691223,-0.003460354171693325,0.01357523538172245,-0.012510511092841625
18869629634300,0.2561795711517334,-9.856928825378418,0.272938996553421,-0.0026618109550327063,0.010913425125181675,-0.015438503585755825
18869630871412,0.26815059781074524,-9.81263542175293,0.29209262132644653,-0.007453070487827063,0.00958251953125,-0.0191650390625
18869632108500,0.2537853717803955,-9.823410034179688,0.29209262132644653,-0.0029279920272529125,0.0077192517928779125,-0.015438503585755825
18869633345587,0.25258827209472656,-9.837775230407715,0.2968810200691223,0.0015970865497365594,0.013042873702943325,-0.010647243820130825
18869634582687,0.2513911724090576,-9.807847023010254,0.2908955216407776,-0.003460354171693325,0.015172322280704975,-0.0167694091796875
18869635819775,0.26336219906806946,-9.785102844238281,0.32441434264183044,-0.0029279920272529125,0.0138414166867733,-0.013309055007994175
18869637056862,0.2454056739807129,-9.832986831665039,0.2825157940387726,-0.0037265352439135313,0.013309055007994175,-0.012776692397892475
18869638293962,0.2059013545513153,-9.819818496704102,0.30286651849746704,0.0026618109550327063,0.010381062515079975,-0.00931633822619915
18869639531037,0.2537853717803955,-9.774328231811523,0.2861070930957794,0.0023956298828125,0.0162370465695858,-0.013309055007994175
18869640768150,0.2801215946674347,-9.78869342803955,0.2753331959247589,0.003460354171693325,0.013309055007994175,-0.0186326764523983
18869642005237,0.26575639843940735,-9.789891242980957,0.3100491166114807,-0.0013309054775163531,0.013309055007994175,-0.01463996060192585
18869643242325,0.2537853717803955,-9.831789016723633,0.34835633635520935,-0.0007985432748682797,0.01171196810901165,-0.01597086526453495
18869644479425,0.23343466222286224,-9.80904483795166,0.2825157940387726,0.0015970865497365594,0.007453070487827063,-0.01357523538172245
18869645716500,0.24779987335205078,-9.791088104248047,0.26815059781074524,0.006122165359556675,0.0138414166867733,-0.013309055007994175
18869646953612,0.24420857429504395,-9.789891242980957,0.3256114423274994,0.005589802749454975,0.01224433071911335,-0.01357523538172245
18869648190687,0.25498247146606445,-9.837775230407715,0.30286651849746704,0.0037265352439135313,0.015172322280704975,-0.012776692397892475
18869649427787,0.23822307586669922,-9.819818496704102,0.2753331959247589,0.004791259765625,0.010647243820130825,-0.01650322787463665
18869650664887,0.29807811975479126,-9.77791976928711,0.25737667083740234,0.0039927163161337376,0.015172322280704975,-0.0181003138422966
18869651901975,0.2849099934101105,-9.817423820495605,0.30047231912612915,0.0039927163161337376,0.01357523538172245,-0.010114881210029125
18869653139050,0.26096799969673157,-9.84256362915039,0.28131869435310364,0.0042588976211845875,0.012776692397892475,-0.00692070834338665
18869654376150,0.27653029561042786,-9.807847023010254,0.3292027413845062,0.008783976547420025,0.014373779296875,-0.004791259765625
18869655613250,0.2825157940387726,-9.791088104248047,0.28730419278144836,0.0063883461989462376,0.013309055007994175,-0.007985432632267475
18869656850325,0.22505496442317963,-9.785102844238281,0.3016694188117981,0.0077192517928779125,0.00984870083630085,-0.010647243820130825
18869658087412,0.27054479718208313,-9.799468040466309,0.3016694188117981,0.005589802749454975,0.010114881210029125,-0.01357523538172245
18869659324525,0.24779987335205078,-9.786299705505371,0.33518823981285095,0.004791259765625,0.0138414166867733,-0.006122165359556675
18869660561600,0.2908955216407776,-9.791088104248047,0.36152446269989014,0.007985432632267475,0.0223592109978199,-0.00931633822619915
18869661798700,0.2454056739807129,-9.823410034179688,0.3232172429561615,0.010114881210029125,0.014373779296875,-0.01597086526453495
18869663035775,0.2537853717803955,-9.832986831665039,0.31124621629714966,0.010381062515079975,0.0173017717897892,-0.0157046839594841
18869664272900,0.21428105235099792,-9.836577415466309,0.31842881441116333,0.010647243820130825,0.01410759799182415,-0.01410759799182415
18869665509987,0.29568392038345337,-9.831789016723633,0.2717418968677521,0.0114457868039608,0.012510511092841625,-0.012776692397892475
18869666747075,0.30286651849746704,-9.77791976928711,0.3232172429561615,0.010913425125181675,0.0186326764523983,-0.010114881210029125
18869667984175,0.2801215946674347,-9.81263542175293,0.32680854201316833,0.0114457868039608,0.0162370465695858,-0.00931633822619915
18869669221250,0.3064578175544739,-9.84256362915039,0.30885201692581177,0.014906140975654125,0.0162370465695858,-0.012776692397892475
18869670458350,0.272938996553421,-9.81263542175293,0.2968810200691223,0.01650322787463665,0.01224433071911335,-0.010647243820130825
18869671695437,0.30286651849746704,-9.787496566772461,0.26096799969673157,0.0167694091796875,0.0119781494140625,-0.0090501569211483
18869672932537,0.2932897210121155,-9.787496566772461,0.27892449498176575,0.013042873702943325,0.0119781494140625,-0.015172322280704975
18869674169612,0.27653029561042786,-9.816226959228516,0.31603461503982544,0.0138414166867733,0.01650322787463665,-0.010114881210029125
18869675406712,0.2849099934101105,-9.825803756713867,0.30047231912612915,0.0162370465695858,0.01597086526453495,-0.012510511092841625
18869676643800,0.26336219906806946,-9.84376049041748,0.28131869435310364,0.0181003138422966,0.0114457868039608,-0.012510511092841625
18869677880900,0.2753331959247589,-9.819818496704102,0.29807811975479126,0.0138414166867733,0.013309055007994175,-0.008517795242369175
18869679117987,0.2693476974964142,-9.858125686645508,0.29568392038345337,0.013309055007994175,0.01117960549890995,-0.00692070834338665
18869680355075,0.28371289372444153,-9.834183692932129,0.27413609623908997,0.01410759799182415,0.0114457868039608,-0.01171196810901165
18869681592187,0.304063618183136,-9.821015357971191,0.272938996553421,0.014906140975654125,0.01463996060192585,-0.01224433071911335
18869682829275,0.3124433159828186,-9.797073364257812,0.31364041566848755,0.013309055007994175,0.0138414166867733,-0.0119781494140625
18869684066350,0.3387795388698578,-9.841365814208984,0.3292027413845062,0.013309055007994175,0.01783413253724575,-0.015172322280704975
18869685303462,0.2944868206977844,-9.84376049041748,0.3148375153541565,0.0196974016726017,0.015438503585755825,-0.00958251953125
18869686540537,0.27892449498176575,-9.803058624267578,0.3124433159828186,0.0162370465695858,0.01597086526453495,-0.01463996060192585
18869687777637,0.29807811975479126,-9.822212219238281,0.3076549172401428,0.015172322280704975,0.0173017717897892,-0.010913425125181675
18869689014737,0.3100491166114807,-9.829395294189453,0.33279404044151306,0.0173017717897892,0.014373779296875,-0.0090501569211483
18869690251812,0.2944868206977844,-9.828198432922363,0.2968810200691223,0.01836649514734745,0.013309055007994175,-0.0077192517928779125
18869691488900,0.2825157940387726,-9.822212219238281,0.3076549172401428,0.0223592109978199,0.015172322280704975,-0.0066545275039970875
18869692726000,0.3315969407558441,-9.81263542175293,0.3411737382411957,0.02422248013317585,0.0138414166867733,-0.010381062515079975
18869693963100,0.3172317147254944,-9.827000617980957,0.3064578175544739,0.0215606689453125,0.00958251953125,-0.013042873702943325
18869695200175,0.3100491166114807,-9.830592155456543,0.3256114423274994,0.0215606689453125,0.010913425125181675,-0.008783976547420025
18869696437250,0.30526071786880493,-9.86889934539795,0.2825157940387726,0.0186326764523983,0.010114881210029125,-0.00692070834338665
18869697674350,0.30047231912612915,-9.830592155456543,0.3064578175544739,0.01650322787463665,0.015438503585755825,-0.00692070834338665
18869698911450,0.29209262132644653,-9.840168952941895,0.31124621629714966,0.015438503585755825,0.01357523538172245,-0.01117960549890995
18869700148537,0.2777273952960968,-9.816226959228516,0.2968810200691223,0.01996358297765255,0.01117960549890995,-0.01117960549890995
18869701385637,0.3100491166114807,-9.813833236694336,0.3363853394985199,0.023956298828125,0.012510511092841625,-0.0053236219100654125
18869702622737,0.31364041566848755,-9.836577415466309,0.33279404044151306,0.0223592109978199,0.01224433071911335,-0.006122165359556675
18869703859825,0.32202014327049255,-9.84615421295166,0.33997663855552673,0.023956298828125,0.01410759799182415,-0.008783976547420025
18869705096912,0.32441434264183044,-9.856928825378418,0.2885012924671173,0.02315775491297245,0.0119781494140625,-0.00692070834338665
18869706334012,0.3292027413845062,-9.823410034179688,0.2992752194404602,0.02129448764026165,0.010647243820130825,-0.010114881210029125
18869707571100,0.3363853394985199,-9.804256439208984,0.30047231912612915,0.02022976242005825,0.010913425125181675,-0.006122165359556675
18869708808200,0.304063618183136,-9.849745750427246,0.29568392038345337,0.0220930315554142,0.01224433071911335,-0.00692070834338665
18869710045275,0.272938996553421,-9.835380554199219,0.32202014327049255,0.0258195661008358,0.0114457868039608,-0.005855984054505825
18869711282375,0.28969842195510864,-9.825803756713867,0.35075056552886963,0.0220930315554142,0.0114457868039608,-0.005855984054505825
18869712519475,0.27653029561042786,-9.834183692932129,0.31124621629714966,0.02022976242005825,0.008251613937318325,-0.00984870083630085
18869713756550,0.3076549172401428,-9.858125686645508,0.26575639843940735,0.02502102218568325,0.010647243820130825,-0.003460354171693325
18869714993650,0.33518823981285095,-9.856928825378418,0.3555389642715454,0.02422248013317585,0.013309055007994175,-0.005855984054505825
18869716230737,0.29568392038345337,-9.84615421295166,0.3627215623855591,0.02422248013317585,0.01357523538172245,-0.003460354171693325
18869717467837,0.26815059781074524,-9.847352027893066,0.31603461503982544,0.0215606689453125,0.012510511092841625,-0.0031941730994731188
18869718704925,0.32441434264183044,-9.847352027893066,0.34835633635520935,0.0210283063352108,0.013309055007994175,-0.006122165359556675
18869719942037,0.3208230435848236,-9.871294021606445,0.3232172429561615,0.0204959437251091,0.008783976547420025,-0.0015970865497365594
18869721179112,0.31962594389915466,-9.80904483795166,0.30885201692581177,0.02129448764026165,0.01357523538172245,-0.004791259765625
18869722416212,0.304063618183136,-9.818621635437012,0.3256114423274994,0.014906140975654125,0.01597086526453495,-0.0090501569211483
18869723653312,0.3100491166114807,-9.830592155456543,0.2932897210121155,0.0173017717897892,0.010381062515079975,-0.00931633822619915
18869724890387,0.2908955216407776,-9.858125686645508,0.2885012924671173,0.01756795309484005,0.010381062515079975,-0.0039927163161337376
18869726127500,0.2717418968677521,-9.856928825378418,0.3016694188117981,0.0223592109978199,0.007453070487827063,0.0
18869727364562,0.27054479718208313,-9.852140426635742,0.3064578175544739,0.0220930315554142,0.005855984054505825,-0.0037265352439135313
18869728601675,0.2849099934101105,-9.862914085388184,0.33518823981285095,0.02262539230287075,0.005057440605014563,0.0010647244052961469
18869729838750,0.3256114423274994,-9.861717224121094,0.35434186458587646,0.0228915736079216,0.00692070834338665,0.0010647244052961469
18869731075837,0.304063618183136,-9.877279281616211,0.33279404044151306,0.02555338479578495,0.0066545275039970875,-0.0005323622026480734
18869732312937,0.27653029561042786,-9.877279281616211,0.2968810200691223,0.0223592109978199,0.0071868896484375,0.0010647244052961469
18869733550025,0.3100491166114807,-9.834183692932129,0.3411737382411957,0.0244886614382267,0.007985432632267475,-0.003460354171693325
18869734787100,0.3363853394985199,-9.84615421295166,0.3124433159828186,0.02182685025036335,0.005855984054505825,-0.0021294488105922937
18869736024212,0.2968810200691223,-9.865307807922363,0.3315969407558441,0.0191650390625,0.00452507846057415,0.0015970865497365594
18869737261312,0.33758243918418884,-9.852140426635742,0.36152446269989014,0.0244886614382267,0.008251613937318325,-0.003460354171693325
18869738498412,0.3280056416988373,-9.888052940368652,0.3172317147254944,0.0204959437251091,0.007453070487827063,0.0031941730994731188
18869739735487,0.31842881441116333,-9.907206535339355,0.3208230435848236,0.02022976242005825,0.0042588976211845875,0.0063883461989462376
18869740972600,0.28131869435310364,-9.894038200378418,0.34356793761253357,0.02129448764026165,0.0002661811013240367,0.0021294488105922937
18869742209675,0.31842881441116333,-9.871294021606445,0.3292027413845062,0.0258195661008358,0.0007985432748682797,0.0015970865497365594
18869743446762,0.27892449498176575,-9.840168952941895,0.3016694188117981,0.0220930315554142,0.0026618109550327063,0.0021294488105922937
18869744683862,0.31842881441116333,-9.855731010437012,0.2968810200691223,0.02076212503015995,0.006122165359556675,0.0029279920272529125
18869745920950,0.31124621629714966,-9.9000244140625,0.3363853394985199,0.0220930315554142,0.005855984054505825,0.0029279920272529125
18869747158050,0.32202014327049255,-9.915586471557617,0.3603273630142212,0.02022976242005825,0.006122165359556675,0.0026618109550327063
18869748395137,0.29209262132644653,-9.908403396606445,0.3447650372982025,0.01703559048473835,0.0063883461989462376,0.00452507846057415
18869749632237,0.2908955216407776,-9.872490882873535,0.3208230435848236,0.0196974016726017,0.003460354171693325,0.0042588976211845875
18869750869325,0.27054479718208313,-9.84615421295166,0.3232172429561615,0.02129448764026165,0.0021294488105922937,0.005855984054505825
18869752106412,0.27892449498176575,-9.871294021606445,0.2908955216407776,0.02129448764026165,0.008517795242369175,0.0026618109550327063
18869753343500,0.32202014327049255,-9.853337287902832,0.33758243918418884,0.01889885775744915,0.003460354171693325,0.0042588976211845875
18869754580600,0.31124621629714966,-9.883264541625977,0.3495534360408783,0.01783413253724575,0.0005323622026480734,0.0037265352439135313
18869755817687,0.2753331959247589,-9.86650562286377,0.365115761756897,0.01756795309484005,0.0063883461989462376,0.0018632676219567657
18869757054775,0.3232172429561615,-9.854534149169922,0.3363853394985199,0.01783413253724575,-0.0013309054775163531,0.008251613937318325
18869758291887,0.29209262132644653,-9.895236015319824,0.333991140127182,0.0167694091796875,-0.0007985432748682797,0.008517795242369175
18869759528950,0.2825157940387726,-9.897629737854004,0.3902548849582672,0.0138414166867733,0.0007985432748682797,0.0026618109550327063
18869760766050,0.28131869435310364,-9.859322547912598,0.3531447649002075,0.01703559048473835,0.0039927163161337376,0.0066545275039970875
18869762003150,0.27054479718208313,-9.894038200378418,0.36750996112823486,0.0167694091796875,0.0018632676219567657,0.008783976547420025
18869763240237,0.2753331959247589,-9.852140426635742,0.3064578175544739,0.01703559048473835,0.0026618109550327063,0.0026618109550327063
18869764477325,0.30047231912612915,-9.882067680358887,0.3627215623855591,0.02076212503015995,0.0026618109550327063,0.0042588976211845875
18869765714437,0.2861070930957794,-9.872490882873535,0.3687070608139038,0.0191650390625,-0.0002661811013240367,0.0071868896484375
18869766951525,0.243011474609375,-9.883264541625977,0.3100491166114807,0.0191650390625,-0.0005323622026480734,0.0029279920272529125
18869768188612,0.2753331959247589,-9.914389610290527,0.3555389642715454,0.0186326764523983,0.00452507846057415,0.0039927163161337376
18869769425700,0.3100491166114807,-9.884461402893066,0.32441434264183044,0.01996358297765255,0.004791259765625,0.0037265352439135313
18869770662775,0.2968810200691223,-9.873687744140625,0.36152446269989014,0.01756795309484005,0.0029279920272529125,0.007985432632267475
18869771899887,0.31124621629714966,-9.873687744140625,0.35913026332855225,0.014906140975654125,0.003460354171693325,0.0114457868039608
18869773136962,0.30286651849746704,-9.870096206665039,0.333991140127182,0.01756795309484005,0.0018632676219567657,0.004791259765625
18869774374062,0.31124621629714966,-9.862914085388184,0.3471592366695404,0.01783413253724575,-0.0031941730994731188,0.0090501569211483
18869775611162,0.30047231912612915,-9.864110946655273,0.35673606395721436,0.0191650390625,-0.0031941730994731188,0.010647243820130825
18869776848237,0.2992752194404602,-9.884461402893066,0.3064578175544739,0.01703559048473835,0.0,0.008517795242369175
18869778085350,0.2717418968677521,-9.865307807922363,0.3124433159828186,0.014906140975654125,0.0029279920272529125,0.006122165359556675
18869779322437,0.27054479718208313,-9.848548889160156,0.3734954595565796,0.0162370465695858,0.0,0.0077192517928779125
18869780559537,0.2561795711517334,-9.889249801635742,0.3603273630142212,0.012510511092841625,-0.0021294488105922937,0.0039927163161337376
18869781796625,0.29807811975479126,-9.859322547912598,0.34356793761253357,0.01410759799182415,0.0023956298828125,0.005589802749454975
18869783033725,0.25737667083740234,-9.86770248413086,0.304063618183136,0.0167694091796875,0.0005323622026480734,0.0042588976211845875
18869784270825,0.2669534981250763,-9.916783332824707,0.33279404044151306,0.0162370465695858,-0.0005323622026480734,0.0090501569211483
18869785507900,0.34596213698387146,-9.832986831665039,0.35673606395721436,0.0186326764523983,-0.003460354171693325,0.012510511092841625
18869786745000,0.3124433159828186,-9.834183692932129,0.3878606855869293,0.01224433071911335,-0.0002661811013240367,0.005057440605014563
18869787982087,0.30047231912612915,-9.830592155456543,0.33758243918418884,0.01224433071911335,0.005057440605014563,0.0039927163161337376
18869789219175,0.30047231912612915,-9.861717224121094,0.34596213698387146,0.012510511092841625,0.0002661811013240367,0.00984870083630085
18869790456275,0.2669534981250763,-9.856928825378418,0.365115761756897,0.0114457868039608,0.0010647244052961469,0.007985432632267475
18869791693375,0.2621650993824005,-9.849745750427246,0.3579331636428833,0.012510511092841625,-0.0018632676219567657,0.0071868896484375
18869792930450,0.2621650993824005,-9.84256362915039,0.34835633635520935,0.0162370465695858,-0.005589802749454975,0.005855984054505825
18869794167562,0.30047231912612915,-9.84495735168457,0.3687070608139038,0.012776692397892475,0.0007985432748682797,0.0077192517928779125
18869795404637,0.2322375625371933,-9.828198432922363,0.3902548849582672,0.01117960549890995,0.0005323622026480734,0.006122165359556675
18869796641737,0.28730419278144836,-9.84376049041748,0.363918662071228,0.01943122036755085,0.0,0.005057440605014563
18869797878825,0.2645592987537384,-9.861717224121094,0.37229835987091064,0.014373779296875,0.0,0.00984870083630085
18869799115912,0.3016694188117981,-9.847352027893066,0.3292027413845062,0.00984870083630085,-0.0007985432748682797,0.005589802749454975
18869800352987,0.28730419278144836,-9.84495735168457,0.3292027413845062,0.01597086526453495,0.0002661811013240367,0.0066545275039970875
18869801590100,0.2621650993824005,-9.84615421295166,0.38307228684425354,0.01410759799182415,0.0021294488105922937,0.008251613937318325
18869802827200,0.2753331959247589,-9.86650562286377,0.3531447649002075,0.01171196810901165,0.0023956298828125,0.0018632676219567657
18869804064287,0.2861070930957794,-9.854534149169922,0.33997663855552673,0.01410759799182415,0.0013309054775163531,0.0
18869805301387,0.28131869435310364,-9.90122127532959,0.35434186458587646,0.0138414166867733,0.0015970865497365594,0.005855984054505825
18869806538487,0.22026655077934265,-9.861717224121094,0.3687070608139038,0.01357523538172245,0.0023956298828125,0.0063883461989462376
18869807775575,0.26336219906806946,-9.882067680358887,0.365115761756897,0.014906140975654125,-0.0010647244052961469,0.0013309054775163531
18869809012650,0.2597709000110626,-9.870096206665039,0.36990416049957275,0.01357523538172245,-0.0015970865497365594,-0.0007985432748682797
18869810249750,0.2454056739807129,-9.870096206665039,0.3363853394985199,0.0119781494140625,-0.0031941730994731188,0.0053236219100654125
18869811486837,0.2801215946674347,-9.855731010437012,0.3902548849582672,0.010647243820130825,0.0026618109550327063,0.007453070487827063
18869812723937,0.2717418968677521,-9.880870819091797,0.36990416049957275,0.0119781494140625,0.0007985432748682797,0.006122165359556675
18869813961037,0.2322375625371933,-9.860519409179688,0.38067808747291565,0.0167694091796875,-0.0015970865497365594,0.0002661811013240367
18869815198100,0.23822307586669922,-9.860519409179688,0.4082113802433014,0.012510511092841625,0.0037265352439135313,0.0007985432748682797
18869816435212,0.27413609623908997,-9.9000244140625,0.3818751871585846,0.01224433071911335,0.006122165359556675,0.005057440605014563
18869817672325,0.27054479718208313,-9.872490882873535,0.365115761756897,0.01171196810901165,0.005589802749454975,0.0029279920272529125
18869818909387,0.243011474609375,-9.865307807922363,0.3627215623855591,0.0119781494140625,0.0010647244052961469,0.0042588976211845875
18869820146487,0.2645592987537384,-9.86770248413086,0.40462008118629456,0.014906140975654125,0.0042588976211845875,0.0015970865497365594
18869821383562,0.27892449498176575,-9.90361499786377,0.3687070608139038,0.01463996060192585,0.0063883461989462376,-0.0021294488105922937
18869822620675,0.27054479718208313,-9.877279281616211,0.38067808747291565,0.010381062515079975,0.005057440605014563,-0.0005323622026480734
18869823857750,0.2932897210121155,-9.873687744140625,0.3579331636428833,0.010114881210029125,0.0039927163161337376,0.0005323622026480734
18869825094850,0.26575639843940735,-9.877279281616211,0.36750996112823486,0.00984870083630085,0.00692070834338665,0.0007985432748682797
18869826331950,0.21667525172233582,-9.891644477844238,0.3531447649002075,0.015172322280704975,0.0031941730994731188,-0.0013309054775163531
18869827569025,0.26815059781074524,-9.882067680358887,0.3758896589279175,0.010114881210029125,0.0029279920272529125,0.0023956298828125
18869828806125,0.25019407272338867,-9.84615421295166,0.37828385829925537,0.010647243820130825,0.0042588976211845875,-0.0021294488105922937
18869830043212,0.25258827209472656,-9.818621635437012,0.38307228684425354,0.01171196810901165,0.0021294488105922937,-0.0018632676219567657
18869831280312,0.22744916379451752,-9.849745750427246,0.39863458275794983,0.008517795242369175,-0.0002661811013240367,-0.0029279920272529125
18869832517412,0.2645592987537384,-9.889249801635742,0.3818751871585846,0.00984870083630085,0.0029279920272529125,-0.0007985432748682797
18869833754487,0.27413609623908997,-9.859322547912598,0.36750996112823486,0.008517795242369175,0.0026618109550327063,-0.0037265352439135313
18869834991587,0.24420857429504395,-9.894038200378418,0.33997663855552673,0.0090501569211483,0.008251613937318325,-0.0013309054775163531
18869836228675,0.23822307586669922,-9.888052940368652,0.3818751871585846,0.00984870083630085,0.0063883461989462376,-0.0007985432748682797
18869837465762,0.28969842195510864,-9.872490882873535,0.34835633635520935,0.0114457868039608,0.00692070834338665,-0.0013309054775163531
18869838702875,0.27413609623908997,-9.84495735168457,0.3687070608139038,0.008783976547420025,0.0071868896484375,-0.0037265352439135313
18869839939975,0.24181437492370605,-9.859322547912598,0.39624038338661194,0.008517795242369175,0.006122165359556675,-0.005589802749454975
18869841177050,0.24420857429504395,-9.853337287902832,0.34835633635520935,0.0037265352439135313,0.0066545275039970875,-0.0071868896484375
18869842414137,0.3172317147254944,-9.911994934082031,0.36152446269989014,0.010114881210029125,0.005589802749454975,-0.0015970865497365594
18869843651237,0.243011474609375,-9.862914085388184,0.33997663855552673,0.010114881210029125,0.005855984054505825,-0.0010647244052961469
18869844888312,0.24779987335205078,-9.86650562286377,0.36152446269989014,0.006122165359556675,0.0063883461989462376,-0.0018632676219567657
18869846125412,0.26815059781074524,-9.877279281616211,0.395043283700943,0.008783976547420025,0.0002661811013240367,-0.003460354171693325
18869847362512,0.24181437492370605,-9.856928825378418,0.3770867586135864,0.01463996060192585,0.005057440605014563,-0.006122165359556675
18869848599612,0.26336219906806946,-9.860519409179688,0.3519476652145386,0.005855984054505825,0.00958251953125,-0.00452507846057415
18869849836700,0.2908955216407776,-9.888052940368652,0.35075056552886963,0.0029279920272529125,0.010114881210029125,-0.0053236219100654125
18869851073787,0.27054479718208313,-9.882067680358887,0.333991140127182,0.0063883461989462376,0.008517795242369175,-0.0053236219100654125
18869852310887,0.23822307586669922,-9.883264541625977,0.35673606395721436,0.0053236219100654125,0.010114881210029125,-0.0053236219100654125
18869853547987,0.2932897210121155,-9.86770248413086,0.38905778527259827,0.0021294488105922937,0.00984870083630085,-0.0071868896484375
18869854785062,0.2693476974964142,-9.882067680358887,0.365115761756897,0.0037265352439135313,0.012776692397892475,-0.007985432632267475
18869856022150,0.243011474609375,-9.877279281616211,0.3603273630142212,0.0071868896484375,0.00984870083630085,-0.006122165359556675
18869857259250,0.28371289372444153,-9.856928825378418,0.3423708379268646,0.0013309054775163531,0.012510511092841625,-0.008517795242369175
18869858496337,0.304063618183136,-9.849745750427246,0.37828385829925537,0.005589802749454975,0.0114457868039608,-0.0037265352439135313
18869859733437,0.2717418968677521,-9.897629737854004,0.3280056416988373,0.008783976547420025,0.008517795242369175,-0.003460354171693325
18869860970512,0.26575639843940735,-9.888052940368652,0.333991140127182,0.0077192517928779125,0.008251613937318325,0.0010647244052961469
18869862207625,0.272938996553421,-9.909601211547852,0.36152446269989014,0.00984870083630085,0.0138414166867733,0.0005323622026480734
18869863444712,0.2693476974964142,-9.871294021606445,0.363918662071228,0.0053236219100654125,0.015172322280704975,-0.0007985432748682797
18869864681812,0.2645592987537384,-9.860519409179688,0.3232172429561615,0.005855984054505825,0.01117960549890995,-0.003460354171693325
18869865918887,0.26575639843940735,-9.832986831665039,0.3232172429561615,0.00692070834338665,0.010647243820130825,-0.005589802749454975
18869867156000,0.2645592987537384,-9.895236015319824,0.36750996112823486,0.005057440605014563,0.00931633822619915,-0.0029279920272529125
18869868393087,0.23702597618103027,-9.86889934539795,0.395043283700943,0.005057440605014563,0.0077192517928779125,-0.00452507846057415
18869869630187,0.28131869435310364,-9.917980194091797,0.33997663855552673,0.0010647244052961469,0.01117960549890995,-0.0026618109550327063
18869870867275,0.2621650993824005,-9.892841339111328,0.36152446269989014,0.0002661811013240367,0.010381062515079975,-0.0066545275039970875
18869872104375,0.272938996553421,-9.837775230407715,0.3734954595565796,0.003460354171693325,0.01410759799182415,-0.005589802749454975
18869873341450,0.24181437492370605,-9.860519409179688,0.35075056552886963,0.0039927163161337376,0.013309055007994175,-0.0090501569211483
18869874578550,0.2777273952960968,-9.86650562286377,0.34835633635520935,0.0015970865497365594,0.00931633822619915,-0.005057440605014563
18869875815637,0.28131869435310364,-9.883264541625977,0.333991140127182,0.003460354171693325,0.01463996060192585,-0.0015970865497365594
18869877052737,0.27413609623908997,-9.838972091674805,0.3387795388698578,0.0066545275039970875,0.012510511092841625,-0.0015970865497365594
18869878289812,0.29807811975479126,-9.824606895446777,0.3663128614425659,0.0007985432748682797,0.010647243820130825,-0.0023956298828125
18869879526912,0.26575639843940735,-9.8784761428833,0.33997663855552673,0.0029279920272529125,0.0119781494140625,-0.0037265352439135313
18869880764012,0.31962594389915466,-9.872490882873535,0.3902548849582672,0.0023956298828125,0.010114881210029125,-0.0042588976211845875
18869882001100,0.2537853717803955,-9.86889934539795,0.36750996112823486,-0.0018632676219567657,0.014906140975654125,-0.0066545275039970875
18869883238200,0.2717418968677521,-9.825803756713867,0.31842881441116333,0.0010647244052961469,0.0181003138422966,-0.0007985432748682797
18869884475262,0.2777273952960968,-9.828198432922363,0.37229835987091064,0.0,0.01463996060192585,-0.0026618109550327063
18869885712375,0.2932897210121155,-9.8784761428833,0.33039984107017517,0.0023956298828125,0.01410759799182415,-0.005855984054505825
18869886949462,0.3016694188117981,-9.860519409179688,0.2992752194404602,-0.0002661811013240367,0.014906140975654125,-0.006122165359556675
18869888186575,0.26336219906806946,-9.882067680358887,0.365115761756897,-0.0010647244052961469,0.0167694091796875,-0.010647243820130825
18869889423662,0.2885012924671173,-9.862914085388184,0.36750996112823486,-0.0005323622026480734,0.00984870083630085,-0.0039927163161337376
18869890660762,0.30885201692581177,-9.858125686645508,0.33997663855552673,-0.0007985432748682797,0.013309055007994175,-0.0031941730994731188
18869891897837,0.2968810200691223,-9.830592155456543,0.3902548849582672,0.0015970865497365594,0.014906140975654125,-0.0029279920272529125
18869893134937,0.304063618183136,-9.883264541625977,0.3555389642715454,-0.0007985432748682797,0.013042873702943325,-0.0029279920272529125
18869894372037,0.27413609623908997,-9.90361499786377,0.3555389642715454,-0.0015970865497365594,0.01836649514734745,-0.0015970865497365594
18869895609112,0.27054479718208313,-9.8784761428833,0.3866635859012604,-0.0037265352439135313,0.02022976242005825,-0.0010647244052961469
18869896846200,0.2861070930957794,-9.894038200378418,0.32441434264183044,-0.008251613937318325,0.01889885775744915,-0.005589802749454975
18869898083312,0.2932897210121155,-9.886856079101562,0.34835633635520935,-0.0007985432748682797,0.01836649514734745,-0.0005323622026480734
18869899320412,0.26575639843940735,-9.889249801635742,0.3208230435848236,-0.0018632676219567657,0.014373779296875,0.0010647244052961469
18869900557475,0.25258827209472656,-9.852140426635742,0.3172317147254944,0.00452507846057415,0.014373779296875,0.003460354171693325
18869901794587,0.23104046285152435,-9.856928825378418,0.35075056552886963,0.003460354171693325,0.010114881210029125,0.0010647244052961469
18869903031675,0.28371289372444153,-9.853337287902832,0.3687070608139038,-0.0015970865497365594,0.013042873702943325,-0.0015970865497365594
18869904268762,0.28730419278144836,-9.891644477844238,0.3531447649002075,0.0018632676219567657,0.0119781494140625,0.0015970865497365594
18869905505850,0.3208230435848236,-9.864110946655273,0.333991140127182,0.0021294488105922937,0.015172322280704975,0.0031941730994731188
18869906742950,0.3076549172401428,-9.872490882873535,0.33518823981285095,-0.0010647244052961469,0.015172322280704975,0.004791259765625
18869907980037,0.2825157940387726,-9.856928825378418,0.395043283700943,0.0007985432748682797,0.01703559048473835,0.0029279920272529125
18869909217125,0.27413609623908997,-9.904812812805176,0.3818751871585846,0.0023956298828125,0.02076212503015995,0.0007985432748682797
18869910454225,0.26336219906806946,-9.86650562286377,0.37229835987091064,0.0005323622026480734,0.014373779296875,0.006122165359556675
18869911691312,0.31842881441116333,-9.86650562286377,0.3758896589279175,-0.003460354171693325,0.015172322280704975,0.003460354171693325
18869912928425,0.2777273952960968,-9.855731010437012,0.37229835987091064,0.0037265352439135313,0.01410759799182415,0.0015970865497365594
18869914165500,0.27653029561042786,-9.86650562286377,0.28371289372444153,0.0021294488105922937,0.0167694091796875,0.0042588976211845875
18869915402600,0.26096799969673157,-9.886856079101562,0.3363853394985199,0.0023956298828125,0.0186326764523983,0.007453070487827063
18869916639675,0.27892449498176575,-9.861717224121094,0.32680854201316833,-0.0013309054775163531,0.01357523538172245,0.00692070834338665
18869917876787,0.2861070930957794,-9.884461402893066,0.31962594389915466,-0.0029279920272529125,0.0173017717897892,-0.0010647244052961469
18869919113875,0.2908955216407776,-9.87967300415039,0.34596213698387146,0.0015970865497365594,0.0181003138422966,0.0002661811013240367
18869920350962,0.23582887649536133,-9.894038200378418,0.33039984107017517,-0.0007985432748682797,0.01357523538172245,0.004791259765625
18869921588062,0.27653029561042786,-9.906009674072266,0.31364041566848755,-0.0039927163161337376,0.015438503585755825,0.0023956298828125
18869922825150,0.2454056739807129,-9.883264541625977,0.33997663855552673,-0.007985432632267475,0.02315775491297245,-0.0053236219100654125
18869924062262,0.2561795711517334,-9.828198432922363,0.3423708379268646,-0.0031941730994731188,0.0228915736079216,-0.0002661811013240367
18869925299325,0.2777273952960968,-9.832986831665039,0.3411737382411957,0.0010647244052961469,0.0167694091796875,0.006122165359556675
18869926536425,0.2861070930957794,-9.836577415466309,0.30286651849746704,0.0015970865497365594,0.01463996060192585,0.00931633822619915
18869927773525,0.3064578175544739,-9.841365814208984,0.31124621629714966,0.0,0.015172322280704975,0.0037265352439135313
18869929010625,0.2561795711517334,-9.852140426635742,0.3256114423274994,-0.00452507846057415,0.01463996060192585,0.0005323622026480734
18869930247700,0.28371289372444153,-9.803058624267578,0.33039984107017517,-0.00692070834338665,0.010381062515079975,0.0077192517928779125
18869931484800,0.2825157940387726,-9.852140426635742,0.3148375153541565,-0.0018632676219567657,0.01463996060192585,0.0063883461989462376
18869932721887,0.2801215946674347,-9.84256362915039,0.28730419278144836,0.0013309054775163531,0.01836649514734745,-0.0002661811013240367
18869933958987,0.28730419278144836,-9.852140426635742,0.3076549172401428,0.0026618109550327063,0.014906140975654125,0.0071868896484375
18869935196087,0.2861070930957794,-9.837775230407715,0.3292027413845062,0.0010647244052961469,0.0173017717897892,0.0071868896484375
18869936433162,0.31364041566848755,-9.873687744140625,0.33758243918418884,-0.0005323622026480734,0.0173017717897892,0.0013309054775163531
18869937670250,0.29807811975479126,-9.80904483795166,0.35673606395721436,0.0029279920272529125,0.014373779296875,0.0031941730994731188
18869938907375,0.3100491166114807,-9.858125686645508,0.3627215623855591,-0.0007985432748682797,0.01889885775744915,0.00452507846057415
18869940144450,0.3100491166114807,-9.883264541625977,0.32441434264183044,-0.0031941730994731188,0.01783413253724575,0.006122165359556675
18869941381537,0.29807811975479126,-9.8784761428833,0.34596213698387146,-0.0005323622026480734,0.0157046839594841,0.00692070834338665
18869942618625,0.32202014327049255,-9.90361499786377,0.3208230435848236,0.0007985432748682797,0.01703559048473835,0.007985432632267475
18869943855737,0.30047231912612915,-9.883264541625977,0.3256114423274994,-0.0015970865497365594,0.0223592109978199,0.0039927163161337376
18869945092837,0.2849099934101105,-9.852140426635742,0.3208230435848236,-0.0023956298828125,0.01756795309484005,0.007453070487827063
18869946329912,0.3411737382411957,-9.882067680358887,0.34356793761253357,-0.00452507846057415,0.01117960549890995,0.007453070487827063
18869947566987,0.3016694188117981,-9.882067680358887,0.32202014327049255,-0.00452507846057415,0.01357523538172245,0.0066545275039970875
18869948804100,0.2861070930957794,-9.884461402893066,0.3471592366695404,-0.0039927163161337376,0.014906140975654125,0.007985432632267475
18869950041187,0.28969842195510864,-9.848548889160156,0.31962594389915466,-0.0042588976211845875,0.0173017717897892,0.003460354171693325
18869951278262,0.28969842195510864,-9.855731010437012,0.3555389642715454,-0.005589802749454975,0.0191650390625,0.0071868896484375
18869952515375,0.3280056416988373,-9.871294021606445,0.36750996112823486,-0.005855984054505825,0.0119781494140625,0.010114881210029125
18869953752462,0.28969842195510864,-9.854534149169922,0.3315969407558441,-0.0023956298828125,0.015438503585755825,0.0173017717897892
18869954989562,0.26096799969673157,-9.847352027893066,0.34356793761253357,-0.0023956298828125,0.01836649514734745,0.008251613937318325
18869956226650,0.26815059781074524,-9.87967300415039,0.3758896589279175,-0.0021294488105922937,0.01597086526453495,0.004791259765625
18869957463737,0.2968810200691223,-9.848548889160156,0.35075056552886963,-0.0026618109550327063,0.01943122036755085,0.005855984054505825
18869958700850,0.2621650993824005,-9.824606895446777,0.3148375153541565,0.0026618109550327063,0.0196974016726017,0.014373779296875
18869959937937,0.3064578175544739,-9.837775230407715,0.3208230435848236,-0.0029279920272529125,0.0220930315554142,0.0119781494140625
18869961175025,0.28969842195510864,-9.860519409179688,0.36750996112823486,-0.0037265352439135313,0.01650322787463665,0.012776692397892475
18869962412125,0.28969842195510864,-9.849745750427246,0.30526071786880493,-0.0042588976211845875,0.01463996060192585,0.007453070487827063
18869963649212,0.2645592987537384,-9.828198432922363,0.32680854201316833,-0.0007985432748682797,0.015172322280704975,0.00984870083630085
18869964886287,0.31364041566848755,-9.816226959228516,0.3124433159828186,-0.0039927163161337376,0.0157046839594841,0.01171196810901165
18869966123387,0.30526071786880493,-9.819818496704102,0.34596213698387146,0.0018632676219567657,0.01889885775744915,0.014906140975654125
18869967360475,0.3016694188117981,-9.816226959228516,0.30526071786880493,0.0007985432748682797,0.01783413253724575,0.01224433071911335
18869968597562,0.31603461503982544,-9.828198432922363,0.3423708379268646,-0.0023956298828125,0.01410759799182415,0.01463996060192585
18869969834687,0.2885012924671173,-9.832986831665039,0.3471592366695404,-0.0021294488105922937,0.014373779296875,0.01650322787463665
18869971071750,0.2908955216407776,-9.840168952941895,0.3172317147254944,0.0029279920272529125,0.0119781494140625,0.010647243820130825
18869972308862,0.31124621629714966,-9.819818496704102,0.3292027413845062,0.0010647244052961469,0.012510511092841625,0.010114881210029125
18869973545937,0.32680854201316833,-9.81143856048584,0.32441434264183044,0.0018632676219567657,0.015172322280704975,0.01597086526453495
18869974783037,0.3172317147254944,-9.828198432922363,0.3100491166114807,0.0013309054775163531,0.01783413253724575,0.015438503585755825
18869976020150,0.3315969407558441,-9.865307807922363,0.3627215623855591,0.0005323622026480734,0.01650322787463665,0.0157046839594841
18869977257225,0.304063618183136,-9.835380554199219,0.3100491166114807,0.0015970865497365594,0.0119781494140625,0.014906140975654125
18869978494325,0.30286651849746704,-9.803058624267578,0.34356793761253357,0.005057440605014563,0.010913425125181675,0.01650322787463665
18869979731412,0.2801215946674347,-9.858125686645508,0.3076549172401428,0.0042588976211845875,0.0173017717897892,0.01650322787463665
18869980968512,0.32680854201316833,-9.801861763000488,0.3208230435848236,0.0029279920272529125,0.0167694091796875,0.01783413253724575
18869982205587,0.3076549172401428,-9.801861763000488,0.2908955216407776,0.0042588976211845875,0.01357523538172245,0.0181003138422966
18869983442700,0.30526071786880493,-9.834183692932129,0.3423708379268646,0.004791259765625,0.01410759799182415,0.015438503585755825
18869984679800,0.28730419278144836,-9.815030097961426,0.32441434264183044,0.0063883461989462376,0.01463996060192585,0.015172322280704975
18869985916875,0.3124433159828186,-9.831789016723633,0.3579331636428833,0.005855984054505825,0.00692070834338665,0.01650322787463665
18869987153950,0.27413609623908997,-9.815030097961426,0.3208230435848236,0.00958251953125,0.0077192517928779125,0.01783413253724575
18869988391075,0.3292027413845062,-9.84495735168457,0.3280056416988373,0.0037265352439135313,0.0162370465695858,0.0181003138422966
18869989628150,0.27892449498176575,-9.804256439208984,0.3411737382411957,0.00931633822619915,0.01117960549890995,0.0204959437251091
18869990865250,0.3076549172401428,-9.835380554199219,0.3411737382411957,0.0071868896484375,0.0114457868039608,0.0258195661008358
18869992102350,0.31603461503982544,-9.847352027893066,0.3531447649002075,0.0077192517928779125,0.01410759799182415,0.0186326764523983
18869993339437,0.26096799969673157,-9.870096206665039,0.36152446269989014,0.008251613937318325,0.0157046839594841,0.01410759799182415
18869994576525,0.29568392038345337,-9.86650562286377,0.363918662071228,0.014373779296875,0.0138414166867733,0.0223592109978199
18869995813625,0.30885201692581177,-9.827000617980957,0.31364041566848755,0.006122165359556675,0.013042873702943325,0.02369011752307415
18869997050725,0.34356793761253357,-9.871294021606445,0.3124433159828186,0.0066545275039970875,0.0114457868039608,0.02076212503015995
18869998287787,0.3411737382411957,-9.865307807922363,0.2861070930957794,0.01117960549890995,0.014373779296875,0.01597086526453495
18869999524900,0.3124433159828186,-9.785102844238281,0.34835633635520935,0.01650322787463665,0.010114881210029125,0.0258195661008358
18870000761975,0.27054479718208313,-9.801861763000488,0.39624038338661194,0.008251613937318325,0.008783976547420025,0.0244886614382267
18870001999087,0.28969842195510864,-9.889249801635742,0.3555389642715454,0.00958251953125,0.013309055007994175,0.0223592109978199
18870003236175,0.28131869435310364,-9.818621635437012,0.33039984107017517,0.00931633822619915,0.010114881210029125,0.01889885775744915
18870004473237,0.272938996553421,-9.853337287902832,0.3256114423274994,0.004791259765625,0.00958251953125,0.01836649514734745
18870005710362,0.3100491166114807,-9.86770248413086,0.32202014327049255,0.0053236219100654125,0.007453070487827063,0.02794901467859745
18870006947462,0.2944868206977844,-9.837775230407715,0.36750996112823486,0.007985432632267475,0.005057440605014563,0.023956298828125
18870008184550,0.3076549172401428,-9.804256439208984,0.31842881441116333,0.0090501569211483,0.00931633822619915,0.01836649514734745
18870009421662,0.29807811975479126,-9.848548889160156,0.30526071786880493,0.010647243820130825,0.00984870083630085,0.0162370465695858
18870010658725,0.3076549172401428,-9.856928825378418,0.3687070608139038,0.010647243820130825,0.0090501569211483,0.01889885775744915
18870011895825,0.25498247146606445,-9.822212219238281,0.3471592366695404,0.010913425125181675,0.008783976547420025,0.0167694091796875
18870013132937,0.31124621629714966,-9.823410034179688,0.3627215623855591,0.01117960549890995,0.007985432632267475,0.0186326764523983
18870014370012,0.30885201692581177,-9.84376049041748,0.3172317147254944,0.00692070834338665,0.010114881210029125,0.01703559048473835
18870015607112,0.25019407272338867,-9.834183692932129,0.3471592366695404,0.006122165359556675,0.007985432632267475,0.01650322787463665
18870016844200,0.2849099934101105,-9.80904483795166,0.31842881441116333,0.01117960549890995,0.007453070487827063,0.02182685025036335
18870018081287,0.29807811975479126,-9.84256362915039,0.3902548849582672,0.010114881210029125,0.0090501569211483,0.02076212503015995
18870019318387,0.28730419278144836,-9.801861763000488,0.34596213698387146,0.01357523538172245,0.00984870083630085,0.01996358297765255
18870020555475,0.3016694188117981,-9.882067680358887,0.3280056416988373,0.014373779296875,0.0042588976211845875,0.01996358297765255
18870021792575,0.33279404044151306,-9.827000617980957,0.32202014327049255,0.0138414166867733,0.0063883461989462376,0.01650322787463665
18870023029662,0.2992752194404602,-9.828198432922363,0.34596213698387146,0.01463996060192585,0.0077192517928779125,0.0162370465695858
18870024266750,0.3100491166114807,-9.838972091674805,0.3579331636428833,0.014906140975654125,0.0063883461989462376,0.0173017717897892
18870025503837,0.2861070930957794,-9.80904483795166,0.35913026332855225,0.00931633822619915,0.005057440605014563,0.0228915736079216
18870026740950,0.32202014327049255,-9.8784761428833,0.33518823981285095,0.008783976547420025,0.0053236219100654125,0.02076212503015995
18870027978037,0.2597709000110626,-9.821015357971191,0.32680854201316833,0.013042873702943325,0.0066545275039970875,0.01943122036755085
18870029215112,0.2944868206977844,-9.828198432922363,0.3064578175544739,0.014373779296875,0.007453070487827063,0.0157046839594841
18870030452237,0.30526071786880493,-9.792284965515137,0.34596213698387146,0.01756795309484005,0.0021294488105922937,0.01597086526453495
18870031689312,0.3016694188117981,-9.819818496704102,0.3519476652145386,0.01117960549890995,0.0018632676219567657,0.01597086526453495
18870032926425,0.3124433159828186,-9.831789016723633,0.34835633635520935,0.014906140975654125,0.005057440605014563,0.0215606689453125
18870034163512,0.30526071786880493,-9.836577415466309,0.32680854201316833,0.014906140975654125,0.00452507846057415,0.0196974016726017
18870035400600,0.2561795711517334,-9.841365814208984,0.34835633635520935,0.014373779296875,0.0026618109550327063,0.01756795309484005
18870036637662,0.27892449498176575,-9.832986831665039,0.33039984107017517,0.0162370465695858,0.0039927163161337376,0.0215606689453125
18870037874775,0.29209262132644653,-9.840168952941895,0.3603273630142212,0.00931633822619915,0.0119781494140625,0.015438503585755825
18870039111875,0.24779987335205078,-9.81143856048584,0.3627215623855591,0.012510511092841625,0.010114881210029125,0.01597086526453495
18870040348975,0.2849099934101105,-9.80904483795166,0.35913026332855225,0.012776692397892475,0.0053236219100654125,0.0186326764523983
18870041586050,0.2777273952960968,-9.877279281616211,0.33758243918418884,0.010114881210029125,0.012776692397892475,0.0162370465695858
18870042823150,0.2825157940387726,-9.865307807922363,0.37229835987091064,0.0119781494140625,0.0042588976211845875,0.01597086526453495
18870044060262,0.22864626348018646,-9.877279281616211,0.31603461503982544,0.01171196810901165,0.0066545275039970875,0.0162370465695858
18870045297337,0.2777273952960968,-9.821015357971191,0.35434186458587646,0.014906140975654125,0.008783976547420025,0.02129448764026165
18870046534425,0.2406172752380371,-9.803058624267578,0.43335050344467163,0.0173017717897892,0.008251613937318325,0.01783413253724575
18870047771537,0.2693476974964142,-9.837775230407715,0.35673606395721436,0.014906140975654125,0.0031941730994731188,0.012510511092841625
18870049008612,0.21667525172233582,-9.870096206665039,0.3555389642715454,0.01597086526453495,0.0007985432748682797,0.00931633822619915
18870050245712,0.2537853717803955,-9.804256439208984,0.3495534360408783,0.0181003138422966,0.0013309054775163531,0.01117960549890995
18870051482825,0.2693476974964142,-9.858125686645508,0.33279404044151306,0.012776692397892475,0.0042588976211845875,0.01171196810901165
18870052719887,0.21188685297966003,-9.864110946655273,0.3495534360408783,0.01463996060192585,0.0005323622026480734,0.01224433071911335
18870053957000,0.23582887649536133,-9.86650562286377,0.3663128614425659,0.007985432632267475,0.0015970865497365594,0.0138414166867733
18870055194062,0.2537853717803955,-9.838972091674805,0.3758896589279175,0.01171196810901165,0.0053236219100654125,0.00958251953125
18870056431175,0.19871874153614044,-9.890447616577148,0.36990416049957275,0.0114457868039608,0.0013309054775163531,0.015438503585755825
18870057668275,0.2561795711517334,-9.889249801635742,0.3124433159828186,0.01410759799182415,0.005589802749454975,0.010114881210029125
18870058905350,0.25019407272338867,-9.84256362915039,0.3315969407558441,0.0090501569211483,0.008517795242369175,0.012510511092841625
18870060142450,0.2717418968677521,-9.84495735168457,0.34596213698387146,0.00984870083630085,0.00984870083630085,0.01171196810901165
18870061379550,0.22625206410884857,-9.90361499786377,0.37469255924224854,0.01357523538172245,0.0029279920272529125,0.00984870083630085
18870062616637,0.25258827209472656,-9.877279281616211,0.35673606395721436,0.01224433071911335,0.0037265352439135313,0.0071868896484375
18870063853725,0.2322375625371933,-9.87967300415039,0.3627215623855591,0.00931633822619915,0.0007985432748682797,0.0114457868039608
18870065090825,0.2908955216407776,-9.876082420349121,0.3842693865299225,0.0090501569211483,-0.0005323622026480734,0.0090501569211483
18870066327925,0.27413609623908997,-9.90122127532959,0.35075056552886963,0.0090501569211483,-0.0037265352439135313,0.00931633822619915
18870067565000,0.27892449498176575,-9.886856079101562,0.3172317147254944,0.00958251953125,-0.0026618109550327063,0.007985432632267475
18870068802100,0.22625206410884857,-9.86650562286377,0.363918662071228,0.0077192517928779125,0.0031941730994731188,0.00984870083630085
18870070039212,0.24899697303771973,-9.926360130310059,0.3447650372982025,0.010114881210029125,0.00452507846057415,0.01224433071911335
18870071276287,0.2717418968677521,-9.873687744140625,0.3627215623855591,0.008517795242369175,0.0010647244052961469,0.0114457868039608
18870072513387,0.2885012924671173,-9.8784761428833,0.365115761756897,0.0077192517928779125,-0.0031941730994731188,0.007985432632267475
18870073750475,0.2537853717803955,-9.898826599121094,0.3579331636428833,0.0066545275039970875,-0.0039927163161337376,0.004791259765625
18870074987575,0.26336219906806946,-9.86889934539795,0.36152446269989014,0.004791259765625,0.0018632676219567657,0.008783976547420025
18870076224650,0.22744916379451752,-9.90241813659668,0.33997663855552673,0.00692070834338665,0.0021294488105922937,0.00692070834338665
18870077461762,0.2190694510936737,-9.895236015319824,0.38067808747291565,0.00931633822619915,-0.0031941730994731188,0.0026618109550327063
18870078698862,0.24660277366638184,-9.892841339111328,0.395043283700943,0.0077192517928779125,0.0007985432748682797,0.005057440605014563
18870079935937,0.25498247146606445,-9.871294021606445,0.3411737382411957,0.0063883461989462376,0.0002661811013240367,0.0077192517928779125
18870081173025,0.27892449498176575,-9.890447616577148,0.3315969407558441,0.0063883461989462376,-0.0023956298828125,0.0042588976211845875
18870082410112,0.2621650993824005,-9.864110946655273,0.3555389642715454,0.004791259765625,-0.0018632676219567657,0.0015970865497365594
18870083647212,0.25498247146606445,-9.834183692932129,0.32680854201316833,0.00452507846057415,0.006122165359556675,0.00452507846057415
18870084884312,0.23343466222286224,-9.836577415466309,0.3519476652145386,0.010913425125181675,0.0015970865497365594,0.0002661811013240367
18870086121412,0.19871874153614044,-9.84376049041748,0.3818751871585846,0.010114881210029125,0.0021294488105922937,-0.0002661811013240367
18870087358500,0.24660277366638184,-9.8784761428833,0.35913026332855225,0.0063883461989462376,0.0005323622026480734,0.0005323622026480734
18870088595600,0.22505496442317963,-9.854534149169922,0.3974374830722809,0.0039927163161337376,0.0,0.0023956298828125
18870089832687,0.2190694510936737,-9.873687744140625,0.37828385829925537,0.005589802749454975,0.0018632676219567657,0.003460354171693325
18870091069762,0.2597709000110626,-9.847352027893066,0.35075056552886963,0.0066545275039970875,-0.0002661811013240367,-0.0026618109550327063
18870092306875,0.23343466222286224,-9.877279281616211,0.38905778527259827,0.0042588976211845875,0.003460354171693325,-0.0010647244052961469
18870093543950,0.2322375625371933,-9.865307807922363,0.35673606395721436,0.0037265352439135313,0.0013309054775163531,0.005057440605014563
18870094781050,0.2454056739807129,-9.86650562286377,0.3124433159828186,0.0042588976211845875,0.0021294488105922937,-0.0037265352439135313
18870096018162,0.23582887649536133,-9.861717224121094,0.3519476652145386,0.0037265352439135313,-0.0013309054775163531,0.0007985432748682797
18870097255237,0.2406172752380371,-9.853337287902832,0.34356793761253357,0.0039927163161337376,-0.0010647244052961469,-0.0005323622026480734
18870098492350,0.2190694510936737,-9.84495735168457,0.30885201692581177,0.0031941730994731188,-0.0002661811013240367,-0.0013309054775163531
18870099729437,0.23104046285152435,-9.888052940368652,0.33758243918418884,0.0018632676219567657,0.0015970865497365594,0.0002661811013240367
18870100966525,0.26096799969673157,-9.871294021606445,0.3447650372982025,0.0021294488105922937,0.0015970865497365594,-0.0037265352439135313
18870102203625,0.23343466222286224,-9.876082420349121,0.3603273630142212,0.0026618109550327063,-0.0005323622026480734,-0.0042588976211845875
18870103440725,0.24181437492370605,-9.832986831665039,0.3363853394985199,-0.0021294488105922937,0.0029279920272529125,-0.0015970865497365594
18870104677800,0.23822307586669922,-9.891644477844238,0.37229835987091064,0.0007985432748682797,0.0021294488105922937,-0.0053236219100654125
18870105914912,0.22625206410884857,-9.871294021606445,0.39624038338661194,0.0039927163161337376,0.008783976547420025,-0.008251613937318325
18870107151987,0.2513911724090576,-9.84615421295166,0.3555389642715454,0.0015970865497365594,0.008251613937318325,-0.00984870083630085
18870108389075,0.27653029561042786,-9.837775230407715,0.3411737382411957,-0.0021294488105922937,0.0029279920272529125,-0.0063883461989462376
18870109626187,0.21188685297966003,-9.855731010437012,0.38546648621559143,0.0037265352439135313,0.005057440605014563,-0.00452507846057415
18870110863262,0.24181437492370605,-9.834183692932129,0.365115761756897,-0.0005323622026480734,0.0066545275039970875,-0.0071868896484375
18870112100387,0.2190694510936737,-9.873687744140625,0.33279404044151306,-0.0039927163161337376,0.00692070834338665,-0.0037265352439135313
18870113337450,0.2645592987537384,-9.861717224121094,0.3579331636428833,0.00452507846057415,0.0071868896484375,-0.00452507846057415
18870114574550,0.28371289372444153,-9.862914085388184,0.3387795388698578,0.0042588976211845875,0.00452507846057415,-0.004791259765625
18870115811650,0.24181437492370605,-9.86650562286377,0.3471592366695404,0.0026618109550327063,0.00452507846057415,-0.0023956298828125
18870117048737,0.23942017555236816,-9.888052940368652,0.3076549172401428,0.0013309054775163531,0.0029279920272529125,-0.008251613937318325
18870118285837,0.25019407272338867,-9.838972091674805,0.3519476652145386,0.0,0.007453070487827063,-0.005057440605014563
18870119522925,0.25498247146606445,-9.850942611694336,0.3579331636428833,0.0026618109550327063,0.0066545275039970875,-0.005057440605014563
18870120760012,0.1999158412218094,-9.862914085388184,0.31962594389915466,0.0023956298828125,0.0042588976211845875,-0.007453070487827063
18870121997125,0.19871874153614044,-9.834183692932129,0.37229835987091064,0.0021294488105922937,0.004791259765625,-0.007985432632267475
18870123234225,0.22385786473751068,-9.834183692932129,0.3627215623855591,0.0039927163161337376,0.00452507846057415,-0.00958251953125
18870124471300,0.21308395266532898,-9.841365814208984,0.3363853394985199,0.00452507846057415,0.008517795242369175,-0.006122165359556675
18870125708400,0.2346317619085312,-9.84256362915039,0.35434186458587646,0.0042588976211845875,0.005057440605014563,-0.0077192517928779125
18870126945475,0.23582887649536133,-9.847352027893066,0.3256114423274994,0.00452507846057415,0.0053236219100654125,-0.0037265352439135313
18870128182562,0.2298433631658554,-9.86889934539795,0.33758243918418884,0.0066545275039970875,0.0031941730994731188,-0.003460354171693325
18870129419675,0.25258827209472656,-9.831789016723633,0.3292027413845062,0.0010647244052961469,0.005589802749454975,-0.00958251953125
18870130656750,0.24660277366638184,-9.805453300476074,0.32202014327049255,0.0007985432748682797,0.0090501569211483,-0.0077192517928779125
18870131893875,0.22266076505184174,-9.828198432922363,0.33279404044151306,0.006122165359556675,0.0037265352439135313,-0.010114881210029125
18870133130937,0.1975216418504715,-9.824606895446777,0.3256114423274994,0.006122165359556675,0.008251613937318325,-0.00931633822619915
18870134368062,0.22505496442317963,-9.795876502990723,0.3100491166114807,0.0071868896484375,0.0066545275039970875,-0.006122165359556675
18870135605137,0.23702597618103027,-9.825803756713867,0.36152446269989014,0.004791259765625,0.008251613937318325,-0.00692070834338665
18870136842225,0.2717418968677521,-9.853337287902832,0.3124433159828186,0.005855984054505825,0.010381062515079975,-0.010114881210029125
18870138079325,0.22505496442317963,-9.795876502990723,0.3519476652145386,0.004791259765625,0.01224433071911335,-0.010381062515079975
18870139316412,0.2322375625371933,-9.771934509277344,0.333991140127182,0.0066545275039970875,0.003460354171693325,-0.0037265352439135313
18870140553500,0.25019407272338867,-9.81024169921875,0.35434186458587646,0.0063883461989462376,0.00984870083630085,-0.010114881210029125
18870141790612,0.21308395266532898,-9.836577415466309,0.3842693865299225,0.005855984054505825,0.010381062515079975,-0.010913425125181675
18870143027675,0.23104046285152435,-9.858125686645508,0.3411737382411957,0.005855984054505825,0.010381062515079975,-0.00984870083630085
18870144264800,0.27054479718208313,-9.821015357971191,0.3208230435848236,0.005855984054505825,0.008251613937318325,-0.005855984054505825
18870145501875,0.2513911724090576,-9.830592155456543,0.33039984107017517,0.008251613937318325,0.010913425125181675,-0.0071868896484375
18870146738975,0.2346317619085312,-9.852140426635742,0.33279404044151306,0.00958251953125,0.010114881210029125,-0.013309055007994175
18870147976075,0.27892449498176575,-9.787496566772461,0.3495534360408783,0.0037265352439135313,0.010913425125181675,-0.007985432632267475
18870149213162,0.23104046285152435,-9.823410034179688,0.31364041566848755,0.0053236219100654125,0.010114881210029125,-0.00931633822619915
18870150450250,0.2537853717803955,-9.793481826782227,0.3232172429561615,0.010381062515079975,0.00931633822619915,-0.0119781494140625
18870151687337,0.22864626348018646,-9.782708168029785,0.35673606395721436,0.005057440605014563,0.01410759799182415,-0.0114457868039608
18870152924437,0.1867477297782898,-9.840168952941895,0.32202014327049255,0.01117960549890995,0.012510511092841625,-0.00958251953125
18870154161550,0.2106897532939911,-9.849745750427246,0.3124433159828186,0.010114881210029125,0.010381062515079975,-0.01171196810901165
18870155398625,0.21787235140800476,-9.838972091674805,0.32680854201316833,0.008783976547420025,0.01357523538172245,-0.01117960549890995
18870156635700,0.2992752194404602,-9.828198432922363,0.34835633635520935,0.010381062515079975,0.012510511092841625,-0.012510511092841625
18870157872812,0.25258827209472656,-9.819818496704102,0.3172317147254944,0.005589802749454975,0.01650322787463665,-0.012776692397892475
18870159109912,0.2322375625371933,-9.832986831665039,0.3603273630142212,0.0114457868039608,0.01756795309484005,-0.010114881210029125
18870160347025,0.2513911724090576,-9.831789016723633,0.3363853394985199,0.01410759799182415,0.015438503585755825,-0.0114457868039608
18870161584100,0.25498247146606445,-9.815030097961426,0.33279404044151306,0.01224433071911335,0.0162370465695858,-0.010647243820130825
18870162821187,0.2777273952960968,-9.84615421295166,0.3387795388698578,0.01357523538172245,0.0162370465695858,-0.01171196810901165
18870164058287,0.2454056739807129,-9.848548889160156,0.3208230435848236,0.0119781494140625,0.00931633822619915,-0.012776692397892475
18870165295387,0.23104046285152435,-9.840168952941895,0.3603273630142212,0.01224433071911335,0.01117960549890995,-0.00931633822619915
18870166532462,0.29568392038345337,-9.806650161743164,0.3411737382411957,0.0114457868039608,0.02262539230287075,-0.00931633822619915
18870167769562,0.2932897210121155,-9.831789016723633,0.3208230435848236,0.015438503585755825,0.0157046839594841,-0.00931633822619915
18870169006650,0.2454056739807129,-9.771934509277344,0.2944868206977844,0.0167694091796875,0.01410759799182415,-0.00984870083630085
18870170243750,0.25498247146606445,-9.840168952941895,0.3064578175544739,0.01650322787463665,0.01756795309484005,-0.01224433071911335
18870171480850,0.27653029561042786,-9.821015357971191,0.3447650372982025,0.01597086526453495,0.0204959437251091,-0.010647243820130825
18870172717937,0.2669534981250763,-9.80904483795166,0.3411737382411957,0.01703559048473835,0.0196974016726017,-0.013309055007994175
18870173955025,0.27413609623908997,-9.834183692932129,0.36152446269989014,0.0167694091796875,0.01756795309484005,-0.013042873702943325
18870175192125,0.2585738003253937,-9.80904483795166,0.37828385829925537,0.01597086526453495,0.0196974016726017,-0.010647243820130825
18870176429212,0.2717418968677521,-9.78869342803955,0.3016694188117981,0.0162370465695858,0.0162370465695858,-0.01224433071911335
18870177666325,0.24181437492370605,-9.829395294189453,0.33518823981285095,0.0173017717897892,0.01943122036755085,-0.014906140975654125
18870178903412,0.2645592987537384,-9.773131370544434,0.3411737382411957,0.02022976242005825,0.0181003138422966,-0.0157046839594841
18870180140512,0.25737667083740234,-9.807847023010254,0.3423708379268646,0.0157046839594841,0.0173017717897892,-0.015438503585755825
18870181377587,0.2106897532939911,-9.803058624267578,0.3423708379268646,0.0138414166867733,0.0215606689453125,-0.0162370465695858
18870182614687,0.20350714027881622,-9.81024169921875,0.3148375153541565,0.02022976242005825,0.02129448764026165,-0.0114457868039608
18870183851787,0.24660277366638184,-9.829395294189453,0.3663128614425659,0.0247548408806324,0.0186326764523983,-0.00984870083630085
18870185088887,0.272938996553421,-9.81143856048584,0.3627215623855591,0.02182685025036335,0.01889885775744915,-0.014373779296875
18870186325962,0.2717418968677521,-9.791088104248047,0.365115761756897,0.0162370465695858,0.0220930315554142,-0.0191650390625
18870187563062,0.2717418968677521,-9.799468040466309,0.38067808747291565,0.0196974016726017,0.02182685025036335,-0.01943122036755085
18870188800150,0.29807811975479126,-9.805453300476074,0.3818751871585846,0.02182685025036335,0.02076212503015995,-0.01650322787463665
18870190037250,0.2825157940387726,-9.816226959228516,0.363918662071228,0.0276828333735466,0.01756795309484005,-0.01756795309484005
18870191274337,0.2861070930957794,-9.817423820495605,0.3519476652145386,0.01836649514734745,0.01783413253724575,-0.01756795309484005
18870192511437,0.2669534981250763,-9.836577415466309,0.35913026332855225,0.0196974016726017,0.0204959437251091,-0.012776692397892475
18870193748537,0.25498247146606445,-9.817423820495605,0.34356793761253357,0.02022976242005825,0.0210283063352108,-0.01597086526453495
18870194985625,0.2968810200691223,-9.889249801635742,0.365115761756897,0.0228915736079216,0.01889885775744915,-0.013309055007994175
18870196222725,0.28371289372444153,-9.84256362915039,0.3519476652145386,0.015438503585755825,0.0215606689453125,-0.01943122036755085
18870197459812,0.24660277366638184,-9.852140426635742,0.3148375153541565,0.0252872034907341,0.01650322787463665,-0.01996358297765255
18870198696887,0.272938996553421,-9.800664901733398,0.29568392038345337,0.02315775491297245,0.01650322787463665,-0.01650322787463665
18870199934000,0.2861070930957794,-9.831789016723633,0.36152446269989014,0.0220930315554142,0.01889885775744915,-0.012776692397892475
18870201171100,0.2585738003253937,-9.841365814208984,0.3866635859012604,0.02422248013317585,0.02369011752307415,-0.013309055007994175
18870202408162,0.25737667083740234,-9.853337287902832,0.35434186458587646,0.0223592109978199,0.0271504707634449,-0.01703559048473835
18870203645262,0.2597709000110626,-9.795876502990723,0.32441434264183044,0.02422248013317585,0.02315775491297245,-0.01703559048473835
18870204882362,0.3076549172401428,-9.848548889160156,0.3495534360408783,0.0247548408806324,0.01996358297765255,-0.014906140975654125
18870206119462,0.2753331959247589,-9.81024169921875,0.3579331636428833,0.0234239362180233,0.01889885775744915,-0.01171196810901165
18870207356537,0.27892449498176575,-9.831789016723633,0.33518823981285095,0.0252872034907341,0.01889885775744915,-0.008517795242369175
18870208593650,0.2645592987537384,-9.806650161743164,0.31124621629714966,0.0258195661008358,0.02076212503015995,-0.01410759799182415
18870209830750,0.2825157940387726,-9.816226959228516,0.37469255924224854,0.0244886614382267,0.0244886614382267,-0.0162370465695858
18870211067837,0.27892449498176575,-9.801861763000488,0.34596213698387146,0.02422248013317585,0.0220930315554142,-0.012776692397892475
18870212304937,0.2693476974964142,-9.818621635437012,0.36990416049957275,0.02502102218568325,0.02182685025036335,-0.0138414166867733
18870213542025,0.2885012924671173,-9.836577415466309,0.3411737382411957,0.0258195661008358,0.0196974016726017,-0.01410759799182415
18870214779100,0.31364041566848755,-9.828198432922363,0.27892449498176575,0.02901373989880085,0.0173017717897892,-0.01171196810901165
18870216016237,0.2801215946674347,-9.829395294189453,0.365115761756897,0.0300784632563591,0.015172322280704975,-0.008517795242369175
18870217253300,0.28730419278144836,-9.834183692932129,0.3663128614425659,0.02502102218568325,0.01703559048473835,-0.0157046839594841
18870218490400,0.3148375153541565,-9.805453300476074,0.3663128614425659,0.0276828333735466,0.02315775491297245,-0.01889885775744915
18870219727512,0.30526071786880493,-9.822212219238281,0.37828385829925537,0.03034464456140995,0.02422248013317585,-0.01836649514734745
18870220964600,0.2968810200691223,-9.794679641723633,0.3280056416988373,0.0295461006462574,0.02022976242005825,-0.01117960549890995
18870222201675,0.333991140127182,-9.831789016723633,0.3627215623855591,0.0263519287109375,0.02182685025036335,-0.015438503585755825
18870223438775,0.31603461503982544,-9.832986831665039,0.3447650372982025,0.0314093679189682,0.02182685025036335,-0.0234239362180233
18870224675862,0.3280056416988373,-9.859322547912598,0.365115761756897,0.02874755859375,0.0234239362180233,-0.0186326764523983
18870225912950,0.3232172429561615,-9.832986831665039,0.365115761756897,0.0282151959836483,0.02422248013317585,-0.01889885775744915
18870227150050,0.28730419278144836,-9.813833236694336,0.3447650372982025,0.02369011752307415,0.02369011752307415,-0.01756795309484005
18870228387137,0.2753331959247589,-9.855731010437012,0.34596213698387146,0.02369011752307415,0.0252872034907341,-0.0196974016726017
18870229624250,0.28131869435310364,-9.81024169921875,0.3555389642715454,0.0324740931391716,0.02741665206849575,-0.01463996060192585
18870230861337,0.30286651849746704,-9.813833236694336,0.3842693865299225,0.0330064557492733,0.02502102218568325,-0.01410759799182415
18870232098425,0.30885201692581177,-9.837775230407715,0.37229835987091064,0.02502102218568325,0.02076212503015995,-0.0173017717897892
18870233335537,0.31603461503982544,-9.84256362915039,0.40701428055763245,0.02901373989880085,0.0247548408806324,-0.01889885775744915
18870234572612,0.3280056416988373,-9.852140426635742,0.395043283700943,0.0351359061896801,0.0210283063352108,-0.0196974016726017
18870235809725,0.30286651849746704,-9.825803756713867,0.3734954595565796,0.0322079136967659,0.01889885775744915,-0.0191650390625
18870237046812,0.3579331636428833,-9.828198432922363,0.3411737382411957,0.0322079136967659,0.0162370465695858,-0.01357523538172245
18870238283912,0.3172317147254944,-9.807847023010254,0.3292027413845062,0.0356682650744915,0.0196974016726017,-0.012510511092841625
18870239520987,0.35673606395721436,-9.829395294189453,0.4034229815006256,0.03087700717151165,0.02608574740588665,-0.0162370465695858
18870240758075,0.2932897210121155,-9.873687744140625,0.3711012601852417,0.033272635191679,0.02129448764026165,-0.014373779296875
18870241995175,0.3100491166114807,-9.850942611694336,0.3687070608139038,0.0292799212038517,0.02262539230287075,-0.01410759799182415
18870243232275,0.3208230435848236,-9.837775230407715,0.363918662071228,0.0327402763068676,0.0173017717897892,-0.01463996060192585
18870244469362,0.3208230435848236,-9.876082420349121,0.3711012601852417,0.0340711809694767,0.01996358297765255,-0.0196974016726017
18870245706450,0.3016694188117981,-9.817423820495605,0.37469255924224854,0.0319417305290699,0.02182685025036335,-0.0204959437251091
18870246943550,0.3387795388698578,-9.84376049041748,0.4225766062736511,0.0346035435795784,0.0191650390625,-0.01463996060192585
18870248180637,0.34356793761253357,-9.803058624267578,0.363918662071228,0.0338049978017807,0.0210283063352108,-0.01171196810901165
18870249417737,0.304063618183136,-9.858125686645508,0.38067808747291565,0.02901373989880085,0.02182685025036335,-0.013309055007994175
18870250654837,0.2885012924671173,-9.835380554199219,0.3663128614425659,0.0282151959836483,0.02129448764026165,-0.014373779296875
18870251891937,0.31124621629714966,-9.81143856048584,0.4082113802433014,0.0354020856320858,0.02182685025036335,-0.0138414166867733
18870253129012,0.29807811975479126,-9.836577415466309,0.3387795388698578,0.0351359061896801,0.02129448764026165,-0.012510511092841625
18870254366125,0.3495534360408783,-9.873687744140625,0.4082113802433014,0.0316755510866642,0.0247548408806324,-0.0138414166867733
18870255603225,0.3124433159828186,-9.830592155456543,0.3579331636428833,0.0391286201775074,0.0215606689453125,-0.01410759799182415
18870256840300,0.2944868206977844,-9.824606895446777,0.3794809579849243,0.0351359061896801,0.02022976242005825,-0.01597086526453495
18870258077387,0.3292027413845062,-9.822212219238281,0.4010287821292877,0.0300784632563591,0.0181003138422966,-0.01996358297765255
18870259314475,0.33039984107017517,-9.816226959228516,0.39624038338661194,0.0314093679189682,0.0223592109978199,-0.015172322280704975
18870260551562,0.34596213698387146,-9.832986831665039,0.39145198464393616,0.0338049978017807,0.02129448764026165,-0.013309055007994175
18870261788675,0.35913026332855225,-9.831789016723633,0.3842693865299225,0.0340711809694767,0.0191650390625,-0.014373779296875
18870263025762,0.31124621629714966,-9.836577415466309,0.41060560941696167,0.0316755510866642,0.01703559048473835,-0.012776692397892475
18870264262862,0.3232172429561615,-9.849745750427246,0.39145198464393616,0.0292799212038517,0.01756795309484005,-0.0162370465695858
18870265499937,0.3280056416988373,-9.854534149169922,0.4058171808719635,0.0359344482421875,0.0167694091796875,-0.013042873702943325
18870266737037,0.33279404044151306,-9.835380554199219,0.36990416049957275,0.0356682650744915,0.02262539230287075,-0.0138414166867733
18870267974137,0.36990416049957275,-9.850942611694336,0.395043283700943,0.0300784632563591,0.01996358297765255,-0.013309055007994175
18870269211237,0.3519476652145386,-9.84376049041748,0.37469255924224854,0.0292799212038517,0.0220930315554142,-0.01943122036755085
18870270448325,0.33758243918418884,-9.824606895446777,0.39624038338661194,0.0348697230219841,0.0220930315554142,-0.014373779296875
18870271685425,0.3603273630142212,-9.837775230407715,0.39863458275794983,0.0364668108522892,0.0204959437251091,-0.01171196810901165
18870272922512,0.3076549172401428,-9.862914085388184,0.39145198464393616,0.0391286201775074,0.02741665206849575,-0.0167694091796875
18870274159587,0.29209262132644653,-9.84376049041748,0.3998316824436188,0.0319417305290699,0.0220930315554142,-0.015438503585755825
18870275396700,0.31364041566848755,-9.864110946655273,0.41299980878829956,0.0351359061896801,0.0181003138422966,-0.013309055007994175
18870276633787,0.30047231912612915,-9.84376049041748,0.3878606855869293,0.0401933453977108,0.01889885775744915,-0.008783976547420025
18870277870875,0.33518823981285095,-9.838972091674805,0.4010287821292877,0.0393948033452034,0.0173017717897892,-0.0063883461989462376
18870279107962,0.2908955216407776,-9.832986831665039,0.3818751871585846,0.0369991734623909,0.0196974016726017,-0.013042873702943325
18870280345075,0.3387795388698578,-9.819818496704102,0.42856210470199585,0.0359344482421875,0.0244886614382267,-0.015438503585755825
18870281582175,0.3280056416988373,-9.84256362915039,0.4273650050163269,0.0385962575674057,0.01889885775744915,-0.01943122036755085
18870282819250,0.31962594389915466,-9.825803756713867,0.42377370595932007,0.0375315360724926,0.01996358297765255,-0.01650322787463665
18870284056362,0.3280056416988373,-9.84256362915039,0.395043283700943,0.0348697230219841,0.0215606689453125,-0.01463996060192585
18870285293450,0.31962594389915466,-9.86770248413086,0.3734954595565796,0.0354020856320858,0.0181003138422966,-0.0090501569211483
18870286530550,0.33997663855552673,-9.848548889160156,0.4118027091026306,0.0372653529047966,0.02076212503015995,-0.010114881210029125
18870287767637,0.3100491166114807,-9.835380554199219,0.4213795065879822,0.0356682650744915,0.01783413253724575,-0.013309055007994175
18870289004737,0.29807811975479126,-9.853337287902832,0.41539400815963745,0.0343373604118824,0.0173017717897892,-0.015172322280704975
18870290241800,0.33518823981285095,-9.855731010437012,0.3734954595565796,0.0351359061896801,0.02182685025036335,-0.012510511092841625
18870291478912,0.31603461503982544,-9.822212219238281,0.41778820753097534,0.0338049978017807,0.01597086526453495,-0.013309055007994175
18870292716012,0.3447650372982025,-9.841365814208984,0.38546648621559143,0.0314093679189682,0.0162370465695858,-0.0173017717897892
18870293953100,0.31124621629714966,-9.860519409179688,0.40701428055763245,0.0316755510866642,0.01783413253724575,-0.01410759799182415
18870295190200,0.3603273630142212,-9.819818496704102,0.42616790533065796,0.0348697230219841,0.0191650390625,-0.01357523538172245
18870296427287,0.2992752194404602,-9.832986831665039,0.40462008118629456,0.0338049978017807,0.01996358297765255,-0.01650322787463665
18870297664375,0.30526071786880493,-9.849745750427246,0.4141969084739685,0.0359344482421875,0.0191650390625,-0.01171196810901165
18870298901475,0.31603461503982544,-9.874884605407715,0.38067808747291565,0.0364668108522892,0.01756795309484005,-0.01171196810901165
18870300138575,0.333991140127182,-9.835380554199219,0.3627215623855591,0.038063894957304,0.01889885775744915,-0.012776692397892475
18870301375675,0.3531447649002075,-9.906009674072266,0.39624038338661194,0.0385962575674057,0.01597086526453495,-0.01597086526453495
18870302612750,0.3603273630142212,-9.853337287902832,0.3770867586135864,0.0364668108522892,0.015172322280704975,-0.014906140975654125
18870303849837,0.34356793761253357,-9.849745750427246,0.4010287821292877,0.0354020856320858,0.01996358297765255,-0.01410759799182415
18870305086937,0.34596213698387146,-9.847352027893066,0.4225766062736511,0.038063894957304,0.01836649514734745,-0.012510511092841625
18870306324037,0.3232172429561615,-9.871294021606445,0.3974374830722809,0.038330078125,0.01836649514734745,-0.01171196810901165
18870307561137,0.2932897210121155,-9.873687744140625,0.37828385829925537,0.0375315360724926,0.0138414166867733,-0.013309055007994175
18870308798225,0.3016694188117981,-9.84615421295166,0.3758896589279175,0.0359344482421875,0.01117960549890995,-0.00958251953125
18870310035312,0.33279404044151306,-9.827000617980957,0.3998316824436188,0.0354020856320858,0.012776692397892475,-0.0114457868039608
18870311272387,0.3280056416988373,-9.886856079101562,0.39863458275794983,0.0401933453977108,0.0181003138422966,-0.01357523538172245
18870312509500,0.2992752194404602,-9.860519409179688,0.4297592043876648,0.0412580706179142,0.01943122036755085,-0.008251613937318325
18870313746600,0.33279404044151306,-9.865307807922363,0.38905778527259827,0.0354020856320858,0.0204959437251091,-0.0077192517928779125
18870314983687,0.3292027413845062,-9.877279281616211,0.4141969084739685,0.0319417305290699,0.02022976242005825,-0.01117960549890995
18870316220800,0.34596213698387146,-9.874884605407715,0.44532153010368347,0.0354020856320858,0.0196974016726017,-0.01357523538172245
18870317457887,0.2849099934101105,-9.884461402893066,0.3926490843296051,0.0377977155148983,0.01783413253724575,-0.008251613937318325
18870318694975,0.3280056416988373,-9.90361499786377,0.3842693865299225,0.0407257080078125,0.0167694091796875,-0.010114881210029125
18870319932062,0.3076549172401428,-9.86770248413086,0.4381389021873474,0.0348697230219841,0.01357523538172245,-0.0071868896484375
18870321169150,0.32680854201316833,-9.890447616577148,0.3926490843296051,0.0369991734623909,0.01836649514734745,-0.01357523538172245
18870322406250,0.3423708379268646,-9.862914085388184,0.43335050344467163,0.0369991734623909,0.014906140975654125,-0.0119781494140625
18870323643350,0.3519476652145386,-9.885659217834473,0.4189853072166443,0.0356682650744915,0.01171196810901165,-0.010913425125181675
18870324880437,0.3471592366695404,-9.86770248413086,0.4165911078453064,0.0367329902946949,0.01463996060192585,-0.00984870083630085
18870326117525,0.3519476652145386,-9.873687744140625,0.4321534037590027,0.0423227921128273,0.01463996060192585,-0.007985432632267475
18870327354625,0.3256114423274994,-9.882067680358887,0.4357447028160095,0.0417904332280159,0.01410759799182415,-0.00984870083630085
18870328591725,0.31842881441116333,-9.8784761428833,0.44173023104667664,0.0348697230219841,0.01463996060192585,-0.010647243820130825
18870329828800,0.33997663855552673,-9.861717224121094,0.4297592043876648,0.038330078125,0.013042873702943325,-0.0090501569211483
18870331065912,0.32202014327049255,-9.87967300415039,0.43933600187301636,0.0391286201775074,0.01463996060192585,-0.0138414166867733
18870332302987,0.35673606395721436,-9.836577415466309,0.45250412821769714,0.0401933453977108,0.0157046839594841,-0.0114457868039608
18870333540100,0.3447650372982025,-9.886856079101562,0.45250412821769714,0.0346035435795784,0.01756795309484005,-0.0114457868039608
18870334777162,0.33279404044151306,-9.853337287902832,0.40701428055763245,0.0327402763068676,0.01597086526453495,-0.0026618109550327063
18870336014275,0.32202014327049255,-9.861717224121094,0.4189853072166443,0.0346035435795784,0.0204959437251091,-0.00984870083630085
18870337251375,0.3447650372982025,-9.837775230407715,0.4034229815006256,0.0367329902946949,0.02129448764026165,-0.0090501569211483
18870338488462,0.33039984107017517,-9.865307807922363,0.4776432514190674,0.0343373604118824,0.01650322787463665,-0.008783976547420025
18870339725562,0.33039984107017517,-9.870096206665039,0.3770867586135864,0.0369991734623909,0.01836649514734745,-0.012776692397892475
18870340962637,0.3447650372982025,-9.876082420349121,0.42018240690231323,0.033272635191679,0.0162370465695858,-0.0114457868039608
18870342199750,0.3363853394985199,-9.87967300415039,0.43335050344467163,0.0316755510866642,0.01703559048473835,-0.00984870083630085
18870343436837,0.34356793761253357,-9.84615421295166,0.424970805644989,0.0351359061896801,0.013042873702943325,-0.012510511092841625
18870344673937,0.31364041566848755,-9.856928825378418,0.3998316824436188,0.0377977155148983,0.01463996060192585,-0.0090501569211483
18870345911037,0.2849099934101105,-9.891644477844238,0.4010287821292877,0.0412580706179142,0.0181003138422966,-0.0090501569211483
18870347148100,0.2908955216407776,-9.884461402893066,0.4213795065879822,0.0364668108522892,0.0157046839594841,-0.0071868896484375
18870348385212,0.34835633635520935,-9.931148529052734,0.456095427274704,0.0292799212038517,0.0162370465695858,-0.003460354171693325
18870349622300,0.35913026332855225,-9.892841339111328,0.44173023104667664,0.0316755510866642,0.0204959437251091,-0.007453070487827063
18870350859400,0.3100491166114807,-9.888052940368652,0.4165911078453064,0.0330064557492733,0.0162370465695858,-0.012776692397892475
18870352096500,0.31364041566848755,-9.885659217834473,0.43694180250167847,0.02901373989880085,0.0173017717897892,-0.0114457868039608
18870353333600,0.31842881441116333,-9.896432876586914,0.41539400815963745,0.0322079136967659,0.01783413253724575,-0.008251613937318325
18870354570675,0.33279404044151306,-9.894038200378418,0.4441244304180145,0.033272635191679,0.014373779296875,-0.0077192517928779125
18870355807775,0.3315969407558441,-9.883264541625977,0.4489128291606903,0.033538818359375,0.014373779296875,-0.012776692397892475
18870357044875,0.2717418968677521,-9.852140426635742,0.42018240690231323,0.03087700717151165,0.012510511092841625,-0.0138414166867733
18870358281950,0.32680854201316833,-9.838972091674805,0.4273650050163269,0.02555338479578495,0.0138414166867733,-0.014906140975654125
18870359519050,0.3100491166114807,-9.871294021606445,0.3794809579849243,0.0346035435795784,0.01410759799182415,-0.01463996060192585
18870360756150,0.2992752194404602,-9.870096206665039,0.4165911078453064,0.0354020856320858,0.015172322280704975,-0.013309055007994175
18870361993237,0.3292027413845062,-9.874884605407715,0.4189853072166443,0.0316755510866642,0.01597086526453495,-0.010913425125181675
18870363230350,0.31962594389915466,-9.897629737854004,0.41299980878829956,0.0322079136967659,0.013309055007994175,-0.006122165359556675
18870364467437,0.3232172429561615,-9.8784761428833,0.4381389021873474,0.03087700717151165,0.0157046839594841,-0.012510511092841625
18870365704512,0.333991140127182,-9.873687744140625,0.44532153010368347,0.0314093679189682,0.0196974016726017,-0.0119781494140625
18870366941612,0.304063618183136,-9.84615421295166,0.4381389021873474,0.0343373604118824,0.013309055007994175,-0.0114457868039608
18870368178700,0.34596213698387146,-9.906009674072266,0.4429273307323456,0.02981228195130825,0.015172322280704975,-0.010913425125181675
18870369415800,0.30885201692581177,-9.894038200378418,0.4441244304180145,0.0300784632563591,0.02076212503015995,-0.005855984054505825
18870370652912,0.3280056416988373,-9.909601211547852,0.4596867263317108,0.0346035435795784,0.0196974016726017,-0.0063883461989462376
18870371889987,0.2932897210121155,-9.890447616577148,0.4381389021873474,0.0292799212038517,0.014906140975654125,-0.010381062515079975
18870373127075,0.31124621629714966,-9.932345390319824,0.4704606235027313,0.03087700717151165,0.015438503585755825,-0.008783976547420025
18870374364175,0.31603461503982544,-9.904812812805176,0.4620809257030487,0.02901373989880085,0.01463996060192585,-0.0071868896484375
18870375601275,0.32202014327049255,-9.910798072814941,0.4489128291606903,0.02741665206849575,0.013309055007994175,-0.0071868896484375
18870376838375,0.33279404044151306,-9.923966407775879,0.42018240690231323,0.02874755859375,0.01943122036755085,-0.004791259765625
18870378075450,0.3172317147254944,-9.932345390319824,0.4082113802433014,0.03087700717151165,0.0210283063352108,-0.0039927163161337376
18870379312550,0.3064578175544739,-9.919178009033203,0.46806642413139343,0.0316755510866642,0.01650322787463665,-0.005855984054505825
18870380549650,0.3124433159828186,-9.906009674072266,0.42377370595932007,0.0306108258664608,0.0114457868039608,-0.0037265352439135313
18870381786737,0.2992752194404602,-9.885659217834473,0.4321534037590027,0.02555338479578495,0.01783413253724575,-0.005855984054505825
18870383023850,0.304063618183136,-9.885659217834473,0.4752490520477295,0.0282151959836483,0.0162370465695858,-0.0007985432748682797
18870384260912,0.30286651849746704,-9.916783332824707,0.42856210470199585,0.02794901467859745,0.014906140975654125,-0.0021294488105922937
18870385498037,0.32680854201316833,-9.888052940368652,0.4381389021873474,0.0306108258664608,0.01703559048473835,-0.0053236219100654125
18870386735112,0.3495534360408783,-9.873687744140625,0.4800374507904053,0.0247548408806324,0.0157046839594841,-0.0042588976211845875
18870387972212,0.3256114423274994,-9.874884605407715,0.44532153010368347,0.0268842913210392,0.01703559048473835,-0.005589802749454975
18870389209312,0.304063618183136,-9.940725326538086,0.4429273307323456,0.02981228195130825,0.0138414166867733,-0.0066545275039970875
18870390446387,0.333991140127182,-9.90122127532959,0.41299980878829956,0.02369011752307415,0.02182685025036335,-0.007985432632267475
18870391683500,0.2992752194404602,-9.877279281616211,0.4441244304180145,0.02555338479578495,0.01889885775744915,0.0010647244052961469
18870392920587,0.29568392038345337,-9.898826599121094,0.43933600187301636,0.02369011752307415,0.01783413253724575,0.0010647244052961469
18870394157687,0.31962594389915466,-9.894038200378418,0.44771572947502136,0.02555338479578495,0.0191650390625,-0.0005323622026480734
18870395394762,0.35075056552886963,-9.877279281616211,0.4513070285320282,0.0258195661008358,0.01650322787463665,-0.0007985432748682797
18870396631875,0.3064578175544739,-9.889249801635742,0.4728548526763916,0.02502102218568325,0.0167694091796875,0.0
18870397868950,0.36152446269989014,-9.894038200378418,0.44771572947502136,0.02262539230287075,0.0204959437251091,0.0013309054775163531
18870399106050,0.3232172429561615,-9.87967300415039,0.4668693244457245,0.0210283063352108,0.02262539230287075,-0.0023956298828125
18870400343150,0.2849099934101105,-9.883264541625977,0.4572925269603729,0.015172322280704975,0.0186326764523983,-0.0042588976211845875
18870401580237,0.3280056416988373,-9.882067680358887,0.4836287498474121,0.01703559048473835,0.02262539230287075,0.0010647244052961469
18870402817337,0.3471592366695404,-9.93593692779541,0.41060560941696167,0.0204959437251091,0.0204959437251091,0.0018632676219567657
18870404054412,0.32202014327049255,-9.922768592834473,0.39863458275794983,0.02182685025036335,0.01836649514734745,0.0031941730994731188
18870405291525,0.3232172429561615,-9.9000244140625,0.44771572947502136,0.0204959437251091,0.0162370465695858,0.00452507846057415
18870406528600,0.3363853394985199,-9.951498985290527,0.4752490520477295,0.01597086526453495,0.01117960549890995,0.00984870083630085
18870407765712,0.33039984107017517,-9.896432876586914,0.4441244304180145,0.01836649514734745,0.0210283063352108,0.005855984054505825
18870409002812,0.31603461503982544,-9.892841339111328,0.46567222476005554,0.02022976242005825,0.0210283063352108,0.0042588976211845875
18870410239900,0.365115761756897,-9.873687744140625,0.4357447028160095,0.01783413253724575,0.0204959437251091,0.004791259765625
18870411476987,0.2861070930957794,-9.90122127532959,0.4118027091026306,0.01996358297765255,0.01889885775744915,0.00958251953125
18870412714100,0.3280056416988373,-9.888052940368652,0.4429273307323456,0.02076212503015995,0.02022976242005825,0.0090501569211483
18870413951187,0.3148375153541565,-9.906009674072266,0.4668693244457245,0.01943122036755085,0.0173017717897892,0.007985432632267475
18870415188275,0.35075056552886963,-9.9000244140625,0.4752490520477295,0.0181003138422966,0.02608574740588665,0.010381062515079975
18870416425375,0.3100491166114807,-9.897629737854004,0.48243165016174316,0.012510511092841625,0.0210283063352108,0.0063883461989462376
18870417662450,0.3387795388698578,-9.890447616577148,0.47165775299072266,0.013042873702943325,0.02262539230287075,0.008517795242369175
18870418899562,0.3663128614425659,-9.917980194091797,0.4728548526763916,0.014373779296875,0.02129448764026165,0.010381062515079975
18870420136650,0.3603273630142212,-9.898826599121094,0.39863458275794983,0.01703559048473835,0.01703559048473835,0.008783976547420025
18870421373750,0.33518823981285095,-9.915586471557617,0.44173023104667664,0.01357523538172245,0.0191650390625,0.00931633822619915
18870422610850,0.31124621629714966,-9.9000244140625,0.42018240690231323,0.014373779296875,0.02555338479578495,0.008251613937318325
18870423847937,0.3256114423274994,-9.871294021606445,0.4596867263317108,0.00931633822619915,0.02661811001598835,0.010114881210029125
18870425085025,0.2944868206977844,-9.880870819091797,0.4704606235027313,0.01463996060192585,0.02262539230287075,0.010381062515079975
18870426322112,0.3363853394985199,-9.873687744140625,0.4321534037590027,0.01410759799182415,0.02022976242005825,0.010647243820130825
18870427559225,0.3423708379268646,-9.888052940368652,0.4465186297893524,0.010913425125181675,0.0191650390625,0.0066545275039970875
18870428796300,0.32680854201316833,-9.90361499786377,0.4405331015586853,0.0138414166867733,0.0220930315554142,0.0063883461989462376
18870430033400,0.3208230435848236,-9.896432876586914,0.45489832758903503,0.0157046839594841,0.0162370465695858,0.0114457868039608
18870431270500,0.3100491166114807,-9.896432876586914,0.45250412821769714,0.008783976547420025,0.0234239362180233,0.01410759799182415
18870432507587,0.3124433159828186,-9.894038200378418,0.47644615173339844,0.007985432632267475,0.02555338479578495,0.01597086526453495
18870433744675,0.3232172429561615,-9.911994934082031,0.46327802538871765,0.0053236219100654125,0.02022976242005825,0.01463996060192585
