timestamp_ns,accel_x,accel_y,accel_z,gyro_x,gyro_y,gyro_z
2008322749075,0.8535329103469849,-9.783905029296875,0.7553706169128418,0.00931633822619915,0.01224433071911335,-0.01357523538172245
2008323986462,0.8990227580070496,-9.7791166305542,0.767341673374176,0.0071868896484375,0.012510511092841625,-0.01597086526453495
2008325223825,0.888248860836029,-9.792284965515137,0.7230489253997803,0.00692070834338665,0.01943122036755085,-0.01224433071911335
2008326461225,0.912190854549408,-9.787496566772461,0.7206547260284424,0.004791259765625,0.0167694091796875,-0.0138414166867733
2008327698550,0.8595184087753296,-9.804256439208984,0.7469909191131592,0.008251613937318325,0.01224433071911335,-0.01410759799182415
2008328935925,0.8762778043746948,-9.840168952941895,0.727837324142456,0.0071868896484375,0.01836649514734745,-0.01117960549890995
2008330173312,0.9014169573783875,-9.84615421295166,0.7637503743171692,0.007453070487827063,0.01703559048473835,-0.01117960549890995
2008331410675,0.9157821536064148,-9.799468040466309,0.7362170219421387,0.0090501569211483,0.0138414166867733,-0.01357523538172245
2008332648037,0.8978256583213806,-9.828198432922363,0.751779317855835,0.0071868896484375,0.01597086526453495,-0.0114457868039608
2008333885412,0.9074024558067322,-9.785102844238281,0.7422025203704834,0.00692070834338665,0.0162370465695858,-0.01756795309484005
2008335122775,0.888248860836029,-9.834183692932129,0.8355764150619507,0.01117960549890995,0.01996358297765255,-0.014373779296875
2008336360162,0.8834604620933533,-9.807847023010254,0.7577648162841797,0.00958251953125,0.01783413253724575,-0.010381062515079975
2008337597525,0.8762778043746948,-9.780314445495605,0.7960720658302307,0.012776692397892475,0.02129448764026165,-0.0157046839594841
2008338834887,0.8978256583213806,-9.793481826782227,0.7529764175415039,0.0119781494140625,0.0191650390625,-0.00958251953125
2008340072250,0.8822633624076843,-9.817423820495605,0.7912836670875549,0.013042873702943325,0.013309055007994175,-0.0066545275039970875
2008341309625,0.8834604620933533,-9.815030097961426,0.767341673374176,0.01171196810901165,0.0157046839594841,-0.0114457868039608
2008342547012,0.9050082564353943,-9.785102844238281,0.8056488633155823,0.0119781494140625,0.01783413253724575,-0.012776692397892475
2008343784362,0.9062053561210632,-9.819818496704102,0.7805097699165344,0.0114457868039608,0.0119781494140625,-0.01117960549890995
2008345021750,0.9062053561210632,-9.815030097961426,0.7793126702308655,0.010114881210029125,0.013309055007994175,-0.010647243820130825
2008346259100,0.8966285586357117,-9.780314445495605,0.7433996200561523,0.010381062515079975,0.01117960549890995,-0.010647243820130825
2008347496475,0.8786720037460327,-9.764751434326172,0.7721300721168518,0.014906140975654125,0.0119781494140625,-0.0063883461989462376
2008348733837,0.9050082564353943,-9.783905029296875,0.7733271718025208,0.012776692397892475,0.010381062515079975,-0.010114881210029125
2008349971212,0.8954314589500427,-9.800664901733398,0.8044517636299133,0.0114457868039608,0.013042873702943325,-0.01357523538172245
2008351208575,0.9217676520347595,-9.792284965515137,0.7805097699165344,0.01410759799182415,0.01650322787463665,-0.010381062515079975
2008352445950,0.9169792532920837,-9.783905029296875,0.7529764175415039,0.01943122036755085,0.0119781494140625,-0.00984870083630085
2008353683325,0.8930372595787048,-9.818621635437012,0.7386112213134766,0.0138414166867733,0.014906140975654125,-0.008251613937318325
2008354920700,0.93254154920578,-9.798270225524902,0.7613561749458313,0.010381062515079975,0.012776692397892475,-0.00958251953125
2008356158050,0.9097966551780701,-9.77791976928711,0.7410054206848145,0.0138414166867733,0.008251613937318325,-0.0071868896484375
2008357395425,0.9181763529777527,-9.819818496704102,0.7182605266571045,0.01783413253724575,0.00692070834338665,-0.0042588976211845875
2008358632800,0.9253589510917664,-9.791088104248047,0.7362170219421387,0.012510511092841625,0.01463996060192585,-0.010114881210029125
2008359870150,0.9074024558067322,-9.797073364257812,0.767341673374176,0.012776692397892475,0.004791259765625,-0.010647243820130825
2008361107537,0.9265560507774353,-9.80904483795166,0.7852981686592102,0.0186326764523983,0.007453070487827063,-0.008517795242369175
2008362344912,0.93254154920578,-9.84256362915039,0.7793126702308655,0.01597086526453495,0.006122165359556675,-0.005057440605014563
2008363582275,0.9205705523490906,-9.799468040466309,0.7852981686592102,0.013042873702943325,0.01117960549890995,-0.00958251953125
2008364819650,0.93254154920578,-9.77552604675293,0.7589619159698486,0.010913425125181675,0.010913425125181675,-0.010647243820130825
2008366057012,0.9612720012664795,-9.832986831665039,0.7601590752601624,0.014906140975654125,0.007453070487827063,-0.0029279920272529125
2008367294387,0.9074024558067322,-9.831789016723633,0.7709329724311829,0.01117960549890995,0.007985432632267475,-0.0071868896484375
2008368531750,0.9265560507774353,-9.84495735168457,0.7864952683448792,0.01171196810901165,0.007985432632267475,-0.0071868896484375
2008369769112,0.9313444495201111,-9.880870819091797,0.7625532746315002,0.0215606689453125,0.0018632676219567657,-0.0042588976211845875
2008371006487,0.889445960521698,-9.781511306762695,0.7649474740028381,0.02262539230287075,0.003460354171693325,-0.004791259765625
2008372243862,0.9050082564353943,-9.831789016723633,0.7481880187988281,0.01889885775744915,0.007985432632267475,-0.0023956298828125
2008373481212,0.9085995554924011,-9.84376049041748,0.7876923680305481,0.01703559048473835,0.007453070487827063,-0.0031941730994731188
2008374718587,0.8822633624076843,-9.829395294189453,0.7781155705451965,0.0204959437251091,0.0026618109550327063,-0.0063883461989462376
2008375955975,0.889445960521698,-9.80904483795166,0.7422025203704834,0.02555338479578495,-0.0031941730994731188,-0.0010647244052961469
2008377193337,0.9229647517204285,-9.824606895446777,0.8020575642585754,0.0196974016726017,0.0037265352439135313,0.0005323622026480734
2008378430687,0.9217676520347595,-9.804256439208984,0.8008604645729065,0.012776692397892475,0.0037265352439135313,-0.0037265352439135313
2008379668062,0.9576807022094727,-9.838972091674805,0.7876923680305481,0.01410759799182415,-0.0010647244052961469,-0.0026618109550327063
2008380905450,0.9193734526634216,-9.829395294189453,0.7745242714881897,0.01357523538172245,0.0018632676219567657,-0.0026618109550327063
2008382142812,0.888248860836029,-9.847352027893066,0.7577648162841797,0.0162370465695858,0.0037265352439135313,-0.0031941730994731188
2008383380175,0.9433155059814453,-9.81143856048584,0.7745242714881897,0.0186326764523983,0.0018632676219567657,-0.0029279920272529125
2008384617537,0.93254154920578,-9.836577415466309,0.7541735172271729,0.0210283063352108,-0.0013309054775163531,-0.0005323622026480734
2008385854925,0.9133879542350769,-9.821015357971191,0.7529764175415039,0.0247548408806324,0.004791259765625,0.0005323622026480734
2008387092300,0.9265560507774353,-9.864110946655273,0.7733271718025208,0.0186326764523983,0.0023956298828125,-0.0018632676219567657
2008388329650,0.8954314589500427,-9.853337287902832,0.8152256608009338,0.0196974016726017,0.0007985432748682797,0.0015970865497365594
2008389567025,0.8930372595787048,-9.848548889160156,0.8104372620582581,0.0173017717897892,-0.0013309054775163531,-0.0002661811013240367
2008390804375,0.9085995554924011,-9.838972091674805,0.8020575642585754,0.0157046839594841,-0.003460354171693325,-0.0037265352439135313
2008392041750,0.8834604620933533,-9.862914085388184,0.8068459630012512,0.0186326764523983,-0.0042588976211845875,-0.0031941730994731188
2008393279137,0.8942343592643738,-9.904812812805176,0.7805097699165344,0.0210283063352108,-0.00692070834338665,0.0005323622026480734
2008394516500,0.8990227580070496,-9.828198432922363,0.7876923680305481,0.01650322787463665,-0.0023956298828125,0.0007985432748682797
2008395753850,0.8750807046890259,-9.859322547912598,0.7182605266571045,0.0186326764523983,-0.00452507846057415,-0.0026618109550327063
2008396991237,0.871489405632019,-9.873687744140625,0.788889467716217,0.0157046839594841,-0.0071868896484375,-0.0037265352439135313
2008398228600,0.8870517611503601,-9.871294021606445,0.7745242714881897,0.012510511092841625,-0.0066545275039970875,0.0
2008399465987,0.8954314589500427,-9.86770248413086,0.7541735172271729,0.015172322280704975,-0.0021294488105922937,0.0
2008400703337,0.8810662031173706,-9.825803756713867,0.7625532746315002,0.0181003138422966,-0.005057440605014563,0.0037265352439135313
2008401940712,0.9433155059814453,-9.84376049041748,0.7745242714881897,0.01836649514734745,-0.0037265352439135313,0.005855984054505825
2008403178087,0.9038111567497253,-9.835380554199219,0.7649474740028381,0.01783413253724575,-0.0026618109550327063,0.0021294488105922937
2008404415450,0.9062053561210632,-9.873687744140625,0.727837324142456,0.0157046839594841,-0.005057440605014563,0.003460354171693325
2008405652825,0.8978256583213806,-9.835380554199219,0.8092401623725891,0.01756795309484005,-0.005057440605014563,-0.0002661811013240367
2008406890187,0.9074024558067322,-9.822212219238281,0.8188169598579407,0.01783413253724575,-0.0005323622026480734,0.0018632676219567657
2008408127575,0.8643068075180054,-9.81263542175293,0.7852981686592102,0.0196974016726017,-0.0071868896484375,0.006122165359556675
2008409364925,0.888248860836029,-9.8784761428833,0.7457938194274902,0.0181003138422966,-0.010114881210029125,0.00452507846057415
2008410602275,0.9133879542350769,-9.854534149169922,0.7864952683448792,0.01410759799182415,-0.0029279920272529125,0.005589802749454975
2008411839675,0.9373299479484558,-9.849745750427246,0.7852981686592102,0.0162370465695858,-0.0039927163161337376,0.0031941730994731188
2008413077037,0.8678981065750122,-9.872490882873535,0.7733271718025208,0.01703559048473835,-0.0037265352439135313,0.0037265352439135313
2008414314400,0.8810662031173706,-9.8784761428833,0.7936778664588928,0.01357523538172245,-0.00692070834338665,0.00452507846057415
2008415551762,0.8942343592643738,-9.840168952941895,0.7721300721168518,0.01410759799182415,-0.005855984054505825,0.005057440605014563
2008416789137,0.9193734526634216,-9.819818496704102,0.7769184708595276,0.01597086526453495,-0.0090501569211483,0.0023956298828125
2008418026512,0.8738836050033569,-9.865307807922363,0.7230489253997803,0.015172322280704975,-0.010913425125181675,0.00692070834338665
2008419263900,0.8918401598930359,-9.889249801635742,0.8403648138046265,0.01117960549890995,-0.0114457868039608,0.005855984054505825
2008420501262,0.8643068075180054,-9.853337287902832,0.7577648162841797,0.010114881210029125,-0.012510511092841625,0.0066545275039970875
2008421738625,0.8690952062606812,-9.824606895446777,0.7601590752601624,0.013042873702943325,-0.00958251953125,0.0039927163161337376
2008422975987,0.8834604620933533,-9.883264541625977,0.8068459630012512,0.013042873702943325,-0.01171196810901165,0.005057440605014563
2008424213362,0.9277531504631042,-9.90361499786377,0.8188169598579407,0.010381062515079975,-0.010114881210029125,0.007453070487827063
2008425450725,0.8990227580070496,-9.855731010437012,0.7805097699165344,0.007453070487827063,-0.0090501569211483,0.008517795242369175
2008426688112,0.8930372595787048,-9.876082420349121,0.7757213711738586,0.0119781494140625,-0.0119781494140625,0.0063883461989462376
2008427925462,0.8702923059463501,-9.880870819091797,0.7709329724311829,0.0138414166867733,-0.01357523538172245,0.005589802749454975
2008429162825,0.8798691034317017,-9.9000244140625,0.7996633648872375,0.01171196810901165,-0.015438503585755825,0.0071868896484375
2008430400200,0.8523358106613159,-9.860519409179688,0.7709329724311829,0.01357523538172245,-0.013309055007994175,0.0066545275039970875
2008431637575,0.8774749040603638,-9.891644477844238,0.767341673374176,0.014906140975654125,-0.0119781494140625,0.0031941730994731188
2008432874937,0.8906430602073669,-9.86770248413086,0.7793126702308655,0.0114457868039608,-0.01224433071911335,0.0066545275039970875
2008434112312,0.8918401598930359,-9.882067680358887,0.788889467716217,0.010114881210029125,-0.012776692397892475,0.006122165359556675
2008435349675,0.8655039072036743,-9.871294021606445,0.7817068696022034,0.0066545275039970875,-0.012510511092841625,0.00452507846057415
2008436587062,0.8631097078323364,-9.894038200378418,0.7733271718025208,0.005855984054505825,-0.015172322280704975,0.005855984054505825
2008437824437,0.811634361743927,-9.870096206665039,0.7625532746315002,0.01224433071911335,-0.00984870083630085,0.0039927163161337376
2008439061787,0.8188169598579407,-9.824606895446777,0.7613561749458313,0.0090501569211483,-0.01117960549890995,0.0039927163161337376
2008440299162,0.8343793153762817,-9.86770248413086,0.7709329724311829,0.0071868896484375,-0.01703559048473835,0.0010647244052961469
2008441536537,0.8619126081466675,-9.882067680358887,0.7912836670875549,0.010381062515079975,-0.0138414166867733,0.0037265352439135313
2008442773900,0.8607155084609985,-9.855731010437012,0.7613561749458313,0.00958251953125,-0.013042873702943325,0.008517795242369175
2008444011287,0.8702923059463501,-9.873687744140625,0.788889467716217,0.00692070834338665,-0.010114881210029125,0.005589802749454975
2008445248625,0.8331822156906128,-9.847352027893066,0.7984662652015686,0.008517795242369175,-0.008251613937318325,0.0071868896484375
2008446486000,0.871489405632019,-9.859322547912598,0.7817068696022034,0.010647243820130825,-0.01410759799182415,0.0119781494140625
2008447723375,0.8547300100326538,-9.862914085388184,0.7996633648872375,0.0071868896484375,-0.0119781494140625,0.007985432632267475
2008448960737,0.8547300100326538,-9.865307807922363,0.7984662652015686,0.0063883461989462376,-0.0157046839594841,0.0023956298828125
2008450198125,0.872686505317688,-9.87967300415039,0.8056488633155823,0.008517795242369175,-0.010381062515079975,0.005589802749454975
2008451435487,0.8631097078323364,-9.9000244140625,0.7769184708595276,0.004791259765625,-0.010114881210029125,0.008517795242369175
2008452672862,0.8762778043746948,-9.854534149169922,0.7733271718025208,0.0031941730994731188,-0.012776692397892475,0.0039927163161337376
2008453910225,0.8439561128616333,-9.84256362915039,0.7493851184844971,0.006122165359556675,-0.013042873702943325,0.0053236219100654125
2008455147575,0.8271967172622681,-9.817423820495605,0.8020575642585754,0.008251613937318325,-0.013042873702943325,0.008251613937318325
2008456384950,0.8367735147476196,-9.824606895446777,0.8104372620582581,0.008517795242369175,-0.012510511092841625,0.0026618109550327063
2008457622325,0.8619126081466675,-9.86889934539795,0.7649474740028381,0.008783976547420025,-0.010114881210029125,0.007985432632267475
2008458859687,0.8643068075180054,-9.856928825378418,0.7637503743171692,0.00984870083630085,-0.0119781494140625,0.008251613937318325
2008460097075,0.8655039072036743,-9.836577415466309,0.8020575642585754,0.010381062515079975,-0.012510511092841625,0.008517795242369175
2008461334450,0.8547300100326538,-9.840168952941895,0.7577648162841797,0.005057440605014563,-0.01463996060192585,0.005855984054505825
2008462571812,0.8643068075180054,-9.859322547912598,0.7613561749458313,0.0021294488105922937,-0.01597086526453495,0.004791259765625
2008463809187,0.8547300100326538,-9.824606895446777,0.8188169598579407,-0.0010647244052961469,-0.013042873702943325,0.010381062515079975
2008465046525,0.8463503122329712,-9.84256362915039,0.7864952683448792,0.005855984054505825,-0.010913425125181675,0.0077192517928779125
2008466283925,0.8415619134902954,-9.854534149169922,0.7613561749458313,0.00931633822619915,-0.01597086526453495,0.012510511092841625
2008467521300,0.8487445116043091,-9.823410034179688,0.7733271718025208,0.007453070487827063,-0.0196974016726017,0.0138414166867733
2008468758650,0.8080430626869202,-9.855731010437012,0.7841010689735413,0.010913425125181675,-0.01783413253724575,0.01357523538172245
2008469996012,0.8068459630012512,-9.832986831665039,0.7996633648872375,0.0071868896484375,-0.010913425125181675,0.014373779296875
2008471233400,0.8343793153762817,-9.7791166305542,0.7601590752601624,0.00958251953125,-0.01410759799182415,0.01117960549890995
2008472470762,0.871489405632019,-9.853337287902832,0.7601590752601624,0.0029279920272529125,-0.015172322280704975,0.005855984054505825
2008473708137,0.8858546614646912,-9.848548889160156,0.7972691655158997,0.00931633822619915,-0.015438503585755825,0.01463996060192585
2008474945500,0.8463503122329712,-9.830592155456543,0.7433996200561523,0.00984870083630085,-0.01463996060192585,0.008251613937318325
2008476182887,0.888248860836029,-9.832986831665039,0.7781155705451965,0.0018632676219567657,-0.013309055007994175,0.008251613937318325
2008477420250,0.888248860836029,-9.84495735168457,0.8044517636299133,0.0013309054775163531,-0.0119781494140625,0.006122165359556675
2008478657612,0.8523358106613159,-9.84615421295166,0.7960720658302307,0.0037265352439135313,-0.00984870083630085,0.008251613937318325
2008479894975,0.8259996175765991,-9.850942611694336,0.8259996175765991,0.005057440605014563,-0.008783976547420025,0.00984870083630085
2008481132350,0.8678981065750122,-9.804256439208984,0.767341673374176,0.0023956298828125,-0.007985432632267475,0.0119781494140625
2008482369725,0.8140285611152649,-9.847352027893066,0.8068459630012512,0.0018632676219567657,-0.0114457868039608,0.0119781494140625
2008483607075,0.8200140595436096,-9.805453300476074,0.8068459630012512,0.0039927163161337376,-0.0114457868039608,0.0066545275039970875
2008484844450,0.8271967172622681,-9.819818496704102,0.790086567401886,0.0015970865497365594,-0.008517795242369175,0.0090501569211483
2008486081825,0.8583213090896606,-9.856928825378418,0.7757213711738586,-0.0007985432748682797,-0.01171196810901165,0.0066545275039970875
2008487319212,0.8056488633155823,-9.819818496704102,0.7936778664588928,0.0015970865497365594,-0.012776692397892475,0.0023956298828125
2008488556562,0.8224083185195923,-9.822212219238281,0.7469909191131592,0.0037265352439135313,-0.0119781494140625,0.007453070487827063
2008489793937,0.7924807667732239,-9.805453300476074,0.7433996200561523,0.0023956298828125,-0.013042873702943325,0.005855984054505825
2008491031287,0.8056488633155823,-9.837775230407715,0.7709329724311829,0.0013309054775163531,-0.0119781494140625,0.00692070834338665
2008492268687,0.8415619134902954,-9.8784761428833,0.7841010689735413,0.008251613937318325,-0.010647243820130825,0.005589802749454975
2008493506050,0.8571242094039917,-9.886856079101562,0.7793126702308655,0.0023956298828125,-0.0157046839594841,0.0090501569211483
2008494743425,0.8200140595436096,-9.859322547912598,0.7852981686592102,-0.0002661811013240367,-0.00958251953125,0.010381062515079975
2008495980787,0.7984662652015686,-9.86889934539795,0.812831461429596,0.0005323622026480734,-0.0063883461989462376,0.00452507846057415
2008497218162,0.8068459630012512,-9.847352027893066,0.7805097699165344,0.0013309054775163531,-0.012510511092841625,0.006122165359556675
2008498455525,0.7960720658302307,-9.821015357971191,0.7793126702308655,0.0013309054775163531,-0.00984870083630085,0.0114457868039608
2008499692887,0.8104372620582581,-9.870096206665039,0.8092401623725891,0.0018632676219567657,-0.0077192517928779125,0.0138414166867733
2008500930250,0.8271967172622681,-9.862914085388184,0.7637503743171692,-0.010381062515079975,-0.007985432632267475,0.007985432632267475
2008502167637,0.828393816947937,-9.90241813659668,0.790086567401886,-0.0066545275039970875,-0.005589802749454975,0.01463996060192585
2008503404987,0.8092401623725891,-9.819818496704102,0.8056488633155823,0.0015970865497365594,-0.005855984054505825,0.010913425125181675
2008504642375,0.829590916633606,-9.830592155456543,0.7948749661445618,0.0026618109550327063,-0.0090501569211483,0.007985432632267475
2008505879750,0.8690952062606812,-9.84615421295166,0.7805097699165344,0.0026618109550327063,-0.0071868896484375,0.0119781494140625
2008507117100,0.8571242094039917,-9.819818496704102,0.7769184708595276,0.0037265352439135313,-0.010913425125181675,0.014906140975654125
2008508354487,0.8259996175765991,-9.823410034179688,0.7972691655158997,0.0007985432748682797,-0.0018632676219567657,0.01117960549890995
2008509591837,0.8702923059463501,-9.815030097961426,0.7469909191131592,0.0002661811013240367,-0.005855984054505825,0.008251613937318325
2008510829225,0.8188169598579407,-9.847352027893066,0.7206547260284424,0.0,-0.008251613937318325,0.006122165359556675
2008512066600,0.8152256608009338,-9.882067680358887,0.7529764175415039,-0.0013309054775163531,-0.00692070834338665,0.01650322787463665
2008513303962,0.811634361743927,-9.861717224121094,0.7709329724311829,-0.00452507846057415,-0.0071868896484375,0.014906140975654125
2008514541325,0.8152256608009338,-9.850942611694336,0.8104372620582581,-0.0018632676219567657,-0.01756795309484005,0.01463996060192585
2008515778712,0.8200140595436096,-9.864110946655273,0.7649474740028381,0.0002661811013240367,-0.0063883461989462376,0.013042873702943325
2008517016062,0.8008604645729065,-9.850942611694336,0.7314286231994629,-0.0029279920272529125,-0.0042588976211845875,0.0066545275039970875
2008518253425,0.8236054182052612,-9.827000617980957,0.7613561749458313,-0.0029279920272529125,-0.0053236219100654125,0.010913425125181675
2008519490800,0.8523358106613159,-9.81263542175293,0.7398083209991455,-0.0066545275039970875,-0.008783976547420025,0.0119781494140625
2008520728162,0.7984662652015686,-9.816226959228516,0.7697358727455139,-0.003460354171693325,-0.007453070487827063,0.010647243820130825
2008521965525,0.8092401623725891,-9.855731010437012,0.729034423828125,-0.0023956298828125,-0.004791259765625,0.0090501569211483
2008523202925,0.7984662652015686,-9.818621635437012,0.7469909191131592,-0.0018632676219567657,-0.006122165359556675,0.00931633822619915
2008524440300,0.7841010689735413,-9.801861763000488,0.7254431247711182,-0.0053236219100654125,-0.003460354171693325,0.005855984054505825
2008525677662,0.8236054182052612,-9.832986831665039,0.7757213711738586,-0.00931633822619915,-0.005057440605014563,0.0053236219100654125
2008526915037,0.7769184708595276,-9.830592155456543,0.7912836670875549,-0.005057440605014563,-0.0002661811013240367,0.004791259765625
2008528152400,0.8355764150619507,-9.803058624267578,0.7757213711738586,-0.00452507846057415,-0.0023956298828125,0.0071868896484375
2008529389762,0.8080430626869202,-9.80904483795166,0.7781155705451965,-0.0053236219100654125,-0.0063883461989462376,0.0114457868039608
2008530627137,0.812831461429596,-9.787496566772461,0.7625532746315002,-0.0018632676219567657,-0.0063883461989462376,0.005855984054505825
2008531864500,0.8631097078323364,-9.822212219238281,0.7613561749458313,-0.00452507846057415,-0.0021294488105922937,0.0029279920272529125
2008533101875,0.8858546614646912,-9.803058624267578,0.7553706169128418,-0.010381062515079975,-0.005589802749454975,0.0021294488105922937
2008534339250,0.8643068075180054,-9.81263542175293,0.7876923680305481,-0.005855984054505825,-0.0015970865497365594,0.0042588976211845875
2008535576612,0.8451532125473022,-9.823410034179688,0.767341673374176,-0.0007985432748682797,-0.0039927163161337376,0.005057440605014563
2008536813987,0.828393816947937,-9.84376049041748,0.750582218170166,-0.0031941730994731188,-0.0066545275039970875,0.00452507846057415
2008538051350,0.8068459630012512,-9.838972091674805,0.7589619159698486,-0.00931633822619915,-0.0018632676219567657,0.0090501569211483
2008539288737,0.8690952062606812,-9.787496566772461,0.7936778664588928,-0.0042588976211845875,-0.0021294488105922937,0.010647243820130825
2008540526100,0.8176198601722717,-9.786299705505371,0.7386112213134766,-0.0026618109550327063,-0.0071868896484375,0.005057440605014563
2008541763462,0.8331822156906128,-9.78869342803955,0.7948749661445618,-0.008783976547420025,-0.0071868896484375,0.0039927163161337376
2008543000825,0.849941611289978,-9.81024169921875,0.7697358727455139,-0.003460354171693325,-0.005589802749454975,0.0015970865497365594
2008544238212,0.8391677141189575,-9.81263542175293,0.7553706169128418,-0.0023956298828125,-0.0018632676219567657,0.0002661811013240367
2008545475575,0.8355764150619507,-9.854534149169922,0.7457938194274902,-0.00452507846057415,-0.003460354171693325,0.0029279920272529125
2008546712925,0.8032546639442444,-9.848548889160156,0.7852981686592102,-0.007985432632267475,-0.0031941730994731188,0.0021294488105922937
2008547950287,0.8331822156906128,-9.825803756713867,0.7793126702308655,-0.0007985432748682797,-0.0002661811013240367,0.0029279920272529125
2008549187687,0.829590916633606,-9.816226959228516,0.751779317855835,-0.0015970865497365594,-0.007985432632267475,0.0023956298828125
2008550425050,0.8068459630012512,-9.827000617980957,0.7493851184844971,-0.0029279920272529125,-0.010381062515079975,-0.0021294488105922937
2008551662425,0.8044517636299133,-9.829395294189453,0.7410054206848145,-0.007453070487827063,-0.0031941730994731188,0.0015970865497365594
2008552899787,0.8463503122329712,-9.815030097961426,0.7445967197418213,-0.0071868896484375,-0.0007985432748682797,0.0010647244052961469
2008554137162,0.8044517636299133,-9.81143856048584,0.7793126702308655,-0.00452507846057415,-0.0021294488105922937,0.0023956298828125
2008555374525,0.8463503122329712,-9.817423820495605,0.7565677165985107,-0.005057440605014563,-0.0015970865497365594,0.0
2008556611900,0.8355764150619507,-9.853337287902832,0.7338228225708008,-0.0039927163161337376,-0.005589802749454975,0.0010647244052961469
2008557849262,0.8355764150619507,-9.831789016723633,0.7386112213134766,0.0013309054775163531,-0.0039927163161337376,0.0018632676219567657
2008559086637,0.8008604645729065,-9.84376049041748,0.7374141216278076,-0.0037265352439135313,-0.0015970865497365594,0.0021294488105922937
2008560324025,0.8367735147476196,-9.824606895446777,0.7493851184844971,-0.0042588976211845875,-0.0018632676219567657,0.0039927163161337376
2008561561375,0.8571242094039917,-9.81263542175293,0.7314286231994629,0.0021294488105922937,-0.0026618109550327063,0.0026618109550327063
2008562798737,0.7805097699165344,-9.825803756713867,0.7086837291717529,0.0,-0.0015970865497365594,0.0029279920272529125
2008564036112,0.8248025178909302,-9.860519409179688,0.7841010689735413,-0.005057440605014563,0.005057440605014563,0.0026618109550327063
2008565273500,0.8104372620582581,-9.81263542175293,0.7709329724311829,0.0015970865497365594,0.0013309054775163531,0.008783976547420025
2008566510875,0.7960720658302307,-9.841365814208984,0.7529764175415039,0.0029279920272529125,-0.0021294488105922937,0.004791259765625
2008567748225,0.8056488633155823,-9.828198432922363,0.7553706169128418,0.0005323622026480734,0.0002661811013240367,0.0
2008568985600,0.8271967172622681,-9.815030097961426,0.7469909191131592,-0.0010647244052961469,0.0018632676219567657,0.0031941730994731188
2008570222962,0.8619126081466675,-9.78869342803955,0.751779317855835,-0.0021294488105922937,0.0,0.0039927163161337376
2008571460325,0.8307880163192749,-9.794679641723633,0.8140285611152649,-0.0018632676219567657,0.0010647244052961469,0.0021294488105922937
2008572697712,0.8068459630012512,-9.797073364257812,0.7996633648872375,0.0021294488105922937,0.0,0.0031941730994731188
2008573935062,0.8224083185195923,-9.773131370544434,0.7852981686592102,0.0026618109550327063,-0.0007985432748682797,0.0037265352439135313
2008575172437,0.8523358106613159,-9.768342971801758,0.7541735172271729,0.0007985432748682797,0.0013309054775163531,0.0026618109550327063
2008576409800,0.8619126081466675,-9.81024169921875,0.7948749661445618,0.0026618109550327063,0.0,-0.0007985432748682797
2008577647187,0.8595184087753296,-9.803058624267578,0.7553706169128418,0.0026618109550327063,-0.0042588976211845875,-0.0005323622026480734
2008578884550,0.828393816947937,-9.791088104248047,0.750582218170166,0.0015970865497365594,-0.0026618109550327063,-0.0021294488105922937
2008580121912,0.8188169598579407,-9.747992515563965,0.7864952683448792,0.0005323622026480734,0.0023956298828125,0.003460354171693325
2008581359287,0.8056488633155823,-9.799468040466309,0.7649474740028381,0.005855984054505825,0.0042588976211845875,0.0015970865497365594
2008582596662,0.8224083185195923,-9.75278091430664,0.7469909191131592,0.0066545275039970875,0.0039927163161337376,-0.0007985432748682797
2008583834025,0.8631097078323364,-9.794679641723633,0.6787561774253845,0.0071868896484375,0.0037265352439135313,0.0039927163161337376
2008585071375,0.812831461429596,-9.794679641723633,0.7541735172271729,0.008251613937318325,0.0018632676219567657,0.0053236219100654125
2008586308762,0.8415619134902954,-9.77791976928711,0.7805097699165344,0.0077192517928779125,-0.0010647244052961469,-0.0002661811013240367
2008587546150,0.8355764150619507,-9.798270225524902,0.7589619159698486,0.00931633822619915,0.0010647244052961469,-0.0010647244052961469
2008588783500,0.8343793153762817,-9.798270225524902,0.7924807667732239,0.0077192517928779125,0.0015970865497365594,0.0063883461989462376
2008590020875,0.8607155084609985,-9.817423820495605,0.7829039692878723,0.00692070834338665,0.0013309054775163531,0.00692070834338665
2008591258250,0.8427590131759644,-9.81263542175293,0.7745242714881897,0.0090501569211483,-0.0010647244052961469,0.006122165359556675
2008592495625,0.8391677141189575,-9.821015357971191,0.7852981686592102,0.00984870083630085,0.0015970865497365594,0.0037265352439135313
2008593732987,0.8224083185195923,-9.836577415466309,0.7912836670875549,0.0071868896484375,-0.0029279920272529125,0.0015970865497365594
2008594970375,0.8571242094039917,-9.819818496704102,0.7757213711738586,0.010114881210029125,-0.0005323622026480734,-0.0023956298828125
2008596207737,0.8403648138046265,-9.813833236694336,0.7721300721168518,0.01410759799182415,0.0007985432748682797,0.004791259765625
2008597445100,0.8571242094039917,-9.847352027893066,0.7805097699165344,0.014373779296875,0.0023956298828125,0.0042588976211845875
2008598682475,0.8355764150619507,-9.81143856048584,0.7649474740028381,0.012510511092841625,0.0026618109550327063,0.0037265352439135313
2008599919837,0.851138710975647,-9.821015357971191,0.7158663272857666,0.00984870083630085,0.005589802749454975,0.0053236219100654125
2008601157200,0.8212112188339233,-9.823410034179688,0.767341673374176,0.01224433071911335,0.0010647244052961469,0.005057440605014563
2008602394575,0.8535329103469849,-9.797073364257812,0.7314286231994629,0.012510511092841625,0.003460354171693325,0.0021294488105922937
2008603631962,0.8678981065750122,-9.806650161743164,0.7398083209991455,0.01410759799182415,0.0018632676219567657,0.00452507846057415
2008604869312,0.849941611289978,-9.819818496704102,0.7338228225708008,0.0162370465695858,0.0002661811013240367,0.0090501569211483
2008606106687,0.8475474119186401,-9.835380554199219,0.7613561749458313,0.01171196810901165,0.0015970865497365594,0.0023956298828125
2008607344062,0.8475474119186401,-9.827000617980957,0.7721300721168518,0.015172322280704975,0.0007985432748682797,-0.0037265352439135313
2008608581412,0.8870517611503601,-9.799468040466309,0.8319851160049438,0.02129448764026165,-0.0013309054775163531,0.0037265352439135313
2008609818787,0.8655039072036743,-9.827000617980957,0.7733271718025208,0.0173017717897892,0.0066545275039970875,0.006122165359556675
2008611056162,0.8307880163192749,-9.786299705505371,0.7972691655158997,0.0167694091796875,0.0037265352439135313,0.00958251953125
2008612293537,0.8547300100326538,-9.797073364257812,0.7829039692878723,0.015172322280704975,-0.0039927163161337376,0.0053236219100654125
2008613530925,0.8822633624076843,-9.834183692932129,0.7793126702308655,0.0157046839594841,-0.0010647244052961469,0.0021294488105922937
2008614768275,0.851138710975647,-9.815030097961426,0.7733271718025208,0.0138414166867733,0.005057440605014563,0.0007985432748682797
2008616005637,0.7984662652015686,-9.804256439208984,0.751779317855835,0.013309055007994175,0.0029279920272529125,0.00452507846057415
2008617243025,0.8236054182052612,-9.799468040466309,0.768538773059845,0.01171196810901165,0.0005323622026480734,0.0039927163161337376
2008618480375,0.8271967172622681,-9.832986831665039,0.7422025203704834,0.013042873702943325,-0.0023956298828125,0.0018632676219567657
2008619717762,0.8367735147476196,-9.819818496704102,0.7374141216278076,0.0173017717897892,0.0013309054775163531,-0.0002661811013240367
2008620955137,0.8451532125473022,-9.817423820495605,0.7709329724311829,0.0191650390625,0.0026618109550327063,0.0039927163161337376
2008622192487,0.8379706144332886,-9.831789016723633,0.7817068696022034,0.01889885775744915,0.0015970865497365594,0.0053236219100654125
2008623429862,0.8583213090896606,-9.847352027893066,0.7709329724311829,0.01703559048473835,-0.0026618109550327063,0.006122165359556675
2008624667237,0.8331822156906128,-9.854534149169922,0.7757213711738586,0.01597086526453495,-0.0015970865497365594,0.007453070487827063
2008625904600,0.8307880163192749,-9.853337287902832,0.767341673374176,0.01836649514734745,-0.0029279920272529125,0.0042588976211845875
2008627141975,0.8259996175765991,-9.837775230407715,0.8044517636299133,0.01357523538172245,-0.0031941730994731188,0.0015970865497365594
2008628379325,0.8559271097183228,-9.86770248413086,0.7541735172271729,0.008517795242369175,0.0018632676219567657,0.005057440605014563
2008629616712,0.8690952062606812,-9.873687744140625,0.7745242714881897,0.012510511092841625,0.0013309054775163531,0.005589802749454975
2008630854087,0.8451532125473022,-9.834183692932129,0.7852981686592102,0.01889885775744915,0.0007985432748682797,0.0029279920272529125
2008632091450,0.8391677141189575,-9.835380554199219,0.7589619159698486,0.015438503585755825,0.0053236219100654125,-0.0010647244052961469
2008633328837,0.8475474119186401,-9.855731010437012,0.7254431247711182,0.012510511092841625,0.0021294488105922937,0.0023956298828125
2008634566175,0.851138710975647,-9.837775230407715,0.750582218170166,0.014906140975654125,-0.0023956298828125,0.005057440605014563
2008635803562,0.8475474119186401,-9.877279281616211,0.8020575642585754,0.01703559048473835,-0.0037265352439135313,0.0
2008637040912,0.8607155084609985,-9.87967300415039,0.7757213711738586,0.012776692397892475,-0.0029279920272529125,-0.005057440605014563
2008638278287,0.8846575617790222,-9.889249801635742,0.7709329724311829,0.01224433071911335,-0.0053236219100654125,-0.0013309054775163531
2008639515675,0.8104372620582581,-9.865307807922363,0.7972691655158997,0.012510511092841625,-0.0042588976211845875,0.0015970865497365594
2008640753037,0.8415619134902954,-9.880870819091797,0.788889467716217,0.014906140975654125,-0.00452507846057415,0.0023956298828125
2008641990412,0.8690952062606812,-9.850942611694336,0.7781155705451965,0.012510511092841625,0.0002661811013240367,-0.0037265352439135313
2008643227800,0.8643068075180054,-9.884461402893066,0.750582218170166,0.010381062515079975,-0.0031941730994731188,-0.005589802749454975
2008644465175,0.8319851160049438,-9.858125686645508,0.7697358727455139,0.010114881210029125,-0.0031941730994731188,0.0010647244052961469
2008645702525,0.8152256608009338,-9.822212219238281,0.7541735172271729,0.01463996060192585,-0.0023956298828125,-0.0015970865497365594
2008646939887,0.8535329103469849,-9.861717224121094,0.751779317855835,0.007985432632267475,0.0037265352439135313,-0.0063883461989462376
2008648177275,0.8607155084609985,-9.862914085388184,0.7565677165985107,0.010114881210029125,-0.0015970865497365594,-0.006122165359556675
2008649414625,0.8415619134902954,-9.889249801635742,0.7757213711738586,0.0090501569211483,-0.0039927163161337376,-0.0015970865497365594
2008650652025,0.8259996175765991,-9.840168952941895,0.7481880187988281,0.008517795242369175,-0.003460354171693325,-0.0021294488105922937
2008651889387,0.849941611289978,-9.848548889160156,0.7386112213134766,0.010913425125181675,-0.0039927163161337376,-0.0002661811013240367
2008653126750,0.9002198576927185,-9.832986831665039,0.8176198601722717,0.00931633822619915,-0.005589802749454975,-0.0021294488105922937
2008654364125,0.8774749040603638,-9.856928825378418,0.7721300721168518,0.010647243820130825,-0.0023956298828125,0.0018632676219567657
2008655601475,0.8690952062606812,-9.835380554199219,0.768538773059845,0.01171196810901165,0.0026618109550327063,0.0010647244052961469
2008656838850,0.8439561128616333,-9.897629737854004,0.7493851184844971,0.0071868896484375,-0.0013309054775163531,-0.005057440605014563
2008658076212,0.8559271097183228,-9.874884605407715,0.7481880187988281,0.0071868896484375,-0.0007985432748682797,-0.0029279920272529125
2008659313600,0.872686505317688,-9.827000617980957,0.7601590752601624,0.0077192517928779125,0.0007985432748682797,-0.0015970865497365594
2008660550962,0.871489405632019,-9.848548889160156,0.7541735172271729,0.0077192517928779125,-0.0026618109550327063,-0.0029279920272529125
2008661788325,0.849941611289978,-9.860519409179688,0.8259996175765991,0.008251613937318325,-0.0010647244052961469,0.0010647244052961469
2008663025687,0.8583213090896606,-9.856928825378418,0.7601590752601624,0.008783976547420025,-0.0037265352439135313,0.0002661811013240367
2008664263062,0.8930372595787048,-9.831789016723633,0.788889467716217,0.007985432632267475,-0.008517795242369175,-0.0021294488105922937
2008665500437,0.8870517611503601,-9.871294021606445,0.7589619159698486,0.005855984054505825,-0.0077192517928779125,-0.0010647244052961469
2008666737825,0.8212112188339233,-9.847352027893066,0.7841010689735413,0.007453070487827063,-0.004791259765625,-0.0031941730994731188
2008667975187,0.8822633624076843,-9.832986831665039,0.7852981686592102,0.0066545275039970875,-0.008517795242369175,-0.00452507846057415
2008669212562,0.871489405632019,-9.840168952941895,0.7960720658302307,0.0005323622026480734,-0.008251613937318325,-0.005855984054505825
2008670449925,0.8655039072036743,-9.84495735168457,0.7709329724311829,0.0037265352439135313,-0.004791259765625,-0.006122165359556675
2008671687300,0.8583213090896606,-9.849745750427246,0.7601590752601624,0.0005323622026480734,-0.006122165359556675,-0.0031941730994731188
2008672924662,0.8343793153762817,-9.84376049041748,0.7960720658302307,0.0010647244052961469,-0.008783976547420025,0.0018632676219567657
2008674162037,0.8619126081466675,-9.803058624267578,0.7637503743171692,0.0013309054775163531,-0.008251613937318325,-0.0007985432748682797
2008675399400,0.851138710975647,-9.854534149169922,0.7876923680305481,0.0039927163161337376,-0.007453070487827063,-0.0039927163161337376
2008676636762,0.8762778043746948,-9.852140426635742,0.790086567401886,0.0066545275039970875,-0.01224433071911335,0.0021294488105922937
2008677874150,0.8271967172622681,-9.86889934539795,0.8008604645729065,0.0053236219100654125,-0.0066545275039970875,-0.0018632676219567657
2008679111537,0.8667010068893433,-9.816226959228516,0.7757213711738586,0.0023956298828125,-0.010114881210029125,-0.0013309054775163531
2008680348887,0.8750807046890259,-9.830592155456543,0.7374141216278076,0.0029279920272529125,-0.013042873702943325,-0.0010647244052961469
2008681586237,0.8643068075180054,-9.841365814208984,0.7565677165985107,0.0063883461989462376,-0.010381062515079975,0.0
2008682823612,0.8523358106613159,-9.860519409179688,0.8008604645729065,0.00452507846057415,-0.00958251953125,-0.0026618109550327063
2008684061000,0.8439561128616333,-9.834183692932129,0.7577648162841797,0.0053236219100654125,-0.0042588976211845875,-0.006122165359556675
2008685298350,0.8547300100326538,-9.847352027893066,0.788889467716217,0.0037265352439135313,-0.010647243820130825,-0.00452507846057415
2008686535737,0.851138710975647,-9.853337287902832,0.7410054206848145,0.004791259765625,-0.005057440605014563,-0.0013309054775163531
2008687773112,0.9014169573783875,-9.880870819091797,0.767341673374176,0.0013309054775163531,-0.008517795242369175,-0.0015970865497365594
2008689010462,0.8954314589500427,-9.817423820495605,0.7661445736885071,0.0021294488105922937,-0.00931633822619915,-0.0039927163161337376
2008690247850,0.8439561128616333,-9.847352027893066,0.7697358727455139,-0.0023956298828125,-0.01171196810901165,-0.005057440605014563
2008691485212,0.8236054182052612,-9.84615421295166,0.790086567401886,0.0,-0.012510511092841625,-0.006122165359556675
2008692722612,0.8655039072036743,-9.874884605407715,0.7553706169128418,-0.0010647244052961469,-0.010381062515079975,-0.0029279920272529125
2008693959950,0.8762778043746948,-9.827000617980957,0.7589619159698486,-0.00452507846057415,-0.0031941730994731188,-0.0023956298828125
2008695197337,0.8678981065750122,-9.858125686645508,0.7817068696022034,0.0037265352439135313,-0.012510511092841625,-0.0023956298828125
2008696434700,0.8738836050033569,-9.835380554199219,0.7649474740028381,0.0015970865497365594,-0.0138414166867733,-0.004791259765625
2008697672075,0.8918401598930359,-9.825803756713867,0.7625532746315002,-0.0018632676219567657,-0.00984870083630085,-0.0042588976211845875
2008698909425,0.8643068075180054,-9.81263542175293,0.767341673374176,-0.0002661811013240367,-0.01171196810901165,-0.0037265352439135313
2008700146825,0.8475474119186401,-9.829395294189453,0.7709329724311829,0.0023956298828125,-0.01889885775744915,-0.005057440605014563
2008701384187,0.828393816947937,-9.817423820495605,0.7661445736885071,-0.0005323622026480734,-0.014373779296875,-0.0039927163161337376
2008702621550,0.8559271097183228,-9.834183692932129,0.7805097699165344,-0.0013309054775163531,-0.0114457868039608,-0.004791259765625
2008703858925,0.8271967172622681,-9.849745750427246,0.7589619159698486,-0.0005323622026480734,-0.01171196810901165,-0.004791259765625
2008705096300,0.8248025178909302,-9.834183692932129,0.7733271718025208,0.0026618109550327063,-0.0077192517928779125,-0.003460354171693325
2008706333662,0.8643068075180054,-9.837775230407715,0.7733271718025208,0.0002661811013240367,-0.01117960549890995,-0.00692070834338665
2008707571025,0.8786720037460327,-9.825803756713867,0.7445967197418213,0.004791259765625,-0.00984870083630085,-0.0013309054775163531
2008708808400,0.8571242094039917,-9.841365814208984,0.7805097699165344,0.0037265352439135313,-0.010647243820130825,0.0018632676219567657
2008710045775,0.8475474119186401,-9.817423820495605,0.7864952683448792,0.0021294488105922937,-0.0138414166867733,-0.004791259765625
2008711283150,0.8427590131759644,-9.807847023010254,0.7553706169128418,0.0007985432748682797,-0.01410759799182415,-0.004791259765625
2008712520512,0.8750807046890259,-9.872490882873535,0.7912836670875549,0.0015970865497365594,-0.013309055007994175,-0.0026618109550327063
2008713757887,0.8331822156906128,-9.816226959228516,0.767341673374176,0.0071868896484375,-0.01756795309484005,-0.0037265352439135313
2008714995262,0.8331822156906128,-9.854534149169922,0.767341673374176,0.0063883461989462376,-0.0162370465695858,0.0002661811013240367
2008716232612,0.8391677141189575,-9.793481826782227,0.7541735172271729,-0.0029279920272529125,-0.0138414166867733,-0.005589802749454975
2008717470000,0.8379706144332886,-9.829395294189453,0.8104372620582581,0.0018632676219567657,-0.00958251953125,-0.0077192517928779125
2008718707362,0.8535329103469849,-9.837775230407715,0.7709329724311829,0.0013309054775163531,-0.007453070487827063,-0.0042588976211845875
2008719944750,0.8595184087753296,-9.822212219238281,0.729034423828125,-0.0039927163161337376,-0.010647243820130825,-0.010381062515079975
2008721182112,0.8667010068893433,-9.815030097961426,0.7757213711738586,-0.0013309054775163531,-0.010913425125181675,-0.005589802749454975
2008722419475,0.8319851160049438,-9.813833236694336,0.7457938194274902,0.0039927163161337376,-0.010647243820130825,-0.0053236219100654125
2008723656850,0.8044517636299133,-9.834183692932129,0.7649474740028381,0.0013309054775163531,-0.00958251953125,-0.00692070834338665
2008724894212,0.851138710975647,-9.828198432922363,0.7457938194274902,-0.0005323622026480734,-0.0063883461989462376,-0.00958251953125
2008726131587,0.8379706144332886,-9.806650161743164,0.7362170219421387,0.0015970865497365594,-0.007453070487827063,-0.010381062515079975
2008727368937,0.8427590131759644,-9.856928825378418,0.829590916633606,-0.0005323622026480734,-0.010114881210029125,-0.005589802749454975
2008728606337,0.8439561128616333,-9.830592155456543,0.767341673374176,0.0026618109550327063,-0.012776692397892475,-0.0039927163161337376
2008729843687,0.851138710975647,-9.854534149169922,0.7386112213134766,0.003460354171693325,-0.0071868896484375,-0.008251613937318325
2008731081075,0.8236054182052612,-9.813833236694336,0.768538773059845,-0.0002661811013240367,-0.0077192517928779125,-0.00692070834338665
2008732318437,0.871489405632019,-9.822212219238281,0.7769184708595276,0.0,-0.010647243820130825,-0.004791259765625
2008733555812,0.8188169598579407,-9.831789016723633,0.7841010689735413,0.0029279920272529125,-0.00931633822619915,-0.0053236219100654125
2008734793162,0.8822633624076843,-9.816226959228516,0.7960720658302307,0.0018632676219567657,-0.010114881210029125,-0.0023956298828125
2008736030562,0.8475474119186401,-9.765949249267578,0.7972691655158997,0.0026618109550327063,-0.007453070487827063,-0.0029279920272529125
2008737267937,0.8463503122329712,-9.781511306762695,0.788889467716217,0.0021294488105922937,-0.007985432632267475,-0.010381062515079975
2008738505287,0.8607155084609985,-9.807847023010254,0.7709329724311829,0.0031941730994731188,-0.005589802749454975,-0.0077192517928779125
2008739742662,0.8391677141189575,-9.787496566772461,0.7984662652015686,0.00931633822619915,-0.00931633822619915,-0.0002661811013240367
2008740980012,0.8786720037460327,-9.792284965515137,0.7924807667732239,0.0077192517928779125,-0.0090501569211483,-0.00984870083630085
2008742217400,0.8571242094039917,-9.816226959228516,0.7481880187988281,0.0031941730994731188,-0.005589802749454975,-0.0063883461989462376
2008743454762,0.872686505317688,-9.798270225524902,0.7529764175415039,0.00452507846057415,-0.005057440605014563,-0.0053236219100654125
2008744692150,0.8595184087753296,-9.821015357971191,0.7757213711738586,0.0063883461989462376,-0.007453070487827063,-0.00931633822619915
2008745929500,0.8690952062606812,-9.799468040466309,0.7948749661445618,0.00931633822619915,-0.0066545275039970875,-0.0077192517928779125
2008747166887,0.8619126081466675,-9.77672290802002,0.7769184708595276,0.006122165359556675,-0.007985432632267475,-0.0071868896484375
2008748404250,0.8307880163192749,-9.793481826782227,0.7960720658302307,0.0071868896484375,-0.007985432632267475,-0.004791259765625
2008749641637,0.8523358106613159,-9.797073364257812,0.7841010689735413,0.0071868896484375,-0.0021294488105922937,-0.0063883461989462376
2008750879000,0.8331822156906128,-9.804256439208984,0.7924807667732239,0.0029279920272529125,-0.005589802749454975,-0.008517795242369175
2008752116362,0.8643068075180054,-9.817423820495605,0.7960720658302307,0.0013309054775163531,-0.0013309054775163531,-0.008251613937318325
2008753353750,0.8307880163192749,-9.81263542175293,0.7577648162841797,0.0037265352439135313,0.00692070834338665,-0.00984870083630085
2008754591112,0.872686505317688,-9.769539833068848,0.7781155705451965,0.0077192517928779125,-0.0005323622026480734,0.0
2008755828500,0.8224083185195923,-9.782708168029785,0.7589619159698486,0.008783976547420025,-0.005057440605014563,0.0002661811013240367
2008757065850,0.8966285586357117,-9.829395294189453,0.7733271718025208,0.0021294488105922937,-0.0029279920272529125,-0.0114457868039608
2008758303225,0.8942343592643738,-9.824606895446777,0.7493851184844971,0.0037265352439135313,-0.00452507846057415,-0.014906140975654125
2008759540600,0.8547300100326538,-9.781511306762695,0.7613561749458313,0.010381062515079975,-0.0042588976211845875,-0.007985432632267475
2008760777962,0.8367735147476196,-9.803058624267578,0.7912836670875549,0.008517795242369175,-0.007453070487827063,-0.004791259765625
2008762015337,0.8487445116043091,-9.793481826782227,0.7876923680305481,0.008517795242369175,-0.0029279920272529125,-0.00452507846057415
2008763252700,0.8200140595436096,-9.783905029296875,0.7829039692878723,0.008783976547420025,-0.0007985432748682797,-0.00931633822619915
2008764490062,0.8439561128616333,-9.807847023010254,0.7553706169128418,0.010647243820130825,0.0015970865497365594,-0.00931633822619915
2008765727437,0.8678981065750122,-9.816226959228516,0.7589619159698486,0.01357523538172245,0.0010647244052961469,-0.008517795242369175
2008766964812,0.9002198576927185,-9.781511306762695,0.7757213711738586,0.010114881210029125,0.0010647244052961469,-0.0090501569211483
2008768202187,0.8619126081466675,-9.832986831665039,0.7984662652015686,0.014373779296875,0.0037265352439135313,-0.00931633822619915
2008769439562,0.8403648138046265,-9.852140426635742,0.7805097699165344,0.00984870083630085,0.00452507846057415,-0.0029279920272529125
2008770676925,0.8571242094039917,-9.792284965515137,0.7733271718025208,0.010114881210029125,0.0005323622026480734,-0.00958251953125
2008771914300,0.8678981065750122,-9.789891242980957,0.8104372620582581,0.015172322280704975,-0.0018632676219567657,-0.013309055007994175
2008773151662,0.8690952062606812,-9.831789016723633,0.8200140595436096,0.0138414166867733,0.00452507846057415,-0.005855984054505825
2008774389050,0.871489405632019,-9.824606895446777,0.7996633648872375,0.010114881210029125,0.0071868896484375,-0.005589802749454975
2008775626412,0.8643068075180054,-9.803058624267578,0.767341673374176,0.014906140975654125,0.0015970865497365594,-0.008517795242369175
2008776863787,0.8858546614646912,-9.794679641723633,0.788889467716217,0.015438503585755825,0.00958251953125,-0.007985432632267475
2008778101150,0.8451532125473022,-9.805453300476074,0.7984662652015686,0.0173017717897892,0.0063883461989462376,-0.0071868896484375
2008779338525,0.8930372595787048,-9.794679641723633,0.7960720658302307,0.010913425125181675,0.0071868896484375,-0.0071868896484375
2008780575887,0.888248860836029,-9.81263542175293,0.7721300721168518,0.0138414166867733,0.00452507846057415,-0.0090501569211483
2008781813250,0.9253589510917664,-9.762357711791992,0.790086567401886,0.01836649514734745,0.00452507846057415,-0.0071868896484375
2008783050637,0.8822633624076843,-9.829395294189453,0.7984662652015686,0.01943122036755085,0.00452507846057415,-0.0119781494140625
2008784288012,0.9014169573783875,-9.81024169921875,0.8200140595436096,0.0223592109978199,0.004791259765625,-0.01357523538172245
2008785525375,0.8810662031173706,-9.789891242980957,0.8080430626869202,0.0215606689453125,0.0071868896484375,-0.010647243820130825
2008786762762,0.8750807046890259,-9.77552604675293,0.8307880163192749,0.01597086526453495,0.0066545275039970875,-0.007985432632267475
2008788000100,0.8858546614646912,-9.818621635437012,0.8008604645729065,0.02182685025036335,0.007453070487827063,-0.00958251953125
2008789237475,0.8559271097183228,-9.75278091430664,0.7769184708595276,0.0223592109978199,0.005589802749454975,-0.015438503585755825
2008790474862,0.9050082564353943,-9.781511306762695,0.768538773059845,0.0223592109978199,0.0053236219100654125,-0.010381062515079975
2008791712225,0.9026140570640564,-9.797073364257812,0.8200140595436096,0.0223592109978199,0.010114881210029125,-0.005589802749454975
2008792949587,0.8978256583213806,-9.791088104248047,0.829590916633606,0.0228915736079216,0.0039927163161337376,-0.010114881210029125
2008794186962,0.9038111567497253,-9.77672290802002,0.8032546639442444,0.0215606689453125,0.0071868896484375,-0.01171196810901165
2008795424337,0.8834604620933533,-9.816226959228516,0.8044517636299133,0.02076212503015995,0.010913425125181675,-0.00931633822619915
2008796661725,0.8978256583213806,-9.77791976928711,0.7841010689735413,0.02022976242005825,0.01117960549890995,-0.0090501569211483
2008797899062,0.8702923059463501,-9.786299705505371,0.7924807667732239,0.02022976242005825,0.00958251953125,-0.0114457868039608
2008799136450,0.8822633624076843,-9.84495735168457,0.7781155705451965,0.02608574740588665,0.007453070487827063,-0.010647243820130825
2008800373812,0.8870517611503601,-9.829395294189453,0.811634361743927,0.0234239362180233,0.00452507846057415,-0.0063883461989462376
2008801611187,0.8583213090896606,-9.80904483795166,0.8068459630012512,0.0228915736079216,0.007453070487827063,-0.0053236219100654125
2008802848562,0.9289502501487732,-9.795876502990723,0.8403648138046265,0.0234239362180233,0.0042588976211845875,-0.0114457868039608
2008804085937,0.9361328482627869,-9.763554573059082,0.7912836670875549,0.02422248013317585,0.0015970865497365594,-0.0114457868039608
2008805323300,0.8547300100326538,-9.803058624267578,0.8200140595436096,0.0223592109978199,0.008251613937318325,-0.010647243820130825
2008806560662,0.8451532125473022,-9.838972091674805,0.7852981686592102,0.02369011752307415,0.010913425125181675,-0.00931633822619915
2008807798037,0.8786720037460327,-9.837775230407715,0.7829039692878723,0.01996358297765255,0.00984870083630085,-0.00931633822619915
2008809035412,0.93254154920578,-9.801861763000488,0.7781155705451965,0.02848137728869915,0.015172322280704975,-0.01171196810901165
2008810272775,0.8678981065750122,-9.813833236694336,0.8056488633155823,0.02794901467859745,0.00958251953125,-0.010913425125181675
2008811510150,0.9026140570640564,-9.817423820495605,0.8547300100326538,0.0228915736079216,0.008783976547420025,-0.012776692397892475
2008812747537,0.8774749040603638,-9.859322547912598,0.8367735147476196,0.023956298828125,0.0114457868039608,-0.01410759799182415
2008813984900,0.8942343592643738,-9.819818496704102,0.8331822156906128,0.0252872034907341,0.0071868896484375,-0.00984870083630085
2008815222275,0.8762778043746948,-9.80904483795166,0.7637503743171692,0.02502102218568325,0.008783976547420025,-0.007453070487827063
2008816459637,0.851138710975647,-9.789891242980957,0.7817068696022034,0.02608574740588665,0.008251613937318325,-0.0066545275039970875
2008817697012,0.8834604620933533,-9.837775230407715,0.7733271718025208,0.0204959437251091,0.00931633822619915,-0.010114881210029125
2008818934375,0.9050082564353943,-9.84495735168457,0.8236054182052612,0.0220930315554142,0.01357523538172245,-0.0077192517928779125
2008820171750,0.9085995554924011,-9.818621635437012,0.7876923680305481,0.0295461006462574,0.012510511092841625,-0.006122165359556675
2008821409125,0.8918401598930359,-9.840168952941895,0.812831461429596,0.02661811001598835,0.010114881210029125,-0.008783976547420025
2008822646487,0.8942343592643738,-9.807847023010254,0.8008604645729065,0.0228915736079216,0.007985432632267475,-0.010647243820130825
2008823883850,0.9169792532920837,-9.815030097961426,0.8032546639442444,0.0204959437251091,0.012776692397892475,-0.0071868896484375
2008825121212,0.910993754863739,-9.817423820495605,0.8690952062606812,0.02182685025036335,0.0077192517928779125,-0.0071868896484375
2008826358600,0.9277531504631042,-9.838972091674805,0.829590916633606,0.02608574740588665,0.004791259765625,-0.00692070834338665
2008827595975,0.9217676520347595,-9.84256362915039,0.8092401623725891,0.0252872034907341,0.008251613937318325,-0.005057440605014563
2008828833350,0.8990227580070496,-9.804256439208984,0.8331822156906128,0.02422248013317585,0.0114457868039608,-0.008783976547420025
2008830070700,0.8810662031173706,-9.782708168029785,0.8080430626869202,0.023956298828125,0.01224433071911335,-0.0037265352439135313
2008831308087,0.9349357485771179,-9.841365814208984,0.8271967172622681,0.0228915736079216,0.01171196810901165,-0.0066545275039970875
2008832545462,0.9026140570640564,-9.870096206665039,0.7745242714881897,0.02129448764026165,0.00692070834338665,-0.007985432632267475
2008833782825,0.8619126081466675,-9.80904483795166,0.8056488633155823,0.0244886614382267,0.00692070834338665,-0.004791259765625
2008835020200,0.8978256583213806,-9.824606895446777,0.7912836670875549,0.0247548408806324,0.0063883461989462376,-0.0029279920272529125
2008836257550,0.8954314589500427,-9.84256362915039,0.7745242714881897,0.0234239362180233,0.005589802749454975,-0.005589802749454975
2008837494912,0.973242998123169,-9.821015357971191,0.8236054182052612,0.0215606689453125,0.0090501569211483,-0.0039927163161337376
2008838732312,0.9050082564353943,-9.797073364257812,0.8104372620582581,0.02182685025036335,0.012510511092841625,-0.0063883461989462376
2008839969675,0.9469068050384521,-9.832986831665039,0.7984662652015686,0.02502102218568325,0.007453070487827063,-0.0031941730994731188
2008841207037,0.9576807022094727,-9.81143856048584,0.7757213711738586,0.0268842913210392,0.005589802749454975,-0.0037265352439135313
2008842444425,0.9564836025238037,-9.770737648010254,0.8068459630012512,0.03087700717151165,0.007985432632267475,-0.005589802749454975
2008843681775,0.9660604000091553,-9.827000617980957,0.8092401623725891,0.02129448764026165,0.008783976547420025,-0.006122165359556675
2008844919162,0.93254154920578,-9.861717224121094,0.8236054182052612,0.02129448764026165,0.005855984054505825,-0.0039927163161337376
2008846156525,0.9385270476341248,-9.859322547912598,0.8068459630012512,0.02502102218568325,0.0077192517928779125,-0.0077192517928779125
2008847393887,0.9074024558067322,-9.835380554199219,0.8236054182052612,0.02076212503015995,0.005855984054505825,-0.0023956298828125
2008848631250,0.9409212470054626,-9.838972091674805,0.8188169598579407,0.023956298828125,0.005855984054505825,-0.0015970865497365594
2008849868637,0.9289502501487732,-9.835380554199219,0.7733271718025208,0.02369011752307415,0.0077192517928779125,-0.0037265352439135313
2008851105987,0.9756371974945068,-9.829395294189453,0.828393816947937,0.0234239362180233,0.010381062515079975,-0.0037265352439135313
2008852343375,0.9433155059814453,-9.836577415466309,0.828393816947937,0.02262539230287075,0.008783976547420025,-0.004791259765625
2008853580762,0.9217676520347595,-9.832986831665039,0.8307880163192749,0.02422248013317585,0.005589802749454975,0.0002661811013240367
2008854818125,0.9672574996948242,-9.84376049041748,0.811634361743927,0.0228915736079216,0.004791259765625,-0.0015970865497365594
2008856055487,0.9361328482627869,-9.872490882873535,0.8271967172622681,0.0210283063352108,0.004791259765625,-0.0023956298828125
2008857292850,0.9528923034667969,-9.850942611694336,0.8212112188339233,0.0228915736079216,0.0023956298828125,-0.004791259765625
2008858530212,0.9828197956085205,-9.84256362915039,0.8271967172622681,0.02315775491297245,0.0015970865497365594,-0.005855984054505825
2008859767587,0.950498104095459,-9.816226959228516,0.8427590131759644,0.02182685025036335,0.0053236219100654125,-0.0018632676219567657
2008861004975,0.9588778018951416,-9.848548889160156,0.8020575642585754,0.0173017717897892,0.0053236219100654125,-0.0013309054775163531
2008862242337,0.9157821536064148,-9.836577415466309,0.7577648162841797,0.0191650390625,0.0013309054775163531,0.0013309054775163531
2008863479712,0.950498104095459,-9.80904483795166,0.8164227604866028,0.02182685025036335,0.0018632676219567657,0.0021294488105922937
2008864717087,0.9720458984375,-9.804256439208984,0.8056488633155823,0.0186326764523983,0.006122165359556675,-0.006122165359556675
2008865954475,0.9373299479484558,-9.804256439208984,0.851138710975647,0.02022976242005825,0.004791259765625,-0.0015970865497365594
2008867191837,0.9552865028381348,-9.841365814208984,0.8619126081466675,0.02182685025036335,0.0015970865497365594,0.0031941730994731188
2008868429187,0.9289502501487732,-9.813833236694336,0.8475474119186401,0.0228915736079216,-0.0002661811013240367,-0.0002661811013240367
2008869666575,0.9457097053527832,-9.852140426635742,0.8176198601722717,0.0157046839594841,0.0037265352439135313,0.0
2008870903950,0.9361328482627869,-9.819818496704102,0.8044517636299133,0.01783413253724575,0.004791259765625,0.0002661811013240367
2008872141300,0.9660604000091553,-9.815030097961426,0.8236054182052612,0.0173017717897892,-0.0015970865497365594,-0.0026618109550327063
2008873378675,0.973242998123169,-9.824606895446777,0.8367735147476196,0.012776692397892475,0.0021294488105922937,-0.0021294488105922937
2008874616037,0.9205705523490906,-9.798270225524902,0.8547300100326538,0.0157046839594841,0.0037265352439135313,0.0029279920272529125
2008875853412,0.9433155059814453,-9.84376049041748,0.8355764150619507,0.01996358297765255,-0.0013309054775163531,0.0002661811013240367
2008877090787,0.9469068050384521,-9.84256362915039,0.8307880163192749,0.01756795309484005,0.0002661811013240367,-0.0037265352439135313
2008878328150,0.9516952037811279,-9.81024169921875,0.7625532746315002,0.01410759799182415,0.0010647244052961469,0.0
2008879565550,0.9564836025238037,-9.84376049041748,0.8176198601722717,0.01410759799182415,-0.0010647244052961469,0.0026618109550327063
2008880802900,0.9385270476341248,-9.84376049041748,0.7996633648872375,0.01357523538172245,-0.0002661811013240367,-0.0013309054775163531
2008882040287,0.99479079246521,-9.804256439208984,0.8355764150619507,0.01836649514734745,0.0010647244052961469,0.005589802749454975
2008883277650,0.9313444495201111,-9.823410034179688,0.8391677141189575,0.01463996060192585,-0.0037265352439135313,0.00452507846057415
2008884515037,0.9097966551780701,-9.855731010437012,0.8236054182052612,0.0181003138422966,-0.0031941730994731188,0.0005323622026480734
2008885752400,0.9349357485771179,-9.870096206665039,0.8259996175765991,0.014373779296875,-0.0018632676219567657,0.0018632676219567657
2008886989762,0.93254154920578,-9.816226959228516,0.8104372620582581,0.01463996060192585,-0.0029279920272529125,0.0010647244052961469
2008888227125,0.9648633003234863,-9.797073364257812,0.811634361743927,0.01889885775744915,-0.0063883461989462376,0.0031941730994731188
2008889464512,0.9265560507774353,-9.84376049041748,0.8319851160049438,0.013309055007994175,-0.0005323622026480734,0.0023956298828125
2008890701887,0.9792284965515137,-9.815030097961426,0.8200140595436096,0.014373779296875,-0.0042588976211845875,0.0015970865497365594
2008891939237,0.9792284965515137,-9.798270225524902,0.8571242094039917,0.0167694091796875,-0.0077192517928779125,0.0037265352439135313
2008893176612,0.993593692779541,-9.838972091674805,0.8379706144332886,0.01410759799182415,-0.00692070834338665,0.0029279920272529125
2008894414012,0.9804255962371826,-9.84256362915039,0.8607155084609985,0.015172322280704975,-0.0053236219100654125,0.0063883461989462376
2008895651362,0.9516952037811279,-9.861717224121094,0.8559271097183228,0.01703559048473835,-0.00931633822619915,0.004791259765625
2008896888712,0.9229647517204285,-9.854534149169922,0.8236054182052612,0.0157046839594841,-0.007985432632267475,0.008517795242369175
2008898126100,0.9564836025238037,-9.8784761428833,0.8451532125473022,0.01357523538172245,-0.005589802749454975,0.0029279920272529125
2008899363462,0.9397241473197937,-9.815030097961426,0.8176198601722717,0.01597086526453495,-0.0039927163161337376,0.0063883461989462376
2008900600850,0.9696516990661621,-9.829395294189453,0.8307880163192749,0.013042873702943325,-0.005589802749454975,0.005589802749454975
2008901838225,0.9672574996948242,-9.859322547912598,0.8212112188339233,0.0119781494140625,-0.012776692397892475,0.0053236219100654125
2008903075600,0.9397241473197937,-9.861717224121094,0.8080430626869202,0.012776692397892475,-0.00984870083630085,0.005589802749454975
2008904312975,0.973242998123169,-9.856928825378418,0.7984662652015686,0.010647243820130825,-0.0090501569211483,0.003460354171693325
2008905550312,0.912190854549408,-9.841365814208984,0.8343793153762817,0.0167694091796875,-0.010381062515079975,0.005057440605014563
2008906787687,0.9133879542350769,-9.847352027893066,0.8020575642585754,0.012776692397892475,-0.008517795242369175,0.0090501569211483
2008908025075,0.950498104095459,-9.835380554199219,0.8224083185195923,0.01171196810901165,-0.0039927163161337376,0.0042588976211845875
2008909262437,0.9469068050384521,-9.84256362915039,0.7948749661445618,0.01224433071911335,-0.00958251953125,0.008517795242369175
2008910499825,0.9397241473197937,-9.830592155456543,0.8379706144332886,0.01357523538172245,-0.0138414166867733,0.0039927163161337376
2008911737187,0.9636662006378174,-9.822212219238281,0.8451532125473022,0.01597086526453495,-0.01410759799182415,0.00931633822619915
2008912974562,0.9816226959228516,-9.86650562286377,0.8331822156906128,0.014373779296875,-0.010913425125181675,0.010114881210029125
2008914211925,0.9373299479484558,-9.824606895446777,0.8367735147476196,0.00984870083630085,-0.010647243820130825,0.008517795242369175
2008915449287,0.9349357485771179,-9.853337287902832,0.8463503122329712,0.010647243820130825,-0.007453070487827063,0.0031941730994731188
2008916686675,0.9050082564353943,-9.829395294189453,0.8403648138046265,0.01650322787463665,-0.01410759799182415,0.0066545275039970875
2008917924050,0.9253589510917664,-9.828198432922363,0.8176198601722717,0.012776692397892475,-0.01836649514734745,0.0063883461989462376
2008919161412,0.912190854549408,-9.84256362915039,0.7829039692878723,0.007453070487827063,-0.012510511092841625,0.006122165359556675
2008920398775,0.9002198576927185,-9.848548889160156,0.8343793153762817,0.007453070487827063,-0.01224433071911335,0.013309055007994175
2008921636150,0.9169792532920837,-9.836577415466309,0.8307880163192749,0.014906140975654125,-0.01996358297765255,0.00931633822619915
2008922873525,0.9983820915222168,-9.817423820495605,0.8439561128616333,0.012510511092841625,-0.014373779296875,0.007453070487827063
2008924110875,0.9157821536064148,-9.852140426635742,0.8547300100326538,0.010647243820130825,-0.0181003138422966,0.010913425125181675
2008925348250,0.9457097053527832,-9.87967300415039,0.8571242094039917,0.00958251953125,-0.01836649514734745,0.0114457868039608
2008926585625,0.9074024558067322,-9.813833236694336,0.8631097078323364,0.013042873702943325,-0.01410759799182415,0.00958251953125
2008927823000,0.9409212470054626,-9.84376049041748,0.8702923059463501,0.0077192517928779125,-0.0119781494140625,0.0063883461989462376
2008929060375,0.9145850539207458,-9.855731010437012,0.8439561128616333,0.0066545275039970875,-0.0138414166867733,0.010114881210029125
2008930297737,0.889445960521698,-9.86889934539795,0.8439561128616333,0.008517795242369175,-0.01410759799182415,0.008251613937318325
2008931535112,0.93254154920578,-9.852140426635742,0.8248025178909302,0.00931633822619915,-0.015172322280704975,0.008251613937318325
2008932772487,0.9576807022094727,-9.825803756713867,0.8271967172622681,0.00958251953125,-0.01783413253724575,0.0114457868039608
2008934009862,0.9253589510917664,-9.828198432922363,0.8738836050033569,0.0090501569211483,-0.01756795309484005,0.00931633822619915
2008935247225,0.9576807022094727,-9.850942611694336,0.8092401623725891,0.00931633822619915,-0.01756795309484005,0.0114457868039608
2008936484600,0.9349357485771179,-9.819818496704102,0.8607155084609985,0.0039927163161337376,-0.01117960549890995,0.0090501569211483
2008937721975,0.933738648891449,-9.817423820495605,0.8403648138046265,0.0063883461989462376,-0.0157046839594841,0.005855984054505825
2008938959337,0.8858546614646912,-9.825803756713867,0.8176198601722717,0.0029279920272529125,-0.0204959437251091,0.01171196810901165
2008940196712,0.9469068050384521,-9.84615421295166,0.8224083185195923,0.0026618109550327063,-0.02315775491297245,0.015438503585755825
2008941434075,0.9409212470054626,-9.856928825378418,0.828393816947937,0.005589802749454975,-0.01756795309484005,0.01171196810901165
2008942671462,0.8846575617790222,-9.84495735168457,0.8451532125473022,0.006122165359556675,-0.01943122036755085,0.014373779296875
2008943908837,0.9157821536064148,-9.841365814208984,0.8415619134902954,0.004791259765625,-0.01889885775744915,0.01463996060192585
2008945146212,0.9038111567497253,-9.850942611694336,0.8044517636299133,0.0077192517928779125,-0.0210283063352108,0.014906140975654125
2008946383575,0.9205705523490906,-9.876082420349121,0.828393816947937,0.010381062515079975,-0.0234239362180233,0.0167694091796875
2008947620937,0.9528923034667969,-9.824606895446777,0.8008604645729065,0.0071868896484375,-0.01597086526453495,0.00931633822619915
2008948858325,0.9241618514060974,-9.829395294189453,0.8367735147476196,0.005589802749454975,-0.0167694091796875,0.01410759799182415
2008950095687,0.9457097053527832,-9.84376049041748,0.8259996175765991,0.0039927163161337376,-0.02182685025036335,0.0138414166867733
2008951333062,0.9217676520347595,-9.84256362915039,0.8104372620582581,0.006122165359556675,-0.02076212503015995,0.013309055007994175
2008952570425,0.9050082564353943,-9.8784761428833,0.8846575617790222,0.0039927163161337376,-0.0215606689453125,0.01357523538172245
2008953807787,0.9169792532920837,-9.858125686645508,0.8212112188339233,0.0090501569211483,-0.02262539230287075,0.015172322280704975
2008955045162,0.9241618514060974,-9.84615421295166,0.8619126081466675,0.008517795242369175,-0.02182685025036335,0.014906140975654125
2008956282537,0.9074024558067322,-9.86650562286377,0.829590916633606,0.0053236219100654125,-0.0204959437251091,0.0114457868039608
2008957519925,0.8954314589500427,-9.90361499786377,0.8523358106613159,0.005589802749454975,-0.02076212503015995,0.0173017717897892
2008958757262,0.8942343592643738,-9.862914085388184,0.8212112188339233,0.0063883461989462376,-0.02315775491297245,0.01650322787463665
2008959994650,0.9540894031524658,-9.890447616577148,0.7972691655158997,0.0037265352439135313,-0.0181003138422966,0.0162370465695858
2008961232025,0.8858546614646912,-9.856928825378418,0.7553706169128418,0.00692070834338665,-0.01703559048473835,0.01357523538172245
2008962469412,0.888248860836029,-9.855731010437012,0.8104372620582581,0.0042588976211845875,-0.0228915736079216,0.0114457868039608
2008963706762,0.9600749015808105,-9.872490882873535,0.8259996175765991,0.0029279920272529125,-0.01889885775744915,0.01889885775744915
2008964944150,0.9433155059814453,-9.871294021606445,0.829590916633606,0.0039927163161337376,-0.0223592109978199,0.01943122036755085
2008966181500,0.9349357485771179,-9.84376049041748,0.812831461429596,0.005855984054505825,-0.0244886614382267,0.01410759799182415
2008967418887,0.9313444495201111,-9.831789016723633,0.8463503122329712,0.0021294488105922937,-0.02182685025036335,0.013042873702943325
2008968656237,0.93254154920578,-9.865307807922363,0.8212112188339233,0.0039927163161337376,-0.0263519287109375,0.01996358297765255
2008969893625,0.9301473498344421,-9.828198432922363,0.8379706144332886,0.0071868896484375,-0.0234239362180233,0.01463996060192585
2008971131000,0.9169792532920837,-9.849745750427246,0.8487445116043091,0.0090501569211483,-0.0228915736079216,0.01783413253724575
2008972368362,0.9373299479484558,-9.852140426635742,0.8667010068893433,0.005589802749454975,-0.0191650390625,0.0173017717897892
2008973605737,0.94930100440979,-9.838972091674805,0.8020575642585754,0.0023956298828125,-0.0173017717897892,0.0138414166867733
2008974843112,0.912190854549408,-9.780314445495605,0.8738836050033569,0.0053236219100654125,-0.0244886614382267,0.02022976242005825
2008976080475,0.9145850539207458,-9.84615421295166,0.8643068075180054,0.0090501569211483,-0.02741665206849575,0.0173017717897892
2008977317850,0.9229647517204285,-9.84615421295166,0.8403648138046265,0.00692070834338665,-0.02369011752307415,0.0173017717897892
2008978555237,0.8858546614646912,-9.822212219238281,0.7996633648872375,0.00452507846057415,-0.02262539230287075,0.0196974016726017
2008979792600,0.9157821536064148,-9.807847023010254,0.8427590131759644,0.0031941730994731188,-0.0268842913210392,0.01650322787463665
2008981029962,0.9038111567497253,-9.862914085388184,0.8547300100326538,0.0066545275039970875,-0.02794901467859745,0.01889885775744915
2008982267350,0.9145850539207458,-9.858125686645508,0.8655039072036743,0.0063883461989462376,-0.0220930315554142,0.0210283063352108
2008983504700,0.9169792532920837,-9.837775230407715,0.8427590131759644,0.005057440605014563,-0.0258195661008358,0.0196974016726017
2008984742075,0.8834604620933533,-9.849745750427246,0.8451532125473022,0.004791259765625,-0.0234239362180233,0.0220930315554142
2008985979437,0.93254154920578,-9.86650562286377,0.790086567401886,0.0002661811013240367,-0.0220930315554142,0.0196974016726017
2008987216812,0.8834604620933533,-9.890447616577148,0.8475474119186401,0.0031941730994731188,-0.0191650390625,0.01783413253724575
2008988454187,0.9217676520347595,-9.861717224121094,0.7805097699165344,-0.0005323622026480734,-0.02182685025036335,0.02182685025036335
2008989691562,0.8990227580070496,-9.828198432922363,0.8379706144332886,0.0010647244052961469,-0.0263519287109375,0.0223592109978199
2008990928925,0.9097966551780701,-9.80904483795166,0.8224083185195923,0.003460354171693325,-0.02422248013317585,0.023956298828125
2008992166300,0.9181763529777527,-9.84376049041748,0.8439561128616333,0.0013309054775163531,-0.0204959437251091,0.02502102218568325
2008993403662,0.9205705523490906,-9.824606895446777,0.8439561128616333,0.00452507846057415,-0.0157046839594841,0.0204959437251091
2008994641050,0.8798691034317017,-9.848548889160156,0.8259996175765991,-0.0010647244052961469,-0.023956298828125,0.02315775491297245
2008995878425,0.8750807046890259,-9.84256362915039,0.811634361743927,0.0026618109550327063,-0.02369011752307415,0.0258195661008358
2008997115787,0.9253589510917664,-9.852140426635742,0.7960720658302307,0.0039927163161337376,-0.02369011752307415,0.0215606689453125
2008998353175,0.8846575617790222,-9.872490882873535,0.8559271097183228,-0.0021294488105922937,-0.0244886614382267,0.0196974016726017
2008999590537,0.889445960521698,-9.838972091674805,0.8427590131759644,0.0013309054775163531,-0.0167694091796875,0.01889885775744915
2009000827925,0.8583213090896606,-9.862914085388184,0.8762778043746948,-0.0002661811013240367,-0.01943122036755085,0.023956298828125
2009002065275,0.8619126081466675,-9.877279281616211,0.8535329103469849,-0.0053236219100654125,-0.02422248013317585,0.0234239362180233
2009003302650,0.9181763529777527,-9.877279281616211,0.8188169598579407,-0.0010647244052961469,-0.0181003138422966,0.02608574740588665
2009004540000,0.871489405632019,-9.849745750427246,0.8343793153762817,0.0010647244052961469,-0.02129448764026165,0.02874755859375
2009005777400,0.8690952062606812,-9.848548889160156,0.8188169598579407,0.0015970865497365594,-0.02129448764026165,0.0247548408806324
2009007014775,0.8403648138046265,-9.870096206665039,0.8463503122329712,-0.0007985432748682797,-0.023956298828125,0.01943122036755085
2009008252125,0.889445960521698,-9.862914085388184,0.8212112188339233,-0.0042588976211845875,-0.02608574740588665,0.0186326764523983
2009009489512,0.8750807046890259,-9.870096206665039,0.8188169598579407,-0.0018632676219567657,-0.0196974016726017,0.0244886614382267
2009010726887,0.8631097078323364,-9.883264541625977,0.8643068075180054,0.0010647244052961469,-0.0210283063352108,0.02315775491297245
2009011964250,0.871489405632019,-9.86650562286377,0.849941611289978,-0.0018632676219567657,-0.0220930315554142,0.02502102218568325
2009013201625,0.8798691034317017,-9.793481826782227,0.811634361743927,-0.004791259765625,-0.0173017717897892,0.0271504707634449
2009014438987,0.8702923059463501,-9.856928825378418,0.8786720037460327,-0.00452507846057415,-0.01836649514734745,0.02555338479578495
2009015676362,0.8415619134902954,-9.831789016723633,0.8415619134902954,-0.0031941730994731188,-0.02369011752307415,0.02422248013317585
2009016913737,0.8750807046890259,-9.841365814208984,0.8343793153762817,0.0002661811013240367,-0.02022976242005825,0.02555338479578495
2009018151112,0.8942343592643738,-9.860519409179688,0.8164227604866028,-0.0026618109550327063,-0.0204959437251091,0.02315775491297245
2009019388475,0.8571242094039917,-9.850942611694336,0.8259996175765991,-0.0021294488105922937,-0.0204959437251091,0.023956298828125
2009020625862,0.888248860836029,-9.831789016723633,0.829590916633606,-0.0042588976211845875,-0.0191650390625,0.0282151959836483
2009021863237,0.871489405632019,-9.86889934539795,0.7864952683448792,-0.0015970865497365594,-0.01703559048473835,0.0276828333735466
2009023100600,0.9074024558067322,-9.829395294189453,0.8451532125473022,-0.0007985432748682797,-0.0234239362180233,0.0343373604118824
2009024337950,0.8690952062606812,-9.86770248413086,0.8355764150619507,-0.006122165359556675,-0.0228915736079216,0.02794901467859745
2009025575337,0.8822633624076843,-9.888052940368652,0.8355764150619507,-0.008251613937318325,-0.0234239362180233,0.0271504707634449
2009026812712,0.8355764150619507,-9.822212219238281,0.828393816947937,-0.00452507846057415,-0.02182685025036335,0.0234239362180233
2009028050075,0.8690952062606812,-9.871294021606445,0.8176198601722717,0.0007985432748682797,-0.01943122036755085,0.02981228195130825
2009029287462,0.8738836050033569,-9.848548889160156,0.7721300721168518,-0.004791259765625,-0.01836649514734745,0.0292799212038517
2009030524825,0.8535329103469849,-9.831789016723633,0.7864952683448792,-0.005057440605014563,-0.0234239362180233,0.0282151959836483
2009031762200,0.8702923059463501,-9.859322547912598,0.8331822156906128,-0.0023956298828125,-0.0234239362180233,0.0340711809694767
2009032999562,0.8846575617790222,-9.86889934539795,0.8307880163192749,-0.006122165359556675,-0.0210283063352108,0.0311431884765625
2009034236937,0.8391677141189575,-9.84615421295166,0.8331822156906128,-0.005589802749454975,-0.0191650390625,0.0314093679189682
2009035474312,0.8607155084609985,-9.84256362915039,0.8032546639442444,-0.0005323622026480734,-0.02022976242005825,0.0282151959836483
2009036711687,0.8774749040603638,-9.885659217834473,0.8271967172622681,-0.007453070487827063,-0.02129448764026165,0.0220930315554142
2009037949062,0.828393816947937,-9.870096206665039,0.8152256608009338,-0.007453070487827063,-0.0186326764523983,0.0228915736079216
2009039186425,0.851138710975647,-9.874884605407715,0.811634361743927,-0.0042588976211845875,-0.01463996060192585,0.0292799212038517
2009040423775,0.8678981065750122,-9.852140426635742,0.8080430626869202,-0.0090501569211483,-0.0138414166867733,0.0282151959836483
2009041661162,0.812831461429596,-9.858125686645508,0.7984662652015686,-0.008783976547420025,-0.0157046839594841,0.0324740931391716
2009042898537,0.8403648138046265,-9.84376049041748,0.8427590131759644,-0.010913425125181675,-0.014373779296875,0.02848137728869915
2009044135912,0.8200140595436096,-9.837775230407715,0.8248025178909302,-0.0077192517928779125,-0.01996358297765255,0.0314093679189682
2009045373287,0.8439561128616333,-9.835380554199219,0.8559271097183228,-0.0063883461989462376,-0.0220930315554142,0.0324740931391716
2009046610662,0.8080430626869202,-9.884461402893066,0.8080430626869202,-0.004791259765625,-0.0204959437251091,0.0324740931391716
2009047848012,0.8379706144332886,-9.817423820495605,0.7972691655158997,-0.0026618109550327063,-0.013042873702943325,0.02661811001598835
2009049085400,0.8810662031173706,-9.821015357971191,0.8391677141189575,-0.0063883461989462376,-0.01171196810901165,0.0306108258664608
2009050322762,0.8403648138046265,-9.858125686645508,0.8427590131759644,-0.00452507846057415,-0.01357523538172245,0.0343373604118824
2009051560137,0.8259996175765991,-9.815030097961426,0.8140285611152649,-0.0026618109550327063,-0.0167694091796875,0.0276828333735466
2009052797512,0.8403648138046265,-9.81263542175293,0.8355764150619507,-0.0077192517928779125,-0.012776692397892475,0.02608574740588665
2009054034887,0.8319851160049438,-9.86770248413086,0.8559271097183228,-0.0066545275039970875,-0.01463996060192585,0.0343373604118824
2009055272250,0.9026140570640564,-9.822212219238281,0.8164227604866028,-0.00958251953125,-0.01703559048473835,0.0362006276845932
2009056509637,0.8475474119186401,-9.801861763000488,0.8092401623725891,-0.008517795242369175,-0.01650322787463665,0.0314093679189682
2009057747000,0.8427590131759644,-9.840168952941895,0.7912836670875549,-0.010913425125181675,-0.01410759799182415,0.02901373989880085
2009058984375,0.8391677141189575,-9.830592155456543,0.8164227604866028,-0.010381062515079975,-0.012776692397892475,0.0311431884765625
2009060221737,0.8487445116043091,-9.859322547912598,0.8188169598579407,-0.007985432632267475,-0.0162370465695858,0.0268842913210392
2009061459100,0.8248025178909302,-9.824606895446777,0.8056488633155823,-0.0077192517928779125,-0.015172322280704975,0.0343373604118824
2009062696487,0.8248025178909302,-9.84256362915039,0.8403648138046265,-0.008783976547420025,-0.01171196810901165,0.0330064557492733
2009063933862,0.8427590131759644,-9.855731010437012,0.8020575642585754,-0.006122165359556675,-0.01117960549890995,0.0295461006462574
2009065171225,0.851138710975647,-9.825803756713867,0.8152256608009338,-0.005855984054505825,-0.01224433071911335,0.0330064557492733
2009066408587,0.871489405632019,-9.819818496704102,0.8008604645729065,-0.0029279920272529125,-0.01650322787463665,0.03034464456140995
2009067645975,0.8248025178909302,-9.821015357971191,0.7948749661445618,-0.0023956298828125,-0.012776692397892475,0.033272635191679
2009068883350,0.8343793153762817,-9.81024169921875,0.7948749661445618,-0.004791259765625,-0.00931633822619915,0.02794901467859745
2009070120725,0.8391677141189575,-9.828198432922363,0.7721300721168518,-0.010114881210029125,-0.015438503585755825,0.02848137728869915
2009071358075,0.7960720658302307,-9.805453300476074,0.8068459630012512,-0.01171196810901165,-0.0173017717897892,0.02608574740588665
2009072595462,0.8583213090896606,-9.824606895446777,0.7876923680305481,-0.006122165359556675,-0.010114881210029125,0.0282151959836483
2009073832825,0.8212112188339233,-9.801861763000488,0.7972691655158997,-0.005057440605014563,-0.0066545275039970875,0.0258195661008358
2009075070212,0.8259996175765991,-9.804256439208984,0.8056488633155823,-0.0114457868039608,-0.0090501569211483,0.02608574740588665
2009076307600,0.8008604645729065,-9.77672290802002,0.8080430626869202,-0.0090501569211483,-0.010381062515079975,0.0271504707634449
2009077544962,0.7948749661445618,-9.838972091674805,0.8020575642585754,-0.010381062515079975,-0.010114881210029125,0.0300784632563591
2009078782312,0.8319851160049438,-9.816226959228516,0.8056488633155823,-0.007453070487827063,-0.014373779296875,0.0314093679189682
2009080019687,0.8463503122329712,-9.821015357971191,0.8259996175765991,-0.008251613937318325,-0.010381062515079975,0.0346035435795784
2009081257062,0.8619126081466675,-9.832986831665039,0.750582218170166,-0.007985432632267475,-0.005589802749454975,0.0295461006462574
2009082494450,0.8343793153762817,-9.880870819091797,0.788889467716217,-0.0077192517928779125,-0.0077192517928779125,0.0319417305290699
2009083731800,0.8056488633155823,-9.813833236694336,0.828393816947937,-0.010114881210029125,-0.007453070487827063,0.02981228195130825
2009084969187,0.7936778664588928,-9.799468040466309,0.828393816947937,-0.012776692397892475,-0.007453070487827063,0.03034464456140995
2009086206562,0.8607155084609985,-9.805453300476074,0.788889467716217,-0.008517795242369175,-0.0031941730994731188,0.02874755859375
2009087443912,0.7876923680305481,-9.858125686645508,0.7984662652015686,-0.0063883461989462376,-0.007985432632267475,0.0263519287109375
2009088681300,0.8667010068893433,-9.817423820495605,0.812831461429596,-0.0039927163161337376,-0.00984870083630085,0.0306108258664608
2009089918675,0.8080430626869202,-9.828198432922363,0.8176198601722717,-0.01117960549890995,-0.006122165359556675,0.0306108258664608
2009091156037,0.8427590131759644,-9.815030097961426,0.8092401623725891,-0.00692070834338665,-0.008517795242369175,0.02874755859375
2009092393412,0.8032546639442444,-9.836577415466309,0.7924807667732239,-0.0071868896484375,-0.007985432632267475,0.0338049978017807
2009093630775,0.7996633648872375,-9.837775230407715,0.7972691655158997,-0.007985432632267475,-0.00692070834338665,0.0292799212038517
2009094868162,0.8403648138046265,-9.832986831665039,0.7984662652015686,-0.0114457868039608,-0.0071868896484375,0.0292799212038517
2009096105525,0.8080430626869202,-9.819818496704102,0.8080430626869202,-0.006122165359556675,-0.0090501569211483,0.0314093679189682
2009097342900,0.8152256608009338,-9.813833236694336,0.8200140595436096,-0.006122165359556675,-0.00692070834338665,0.0319417305290699
2009098580250,0.8212112188339233,-9.847352027893066,0.8367735147476196,-0.006122165359556675,-0.003460354171693325,0.0271504707634449
2009099817650,0.8008604645729065,-9.858125686645508,0.7841010689735413,-0.010381062515079975,-0.0023956298828125,0.02555338479578495
2009101055025,0.8439561128616333,-9.834183692932129,0.7529764175415039,-0.01171196810901165,0.0018632676219567657,0.02848137728869915
2009102292387,0.8319851160049438,-9.831789016723633,0.8068459630012512,-0.008783976547420025,-0.0002661811013240367,0.02741665206849575
2009103529750,0.829590916633606,-9.80904483795166,0.8176198601722717,-0.0066545275039970875,-0.0031941730994731188,0.02848137728869915
2009104767137,0.751779317855835,-9.807847023010254,0.8092401623725891,-0.0071868896484375,-0.0013309054775163531,0.03087700717151165
2009106004512,0.8044517636299133,-9.825803756713867,0.8176198601722717,-0.0077192517928779125,-0.0037265352439135313,0.01889885775744915
2009107241875,0.8152256608009338,-9.805453300476074,0.7852981686592102,-0.008783976547420025,-0.0015970865497365594,0.0228915736079216
2009108479237,0.7972691655158997,-9.823410034179688,0.8331822156906128,-0.0114457868039608,-0.0021294488105922937,0.02608574740588665
2009109716637,0.8271967172622681,-9.825803756713867,0.8451532125473022,-0.00958251953125,-0.0007985432748682797,0.02555338479578495
2009110954000,0.829590916633606,-9.77791976928711,0.811634361743927,-0.01783413253724575,-0.0021294488105922937,0.02422248013317585
2009112191350,0.8152256608009338,-9.823410034179688,0.7817068696022034,-0.012776692397892475,-0.0029279920272529125,0.02608574740588665
2009113428737,0.8427590131759644,-9.825803756713867,0.8236054182052612,-0.0071868896484375,-0.0063883461989462376,0.0215606689453125
2009114666100,0.7984662652015686,-9.813833236694336,0.7936778664588928,-0.0077192517928779125,-0.0031941730994731188,0.02422248013317585
2009115903462,0.8152256608009338,-9.829395294189453,0.7960720658302307,-0.00984870083630085,0.0,0.0228915736079216
2009117140850,0.8583213090896606,-9.827000617980957,0.7876923680305481,-0.00958251953125,0.0026618109550327063,0.0276828333735466
2009118378212,0.812831461429596,-9.799468040466309,0.7733271718025208,-0.005855984054505825,-0.0023956298828125,0.0300784632563591
2009119615612,0.7960720658302307,-9.789891242980957,0.7709329724311829,-0.0031941730994731188,-0.006122165359556675,0.0234239362180233
2009120852962,0.8236054182052612,-9.832986831665039,0.7852981686592102,-0.003460354171693325,-0.003460354171693325,0.0210283063352108
2009122090337,0.8307880163192749,-9.805453300476074,0.7924807667732239,-0.0037265352439135313,-0.0007985432748682797,0.0223592109978199
2009123327712,0.8487445116043091,-9.815030097961426,0.8271967172622681,-0.005057440605014563,-0.0015970865497365594,0.0234239362180233
2009124565075,0.8619126081466675,-9.807847023010254,0.8415619134902954,-0.0039927163161337376,0.0005323622026480734,0.02369011752307415
2009125802450,0.8236054182052612,-9.823410034179688,0.788889467716217,-0.0063883461989462376,0.0007985432748682797,0.02022976242005825
2009127039825,0.8535329103469849,-9.805453300476074,0.8379706144332886,-0.0037265352439135313,0.0007985432748682797,0.01836649514734745
2009128277200,0.8176198601722717,-9.794679641723633,0.8212112188339233,-0.003460354171693325,-0.0005323622026480734,0.0215606689453125
2009129514562,0.8176198601722717,-9.795876502990723,0.811634361743927,-0.005057440605014563,-0.0010647244052961469,0.0244886614382267
2009130751950,0.8068459630012512,-9.81143856048584,0.788889467716217,-0.0031941730994731188,0.0018632676219567657,0.0210283063352108
2009131989325,0.8056488633155823,-9.831789016723633,0.8092401623725891,-0.008251613937318325,0.005855984054505825,0.01756795309484005
2009133226700,0.8271967172622681,-9.78869342803955,0.8319851160049438,-0.0063883461989462376,0.0066545275039970875,0.0157046839594841
2009134464050,0.8343793153762817,-9.799468040466309,0.8319851160049438,-0.004791259765625,-0.0023956298828125,0.01703559048473835
2009135701412,0.8535329103469849,-9.770737648010254,0.8140285611152649,-0.00692070834338665,0.0005323622026480734,0.01410759799182415
2009136938800,0.8200140595436096,-9.80904483795166,0.812831461429596,-0.005589802749454975,0.004791259765625,0.012776692397892475
2009138176187,0.7852981686592102,-9.797073364257812,0.8092401623725891,0.0002661811013240367,0.0018632676219567657,0.01836649514734745
2009139413550,0.828393816947937,-9.804256439208984,0.8224083185195923,-0.0023956298828125,-0.0002661811013240367,0.01357523538172245
2009140650912,0.8092401623725891,-9.793481826782227,0.8104372620582581,-0.0029279920272529125,0.0026618109550327063,0.012510511092841625
2009141888287,0.790086567401886,-9.768342971801758,0.8056488633155823,-0.0018632676219567657,0.0007985432748682797,0.02129448764026165
2009143125662,0.8224083185195923,-9.807847023010254,0.8020575642585754,-0.0026618109550327063,0.0018632676219567657,0.0186326764523983
2009144363037,0.8068459630012512,-9.804256439208984,0.7948749661445618,-0.0015970865497365594,0.0071868896484375,0.015172322280704975
2009145600412,0.7960720658302307,-9.77672290802002,0.8008604645729065,0.0,0.0018632676219567657,0.013042873702943325
2009146837787,0.812831461429596,-9.799468040466309,0.7601590752601624,-0.0010647244052961469,-0.0013309054775163531,0.0191650390625
2009148075137,0.8140285611152649,-9.781511306762695,0.7984662652015686,-0.0002661811013240367,0.0031941730994731188,0.01889885775744915
2009149312525,0.8212112188339233,-9.774328231811523,0.7841010689735413,-0.0002661811013240367,0.00692070834338665,0.01889885775744915
2009150549900,0.7817068696022034,-9.804256439208984,0.7709329724311829,-0.0015970865497365594,0.0002661811013240367,0.0138414166867733
2009151787275,0.8188169598579407,-9.787496566772461,0.7625532746315002,-0.0018632676219567657,-0.0018632676219567657,0.01357523538172245
2009153024625,0.7984662652015686,-9.798270225524902,0.8080430626869202,0.0021294488105922937,0.007985432632267475,0.014373779296875
2009154262000,0.812831461429596,-9.822212219238281,0.8415619134902954,0.0005323622026480734,0.00931633822619915,0.014906140975654125
2009155499375,0.8236054182052612,-9.797073364257812,0.8319851160049438,-0.0037265352439135313,0.0037265352439135313,0.0119781494140625
2009156736750,0.828393816947937,-9.801861763000488,0.8092401623725891,-0.0018632676219567657,0.0010647244052961469,0.00931633822619915
2009157974137,0.8643068075180054,-9.794679641723633,0.8008604645729065,-0.0031941730994731188,0.0039927163161337376,0.00931633822619915
2009159211500,0.8092401623725891,-9.822212219238281,0.7936778664588928,0.0021294488105922937,0.0042588976211845875,0.01117960549890995
2009160448862,0.8248025178909302,-9.801861763000488,0.8224083185195923,0.0026618109550327063,0.005589802749454975,0.014373779296875
2009161686237,0.790086567401886,-9.828198432922363,0.7972691655158997,0.0015970865497365594,0.0023956298828125,0.01597086526453495
2009162923612,0.7936778664588928,-9.807847023010254,0.7721300721168518,0.0015970865497365594,0.004791259765625,0.012776692397892475
2009164161000,0.8271967172622681,-9.837775230407715,0.8152256608009338,0.0018632676219567657,0.0039927163161337376,0.0138414166867733
2009165398362,0.8307880163192749,-9.805453300476074,0.8044517636299133,0.0031941730994731188,-0.00452507846057415,0.014373779296875
2009166635762,0.8379706144332886,-9.835380554199219,0.7661445736885071,0.003460354171693325,0.0026618109550327063,0.01357523538172245
2009167873100,0.8140285611152649,-9.816226959228516,0.8200140595436096,0.0,0.005855984054505825,0.01171196810901165
2009169110462,0.7972691655158997,-9.787496566772461,0.8068459630012512,0.003460354171693325,0.003460354171693325,0.00958251953125
2009170347875,0.8164227604866028,-9.781511306762695,0.7661445736885071,0.003460354171693325,0.0042588976211845875,0.010913425125181675
2009171585225,0.8164227604866028,-9.828198432922363,0.8080430626869202,0.00452507846057415,0.0026618109550327063,0.0114457868039608
2009172822600,0.811634361743927,-9.861717224121094,0.8379706144332886,0.0031941730994731188,0.003460354171693325,0.013042873702943325
2009174059975,0.8176198601722717,-9.77672290802002,0.8200140595436096,0.003460354171693325,0.0063883461989462376,0.01650322787463665
2009175297362,0.7996633648872375,-9.819818496704102,0.7960720658302307,0.0023956298828125,0.0023956298828125,0.010647243820130825
2009176534725,0.8212112188339233,-9.816226959228516,0.8080430626869202,0.008251613937318325,0.003460354171693325,0.00958251953125
2009177772075,0.8032546639442444,-9.817423820495605,0.8020575642585754,0.0037265352439135313,0.00452507846057415,0.007985432632267475
2009179009450,0.8092401623725891,-9.816226959228516,0.7781155705451965,0.007985432632267475,0.0071868896484375,0.0077192517928779125
2009180246812,0.8403648138046265,-9.828198432922363,0.7793126702308655,0.003460354171693325,0.01117960549890995,0.0090501569211483
2009181484200,0.8224083185195923,-9.815030097961426,0.8140285611152649,0.0023956298828125,0.0053236219100654125,0.0023956298828125
2009182721575,0.8164227604866028,-9.822212219238281,0.8068459630012512,0.0029279920272529125,0.005589802749454975,0.007985432632267475
2009183958950,0.7709329724311829,-9.824606895446777,0.8583213090896606,0.0007985432748682797,0.007453070487827063,0.0066545275039970875
2009185196325,0.811634361743927,-9.81263542175293,0.790086567401886,0.003460354171693325,0.004791259765625,0.0021294488105922937
2009186433687,0.8176198601722717,-9.86770248413086,0.8176198601722717,0.005589802749454975,0.0037265352439135313,0.0031941730994731188
2009187671062,0.8020575642585754,-9.860519409179688,0.7984662652015686,0.0023956298828125,0.0071868896484375,0.0002661811013240367
2009188908437,0.7924807667732239,-9.805453300476074,0.8020575642585754,0.00452507846057415,0.007985432632267475,0.0021294488105922937
2009190145812,0.7984662652015686,-9.799468040466309,0.7924807667732239,0.005057440605014563,0.010381062515079975,0.00692070834338665
2009191383175,0.8008604645729065,-9.803058624267578,0.8164227604866028,0.00452507846057415,0.0114457868039608,0.0042588976211845875
2009192620537,0.7709329724311829,-9.813833236694336,0.7398083209991455,0.007985432632267475,0.0071868896484375,0.0015970865497365594
2009193857912,0.8032546639442444,-9.801861763000488,0.8056488633155823,0.0071868896484375,0.0066545275039970875,0.0031941730994731188
2009195095300,0.8367735147476196,-9.803058624267578,0.7948749661445618,0.0037265352439135313,0.0071868896484375,0.003460354171693325
2009196332662,0.8379706144332886,-9.7791166305542,0.812831461429596,0.003460354171693325,0.0077192517928779125,-0.0015970865497365594
2009197570037,0.8068459630012512,-9.819818496704102,0.8451532125473022,-0.0002661811013240367,0.007453070487827063,0.0007985432748682797
2009198807412,0.8044517636299133,-9.800664901733398,0.8475474119186401,0.0042588976211845875,0.00984870083630085,0.0021294488105922937
2009200044787,0.8583213090896606,-9.795876502990723,0.812831461429596,0.0063883461989462376,0.010381062515079975,0.0015970865497365594
2009201282150,0.8667010068893433,-9.827000617980957,0.7805097699165344,0.0053236219100654125,0.008783976547420025,0.0002661811013240367
2009202519512,0.7757213711738586,-9.801861763000488,0.7805097699165344,0.0053236219100654125,0.0071868896484375,-0.0007985432748682797
2009203756900,0.8224083185195923,-9.807847023010254,0.7565677165985107,0.0026618109550327063,0.014373779296875,0.0042588976211845875
2009204994287,0.8307880163192749,-9.798270225524902,0.7996633648872375,0.0026618109550327063,0.012510511092841625,0.0037265352439135313
2009206231637,0.8475474119186401,-9.782708168029785,0.8271967172622681,0.005855984054505825,0.00984870083630085,-0.0010647244052961469
2009207469012,0.8319851160049438,-9.7791166305542,0.8068459630012512,0.005589802749454975,0.010647243820130825,0.0037265352439135313
2009208706387,0.8595184087753296,-9.780314445495605,0.7769184708595276,0.006122165359556675,0.01224433071911335,0.0
2009209943750,0.8379706144332886,-9.774328231811523,0.8355764150619507,0.008251613937318325,0.010913425125181675,-0.0007985432748682797
2009211181125,0.8080430626869202,-9.821015357971191,0.7972691655158997,0.0053236219100654125,0.010114881210029125,0.0018632676219567657
2009212418487,0.8738836050033569,-9.817423820495605,0.8319851160049438,0.008517795242369175,0.010381062515079975,-0.005057440605014563
2009213655875,0.8702923059463501,-9.827000617980957,0.8319851160049438,0.010381062515079975,0.0042588976211845875,-0.0042588976211845875
2009214893250,0.7876923680305481,-9.77791976928711,0.8271967172622681,0.0053236219100654125,0.00984870083630085,0.0023956298828125
2009216130625,0.7960720658302307,-9.780314445495605,0.8008604645729065,0.005589802749454975,0.012776692397892475,0.0023956298828125
2009217367987,0.7697358727455139,-9.782708168029785,0.7852981686592102,0.006122165359556675,0.0090501569211483,0.0013309054775163531
2009218605362,0.8331822156906128,-9.81143856048584,0.8080430626869202,0.00984870083630085,0.0114457868039608,-0.0013309054775163531
2009219842737,0.8391677141189575,-9.789891242980957,0.8032546639442444,0.0077192517928779125,0.00958251953125,-0.00452507846057415
2009221080112,0.812831461429596,-9.798270225524902,0.767341673374176,0.010647243820130825,0.005855984054505825,-0.0010647244052961469
2009222317500,0.7960720658302307,-9.77672290802002,0.812831461429596,0.008517795242369175,0.0077192517928779125,0.0
2009223554862,0.8200140595436096,-9.813833236694336,0.7805097699165344,0.007985432632267475,0.01224433071911335,-0.0039927163161337376
2009224792212,0.8176198601722717,-9.805453300476074,0.812831461429596,0.005855984054505825,0.0162370465695858,-0.0042588976211845875
2009226029575,0.8271967172622681,-9.828198432922363,0.8224083185195923,0.00452507846057415,0.010913425125181675,0.0002661811013240367
2009227266962,0.8104372620582581,-9.847352027893066,0.8164227604866028,0.008251613937318325,0.01117960549890995,0.0018632676219567657
2009228504350,0.8248025178909302,-9.853337287902832,0.8188169598579407,0.01117960549890995,0.0114457868039608,-0.0039927163161337376
2009229741712,0.8439561128616333,-9.850942611694336,0.790086567401886,0.012776692397892475,0.00931633822619915,-0.005855984054505825
2009230979100,0.8092401623725891,-9.837775230407715,0.828393816947937,0.014373779296875,0.00984870083630085,-0.004791259765625
2009232216462,0.8044517636299133,-9.86650562286377,0.8355764150619507,0.010647243820130825,0.012776692397892475,0.0002661811013240367
2009233453825,0.8523358106613159,-9.803058624267578,0.8367735147476196,0.008517795242369175,0.01357523538172245,0.0002661811013240367
2009234691200,0.8200140595436096,-9.870096206665039,0.8008604645729065,0.010381062515079975,0.012510511092841625,-0.0013309054775163531
2009235928562,0.8056488633155823,-9.858125686645508,0.7697358727455139,0.010913425125181675,0.014373779296875,-0.0015970865497365594
2009237165950,0.8307880163192749,-9.84495735168457,0.7996633648872375,0.0037265352439135313,0.014906140975654125,0.0007985432748682797
2009238403312,0.7841010689735413,-9.832986831665039,0.790086567401886,0.00452507846057415,0.00984870083630085,0.00452507846057415
2009239640687,0.8259996175765991,-9.824606895446777,0.812831461429596,0.010381062515079975,0.010114881210029125,0.0053236219100654125
2009240878062,0.8140285611152649,-9.84495735168457,0.828393816947937,0.00692070834338665,0.0138414166867733,0.0015970865497365594
2009242115437,0.829590916633606,-9.859322547912598,0.7876923680305481,0.010114881210029125,0.010913425125181675,-0.0007985432748682797
2009243352812,0.811634361743927,-9.819818496704102,0.8080430626869202,0.0063883461989462376,0.01357523538172245,-0.0037265352439135313
2009244590187,0.8080430626869202,-9.806650161743164,0.8367735147476196,0.0039927163161337376,0.01224433071911335,-0.0018632676219567657
2009245827550,0.8331822156906128,-9.827000617980957,0.8056488633155823,0.0071868896484375,0.01463996060192585,0.0013309054775163531
2009247064937,0.8523358106613159,-9.84495735168457,0.7912836670875549,0.0013309054775163531,0.014906140975654125,0.0005323622026480734
2009248302300,0.8523358106613159,-9.81024169921875,0.8307880163192749,0.005057440605014563,0.0162370465695858,-0.005589802749454975
2009249539675,0.829590916633606,-9.829395294189453,0.8403648138046265,0.0042588976211845875,0.0196974016726017,-0.0007985432748682797
2009250777037,0.8188169598579407,-9.834183692932129,0.8212112188339233,0.006122165359556675,0.008251613937318325,-0.0039927163161337376
2009252014412,0.812831461429596,-9.806650161743164,0.8164227604866028,0.007985432632267475,0.01117960549890995,-0.006122165359556675
2009253251787,0.8583213090896606,-9.818621635437012,0.8439561128616333,0.0002661811013240367,0.0162370465695858,-0.004791259765625
2009254489150,0.8702923059463501,-9.816226959228516,0.8248025178909302,0.0037265352439135313,0.0181003138422966,-0.004791259765625
2009255726525,0.8008604645729065,-9.821015357971191,0.7984662652015686,0.0053236219100654125,0.014373779296875,-0.0053236219100654125
2009256963912,0.8271967172622681,-9.783905029296875,0.8200140595436096,0.0090501569211483,0.0191650390625,0.0002661811013240367
2009258201262,0.8463503122329712,-9.821015357971191,0.8427590131759644,0.010381062515079975,0.0167694091796875,-0.0010647244052961469
2009259438637,0.8068459630012512,-9.819818496704102,0.8307880163192749,0.0029279920272529125,0.013042873702943325,-0.0029279920272529125
2009260676025,0.8259996175765991,-9.865307807922363,0.7936778664588928,0.004791259765625,0.015438503585755825,-0.0010647244052961469
2009261913387,0.829590916633606,-9.834183692932129,0.768538773059845,0.0037265352439135313,0.0223592109978199,-0.0021294488105922937
2009263150775,0.8164227604866028,-9.835380554199219,0.8248025178909302,0.003460354171693325,0.01783413253724575,-0.0023956298828125
2009264388137,0.8343793153762817,-9.850942611694336,0.8176198601722717,0.005589802749454975,0.01463996060192585,-0.006122165359556675
2009265625525,0.8248025178909302,-9.840168952941895,0.8415619134902954,0.00452507846057415,0.01889885775744915,-0.0071868896484375
2009266862875,0.8140285611152649,-9.892841339111328,0.8487445116043091,0.008517795242369175,0.0196974016726017,-0.0026618109550327063
2009268100262,0.8331822156906128,-9.917980194091797,0.8271967172622681,0.0119781494140625,0.015438503585755825,-0.0031941730994731188
2009269337637,0.7912836670875549,-9.87967300415039,0.8032546639442444,0.0029279920272529125,0.015172322280704975,-0.010647243820130825
2009270575000,0.8439561128616333,-9.86650562286377,0.8212112188339233,0.005057440605014563,0.0162370465695858,-0.008251613937318325
2009271812375,0.8224083185195923,-9.896432876586914,0.8104372620582581,0.005057440605014563,0.02076212503015995,-0.008251613937318325
2009273049737,0.8403648138046265,-9.853337287902832,0.8236054182052612,0.0053236219100654125,0.02369011752307415,-0.00692070834338665
2009274287137,0.8200140595436096,-9.852140426635742,0.8176198601722717,0.0053236219100654125,0.0181003138422966,-0.005855984054505825
2009275524475,0.8439561128616333,-9.886856079101562,0.7960720658302307,0.008517795242369175,0.01756795309484005,-0.0026618109550327063
2009276761875,0.8690952062606812,-9.897629737854004,0.8212112188339233,0.0,0.0252872034907341,-0.004791259765625
2009277999237,0.8930372595787048,-9.9000244140625,0.8690952062606812,0.0013309054775163531,0.01650322787463665,-0.007985432632267475
2009279236600,0.8379706144332886,-9.90241813659668,0.8164227604866028,0.0037265352439135313,0.01756795309484005,-0.008251613937318325
2009280473975,0.8200140595436096,-9.909601211547852,0.829590916633606,0.0023956298828125,0.01996358297765255,-0.010114881210029125
2009281711362,0.811634361743927,-9.891644477844238,0.7960720658302307,0.0026618109550327063,0.01783413253724575,-0.0066545275039970875
2009282948737,0.8631097078323364,-9.8784761428833,0.8427590131759644,0.0031941730994731188,0.0252872034907341,-0.005855984054505825
2009284186100,0.8487445116043091,-9.926360130310059,0.8092401623725891,-0.0002661811013240367,0.01996358297765255,-0.00958251953125
2009285423475,0.851138710975647,-9.876082420349121,0.8236054182052612,-0.0002661811013240367,0.0196974016726017,-0.01117960549890995
2009286660850,0.8846575617790222,-9.874884605407715,0.788889467716217,0.0023956298828125,0.02262539230287075,-0.0119781494140625
2009287898225,0.8798691034317017,-9.862914085388184,0.8092401623725891,-0.0010647244052961469,0.0258195661008358,-0.01357523538172245
2009289135600,0.828393816947937,-9.855731010437012,0.7948749661445618,-0.0005323622026480734,0.02422248013317585,-0.00931633822619915
2009290372950,0.8487445116043091,-9.894038200378418,0.7936778664588928,-0.0015970865497365594,0.0220930315554142,-0.010381062515079975
2009291610325,0.8655039072036743,-9.853337287902832,0.8188169598579407,-0.0018632676219567657,0.02502102218568325,-0.008783976547420025
2009292847700,0.8367735147476196,-9.864110946655273,0.8068459630012512,-0.0007985432748682797,0.0204959437251091,-0.010913425125181675
2009294085075,0.8523358106613159,-9.841365814208984,0.8056488633155823,-0.0021294488105922937,0.0196974016726017,-0.01357523538172245
2009295322462,0.828393816947937,-9.84495735168457,0.7876923680305481,0.0005323622026480734,0.02422248013317585,-0.00958251953125
2009296559825,0.8487445116043091,-9.864110946655273,0.8008604645729065,-0.00452507846057415,0.0268842913210392,-0.012776692397892475
2009297797187,0.8762778043746948,-9.87967300415039,0.828393816947937,-0.005855984054505825,0.02901373989880085,-0.015172322280704975
2009299034562,0.8786720037460327,-9.836577415466309,0.7769184708595276,-0.004791259765625,0.02555338479578495,-0.01650322787463665
2009300271950,0.8571242094039917,-9.828198432922363,0.7996633648872375,-0.0023956298828125,0.0276828333735466,-0.0162370465695858
2009301509300,0.8595184087753296,-9.830592155456543,0.8056488633155823,-0.0042588976211845875,0.02661811001598835,-0.0157046839594841
2009302746687,0.9050082564353943,-9.832986831665039,0.8140285611152649,-0.0042588976211845875,0.02981228195130825,-0.01597086526453495
2009303984050,0.8667010068893433,-9.817423820495605,0.8140285611152649,-0.00452507846057415,0.0282151959836483,-0.01996358297765255
2009305221425,0.8236054182052612,-9.834183692932129,0.8056488633155823,-0.0042588976211845875,0.0300784632563591,-0.014373779296875
2009306458800,0.8451532125473022,-9.817423820495605,0.7757213711738586,0.0010647244052961469,0.0282151959836483,-0.013309055007994175
2009307696175,0.8822633624076843,-9.856928825378418,0.811634361743927,-0.0010647244052961469,0.0292799212038517,-0.0220930315554142
2009308933550,0.8750807046890259,-9.806650161743164,0.8056488633155823,-0.0037265352439135313,0.0295461006462574,-0.01650322787463665
2009310170937,0.849941611289978,-9.828198432922363,0.8092401623725891,0.0002661811013240367,0.02874755859375,-0.00958251953125
2009311408287,0.8655039072036743,-9.798270225524902,0.8343793153762817,0.0021294488105922937,0.0268842913210392,-0.008517795242369175
2009312645650,0.828393816947937,-9.84256362915039,0.8439561128616333,-0.0005323622026480734,0.0244886614382267,-0.01650322787463665
2009313883037,0.8619126081466675,-9.837775230407715,0.8259996175765991,-0.0029279920272529125,0.033272635191679,-0.014906140975654125
2009315120412,0.8966285586357117,-9.823410034179688,0.7864952683448792,-0.005057440605014563,0.0282151959836483,-0.013042873702943325
2009316357775,0.8607155084609985,-9.834183692932129,0.8032546639442444,-0.0053236219100654125,0.0276828333735466,-0.010647243820130825
2009317595150,0.8547300100326538,-9.815030097961426,0.828393816947937,-0.0005323622026480734,0.0292799212038517,-0.014373779296875
2009318832525,0.8978256583213806,-9.795876502990723,0.7805097699165344,0.0013309054775163531,0.0234239362180233,-0.0162370465695858
2009320069875,0.8774749040603638,-9.816226959228516,0.8248025178909302,-0.004791259765625,0.0263519287109375,-0.0138414166867733
2009321307275,0.8786720037460327,-9.804256439208984,0.8547300100326538,-0.0029279920272529125,0.02555338479578495,-0.00958251953125
2009322544650,0.9050082564353943,-9.817423820495605,0.8367735147476196,0.0010647244052961469,0.0263519287109375,-0.007985432632267475
2009323782025,0.8870517611503601,-9.815030097961426,0.8224083185195923,-0.0007985432748682797,0.03087700717151165,-0.00984870083630085
2009325019387,0.871489405632019,-9.786299705505371,0.8080430626869202,0.0005323622026480734,0.02794901467859745,-0.00958251953125
2009326256762,0.8571242094039917,-9.773131370544434,0.7984662652015686,0.0010647244052961469,0.0319417305290699,-0.01171196810901165
2009327494137,0.8559271097183228,-9.803058624267578,0.8427590131759644,0.0015970865497365594,0.0220930315554142,-0.005057440605014563
2009328731500,0.8930372595787048,-9.827000617980957,0.8331822156906128,-0.0029279920272529125,0.02741665206849575,-0.0042588976211845875
2009329968887,0.9133879542350769,-9.803058624267578,0.8080430626869202,-0.0039927163161337376,0.02848137728869915,-0.005057440605014563
2009331206237,0.9277531504631042,-9.768342971801758,0.7841010689735413,-0.005589802749454975,0.0258195661008358,-0.003460354171693325
2009332443625,0.8786720037460327,-9.815030097961426,0.790086567401886,-0.004791259765625,0.02555338479578495,-0.003460354171693325
2009333680987,0.8523358106613159,-9.852140426635742,0.8547300100326538,-0.0007985432748682797,0.0314093679189682,-0.0026618109550327063
2009334918375,0.933738648891449,-9.848548889160156,0.8152256608009338,0.0005323622026480734,0.02794901467859745,-0.0007985432748682797
2009336155737,0.8643068075180054,-9.813833236694336,0.8403648138046265,-0.0015970865497365594,0.0311431884765625,-0.0013309054775163531
2009337393112,0.9217676520347595,-9.824606895446777,0.8212112188339233,0.0007985432748682797,0.0327402763068676,0.0002661811013240367
2009338630475,0.9002198576927185,-9.832986831665039,0.8355764150619507,0.0015970865497365594,0.0268842913210392,-0.0002661811013240367
2009339867850,0.9409212470054626,-9.855731010437012,0.7841010689735413,-0.0010647244052961469,0.0268842913210392,0.0005323622026480734
2009341105212,0.9229647517204285,-9.823410034179688,0.8044517636299133,0.0013309054775163531,0.02794901467859745,0.0021294488105922937
2009342342600,0.8822633624076843,-9.862914085388184,0.7960720658302307,-0.0026618109550327063,0.0263519287109375,-0.0010647244052961469
2009343579975,0.9229647517204285,-9.84495735168457,0.8164227604866028,0.0,0.0258195661008358,0.005589802749454975
2009344817350,0.9253589510917664,-9.822212219238281,0.7829039692878723,0.003460354171693325,0.02422248013317585,0.0002661811013240367
2009346054725,0.9062053561210632,-9.834183692932129,0.8367735147476196,0.005057440605014563,0.02555338479578495,-0.0042588976211845875
2009347292100,0.9133879542350769,-9.84376049041748,0.8164227604866028,0.004791259765625,0.02502102218568325,-0.0002661811013240367
2009348529475,0.8930372595787048,-9.786299705505371,0.7805097699165344,0.005057440605014563,0.02262539230287075,0.0007985432748682797
2009349766850,0.9038111567497253,-9.823410034179688,0.829590916633606,0.00452507846057415,0.0295461006462574,0.0037265352439135313
2009351004212,0.910993754863739,-9.825803756713867,0.7924807667732239,0.0010647244052961469,0.0258195661008358,0.0029279920272529125
2009352241600,0.8870517611503601,-9.827000617980957,0.8152256608009338,0.0010647244052961469,0.0268842913210392,0.004791259765625
2009353478962,0.8667010068893433,-9.854534149169922,0.8092401623725891,0.0037265352439135313,0.0263519287109375,0.00958251953125
2009354716350,0.9145850539207458,-9.813833236694336,0.8200140595436096,0.0010647244052961469,0.02555338479578495,0.008251613937318325
2009355953700,0.9313444495201111,-9.786299705505371,0.8319851160049438,0.0015970865497365594,0.0223592109978199,0.008251613937318325
2009357191075,0.8906430602073669,-9.836577415466309,0.8044517636299133,-0.0002661811013240367,0.0276828333735466,0.0063883461989462376
2009358428475,0.912190854549408,-9.799468040466309,0.8176198601722717,0.0037265352439135313,0.02369011752307415,0.0063883461989462376
2009359665850,0.9421183466911316,-9.828198432922363,0.788889467716217,0.005057440605014563,0.02129448764026165,0.005589802749454975
2009360903200,0.9265560507774353,-9.764751434326172,0.8164227604866028,0.0077192517928779125,0.02608574740588665,0.0026618109550327063
2009362140562,0.9289502501487732,-9.795876502990723,0.7972691655158997,0.005057440605014563,0.02315775491297245,0.008251613937318325
2009363377950,0.9313444495201111,-9.785102844238281,0.7817068696022034,0.0053236219100654125,0.023956298828125,0.010647243820130825
2009364615312,0.9169792532920837,-9.787496566772461,0.8140285611152649,0.00452507846057415,0.023956298828125,0.00931633822619915
2009365852712,0.9313444495201111,-9.757569313049316,0.7841010689735413,0.00692070834338665,0.02182685025036335,0.010913425125181675
2009367090062,0.933738648891449,-9.765949249267578,0.8068459630012512,0.0031941730994731188,0.0210283063352108,0.010913425125181675
2009368327450,0.9002198576927185,-9.765949249267578,0.8319851160049438,0.00692070834338665,0.023956298828125,0.0119781494140625
2009369564812,0.9157821536064148,-9.78869342803955,0.788889467716217,0.0090501569211483,0.0263519287109375,0.01597086526453495
2009370802187,0.9361328482627869,-9.774328231811523,0.828393816947937,0.0021294488105922937,0.02661811001598835,0.00931633822619915
2009372039550,0.94930100440979,-9.805453300476074,0.7972691655158997,0.0010647244052961469,0.0215606689453125,0.010913425125181675
2009373276925,0.9373299479484558,-9.818621635437012,0.767341673374176,0.0090501569211483,0.0191650390625,0.014906140975654125
2009374514312,0.8858546614646912,-9.860519409179688,0.811634361743927,0.01171196810901165,0.02182685025036335,0.01463996060192585
2009375751675,0.9026140570640564,-9.81143856048584,0.8619126081466675,0.0063883461989462376,0.02262539230287075,0.012776692397892475
2009376989037,0.9277531504631042,-9.837775230407715,0.8176198601722717,0.0063883461989462376,0.0196974016726017,0.007985432632267475
2009378226425,0.9205705523490906,-9.850942611694336,0.829590916633606,0.006122165359556675,0.0204959437251091,0.0114457868039608
2009379463787,0.9193734526634216,-9.798270225524902,0.8164227604866028,0.0010647244052961469,0.0228915736079216,0.012510511092841625
2009380701162,0.8810662031173706,-9.78869342803955,0.7841010689735413,0.0037265352439135313,0.0191650390625,0.01357523538172245
2009381938550,0.8750807046890259,-9.815030097961426,0.788889467716217,0.0066545275039970875,0.01996358297765255,0.0167694091796875
2009383175900,0.9457097053527832,-9.834183692932129,0.7984662652015686,0.005057440605014563,0.02129448764026165,0.01756795309484005
2009384413287,0.950498104095459,-9.786299705505371,0.8200140595436096,0.0002661811013240367,0.02369011752307415,0.0181003138422966
2009385650662,0.93254154920578,-9.799468040466309,0.7876923680305481,0.0053236219100654125,0.01756795309484005,0.01943122036755085
2009386888037,0.888248860836029,-9.815030097961426,0.8104372620582581,0.0037265352439135313,0.01224433071911335,0.01650322787463665
2009388125412,0.9289502501487732,-9.817423820495605,0.8439561128616333,0.003460354171693325,0.0162370465695858,0.0162370465695858
2009389362762,0.8834604620933533,-9.829395294189453,0.7841010689735413,0.007985432632267475,0.01703559048473835,0.0157046839594841
2009390600150,0.9385270476341248,-9.838972091674805,0.8164227604866028,0.0013309054775163531,0.0167694091796875,0.015172322280704975
2009391837537,0.8870517611503601,-9.854534149169922,0.8248025178909302,-0.0010647244052961469,0.014906140975654125,0.00984870083630085
2009393074900,0.8655039072036743,-9.815030097961426,0.8068459630012512,0.0053236219100654125,0.015172322280704975,0.0196974016726017
2009394312250,0.912190854549408,-9.840168952941895,0.8032546639442444,0.00931633822619915,0.01597086526453495,0.0186326764523983
2009395549662,0.9241618514060974,-9.850942611694336,0.8236054182052612,0.0023956298828125,0.0162370465695858,0.01171196810901165
2009396786987,0.9085995554924011,-9.848548889160156,0.8200140595436096,0.0023956298828125,0.01463996060192585,0.015172322280704975
2009398024400,0.9062053561210632,-9.850942611694336,0.8631097078323364,0.005855984054505825,0.010647243820130825,0.02555338479578495
2009399261775,0.9133879542350769,-9.819818496704102,0.8212112188339233,0.005855984054505825,0.012776692397892475,0.01996358297765255
2009400499150,0.9062053561210632,-9.847352027893066,0.7793126702308655,0.0015970865497365594,0.013042873702943325,0.01889885775744915
2009401736512,0.8978256583213806,-9.801861763000488,0.7864952683448792,0.0039927163161337376,0.01117960549890995,0.02076212503015995
2009402973900,0.9145850539207458,-9.835380554199219,0.8080430626869202,0.0007985432748682797,0.01117960549890995,0.01943122036755085
2009404211262,0.9157821536064148,-9.84376049041748,0.811634361743927,0.0029279920272529125,0.010381062515079975,0.0204959437251091
2009405448650,0.9026140570640564,-9.835380554199219,0.7936778664588928,0.0002661811013240367,0.012776692397892475,0.01889885775744915
2009406686025,0.9205705523490906,-9.800664901733398,0.8152256608009338,-0.0007985432748682797,0.014373779296875,0.0173017717897892
2009407923400,0.910993754863739,-9.84615421295166,0.7625532746315002,-0.0005323622026480734,0.010381062515079975,0.01836649514734745
2009409160750,0.8918401598930359,-9.854534149169922,0.8068459630012512,0.0026618109550327063,0.01171196810901165,0.0244886614382267
2009410398125,0.9289502501487732,-9.821015357971191,0.8200140595436096,0.00452507846057415,0.0066545275039970875,0.02608574740588665
2009411635525,0.912190854549408,-9.828198432922363,0.8379706144332886,0.0010647244052961469,0.008517795242369175,0.02661811001598835
2009412872875,0.9289502501487732,-9.81263542175293,0.8738836050033569,-0.0039927163161337376,0.0114457868039608,0.0220930315554142
2009414110262,0.9373299479484558,-9.824606895446777,0.8307880163192749,0.0002661811013240367,0.0031941730994731188,0.0204959437251091
2009415347625,0.9145850539207458,-9.832986831665039,0.8738836050033569,-0.0013309054775163531,0.0021294488105922937,0.02608574740588665
2009416585000,0.8786720037460327,-9.81263542175293,0.8487445116043091,0.0026618109550327063,0.0029279920272529125,0.0282151959836483
2009417822387,0.8870517611503601,-9.850942611694336,0.8355764150619507,0.0023956298828125,0.005589802749454975,0.0282151959836483
2009419059737,0.8918401598930359,-9.789891242980957,0.8068459630012512,0.00452507846057415,0.0066545275039970875,0.03087700717151165
2009420297112,0.9085995554924011,-9.836577415466309,0.8475474119186401,0.003460354171693325,0.005855984054505825,0.02981228195130825
2009421534487,0.8583213090896606,-9.818621635437012,0.812831461429596,0.0039927163161337376,0.005855984054505825,0.02874755859375
2009422771862,0.9169792532920837,-9.783905029296875,0.8774749040603638,0.0026618109550327063,0.004791259765625,0.02901373989880085
2009424009237,0.8822633624076843,-9.823410034179688,0.8535329103469849,0.0005323622026480734,0.0026618109550327063,0.02661811001598835
2009425246625,0.8858546614646912,-9.84615421295166,0.8355764150619507,0.0026618109550327063,0.0042588976211845875,0.02848137728869915
2009426483987,0.8930372595787048,-9.861717224121094,0.849941611289978,0.0015970865497365594,0.0005323622026480734,0.0324740931391716
2009427721350,0.8990227580070496,-9.825803756713867,0.8008604645729065,0.003460354171693325,0.0,0.0316755510866642
2009428958712,0.9217676520347595,-9.835380554199219,0.8271967172622681,0.0029279920272529125,0.0013309054775163531,0.0356682650744915
