timestamp_ns,accel_x,accel_y,accel_z,gyro_x,gyro_y,gyro_z
18364343345825,3.3662476539611816,-7.8529815673828125,5.297171115875244,0.01943122036755085,0.007453070487827063,-0.003460354171693325
18364344583050,3.3315317630767822,-7.797914981842041,5.272032260894775,0.02022976242005825,0.008517795242369175,-0.0031941730994731188
18364345820300,3.3734302520751953,-7.808689117431641,5.2684407234191895,0.01836649514734745,0.012510511092841625,-0.0013309054775163531
18364347057512,3.40216064453125,-7.8098859786987305,5.2444987297058105,0.01597086526453495,0.0119781494140625,-0.0023956298828125
18364348294750,3.399766445159912,-7.796718120574951,5.212177276611328,0.0173017717897892,0.008517795242369175,-0.0010647244052961469
18364349532000,3.377021551132202,-7.801506519317627,5.266046524047852,0.0186326764523983,0.01171196810901165,-0.0039927163161337376
18364350769200,3.406949043273926,-7.849390506744385,5.230133533477783,0.0228915736079216,0.014373779296875,0.0007985432748682797
18364352006437,3.4105403423309326,-7.772775650024414,5.231330871582031,0.0215606689453125,0.01171196810901165,-0.0023956298828125
18364353243675,3.406949043273926,-7.784747123718262,5.237316131591797,0.0215606689453125,0.008517795242369175,-0.005057440605014563
18364354480912,3.406949043273926,-7.77756404876709,5.2672438621521,0.01597086526453495,0.006122165359556675,-0.0002661811013240367
18364355718137,3.406949043273926,-7.7895355224609375,5.2672438621521,0.0210283063352108,0.005855984054505825,-0.0021294488105922937
18364356955375,3.3949780464172363,-7.7763671875,5.246892929077148,0.0220930315554142,0.0053236219100654125,-0.0015970865497365594
18364358192600,3.3961751461029053,-7.779958248138428,5.230133533477783,0.0173017717897892,0.0063883461989462376,-0.0042588976211845875
18364359429837,3.3925838470458984,-7.794323921203613,5.220556735992432,0.0244886614382267,0.004791259765625,-0.0015970865497365594
18364360667075,3.4189200401306152,-7.791929721832275,5.273229122161865,0.02422248013317585,0.0018632676219567657,0.0
18364361904275,3.4129345417022705,-7.766790390014648,5.254075527191162,0.02369011752307415,0.0010647244052961469,-0.0013309054775163531
18364363141525,3.4117374420166016,-7.757213592529297,5.2899885177612305,0.01996358297765255,0.0066545275039970875,-0.005855984054505825
18364364378762,3.37941575050354,-7.758410453796387,5.273229122161865,0.01756795309484005,0.0026618109550327063,-0.003460354171693325
18364365615987,3.397372245788574,-7.785943984985352,5.249287128448486,0.0228915736079216,-0.0026618109550327063,-0.0002661811013240367
18364366853250,3.3746273517608643,-7.740454196929932,5.275623321533203,0.023956298828125,-0.0029279920272529125,-0.0037265352439135313
18364368090462,3.398569345474243,-7.767987251281738,5.262455463409424,0.0228915736079216,-0.0005323622026480734,-0.0026618109550327063
18364369327675,3.399766445159912,-7.762001991271973,5.263652324676514,0.02555338479578495,-0.005589802749454975,0.0002661811013240367
18364370564912,3.4189200401306152,-7.781155586242676,5.297171115875244,0.0244886614382267,-0.0015970865497365594,-0.005057440605014563
18364371802150,3.441664934158325,-7.746439456939697,5.261258125305176,0.0210283063352108,0.0005323622026480734,-0.00958251953125
18364373039362,3.442862033843994,-7.762001991271973,5.228936672210693,0.02794901467859745,-0.0037265352439135313,-0.0042588976211845875
18364374276612,3.42490553855896,-7.753622055053711,5.279214859008789,0.0234239362180233,-0.00452507846057415,-0.0021294488105922937
18364375513812,3.42490553855896,-7.758410453796387,5.273229122161865,0.02182685025036335,-0.0037265352439135313,-0.00452507846057415
18364376751075,3.403357744216919,-7.77756404876709,5.261258125305176,0.02182685025036335,-0.0029279920272529125,-0.0023956298828125
18364377988300,3.421314239501953,-7.73087739944458,5.276820659637451,0.0234239362180233,-0.008783976547420025,-0.0023956298828125
18364379225525,3.4308910369873047,-7.7655930519104,5.261258125305176,0.02741665206849575,-0.01357523538172245,-0.004791259765625
18364380462762,3.400963544845581,-7.760804653167725,5.239710330963135,0.02422248013317585,-0.0114457868039608,-0.004791259765625
18364381699987,3.446453332901001,-7.805097579956055,5.279214859008789,0.0271504707634449,-0.010114881210029125,-0.0039927163161337376
18364382937212,3.427299737930298,-7.770381450653076,5.2480902671813965,0.0322079136967659,-0.008517795242369175,-0.005855984054505825
18364384174475,3.4404678344726562,-7.799112319946289,5.299565315246582,0.02794901467859745,-0.00931633822619915,-0.0023956298828125
18364385411687,3.444059133529663,-7.785943984985352,5.272032260894775,0.02848137728869915,-0.01171196810901165,-0.0007985432748682797
18364386648900,3.3530795574188232,-7.783549785614014,5.2564697265625,0.02981228195130825,-0.013042873702943325,-0.005057440605014563
18364387886150,3.40216064453125,-7.806294918060303,5.280411720275879,0.03034464456140995,-0.013042873702943325,-0.010647243820130825
18364389123375,3.3937809467315674,-7.814674377441406,5.288791656494141,0.0311431884765625,-0.010913425125181675,-0.012776692397892475
18364390360612,3.420117139816284,-7.817068576812744,5.2672438621521,0.02874755859375,-0.012510511092841625,-0.00452507846057415
18364391597837,3.405751943588257,-7.805097579956055,5.2684407234191895,0.02874755859375,-0.0167694091796875,-0.0090501569211483
18364392835062,3.397372245788574,-7.8326311111450195,5.258863925933838,0.0292799212038517,-0.015172322280704975,-0.0063883461989462376
18364394072312,3.422511339187622,-7.8110833168029785,5.298368453979492,0.0300784632563591,-0.0162370465695858,-0.0063883461989462376
18364395309537,3.3734302520751953,-7.864952564239502,5.294776916503906,0.0364668108522892,-0.01357523538172245,-0.0066545275039970875
18364396546787,3.42490553855896,-7.8541789054870605,5.278017520904541,0.0292799212038517,-0.01650322787463665,-0.006122165359556675
18364397784000,3.381809949874878,-7.838616371154785,5.317522048950195,0.0234239362180233,-0.0138414166867733,-0.0077192517928779125
18364399021250,3.4081461429595947,-7.824251174926758,5.318718910217285,0.0252872034907341,-0.01650322787463665,-0.0119781494140625
18364400258450,3.4320881366729736,-7.795520782470703,5.315127849578857,0.0295461006462574,-0.0196974016726017,-0.01117960549890995
18364401495700,3.3674447536468506,-7.819462776184082,5.307945251464844,0.02661811001598835,-0.0173017717897892,-0.013042873702943325
18364402732937,3.383007049560547,-7.803900718688965,5.304353713989258,0.02369011752307415,-0.013309055007994175,-0.007985432632267475
18364403970162,3.381809949874878,-7.796718120574951,5.2899885177612305,0.02022976242005825,-0.0119781494140625,-0.00958251953125
18364405207375,3.3746273517608643,-7.826645374298096,5.262455463409424,0.02794901467859745,-0.01410759799182415,-0.0119781494140625
18364406444625,3.3638534545898438,-7.807491779327393,5.328295707702637,0.0258195661008358,-0.0138414166867733,-0.01650322787463665
18364407681850,3.3949780464172363,-7.782352447509766,5.278017520904541,0.02555338479578495,-0.0196974016726017,-0.01171196810901165
18364408919100,3.3674447536468506,-7.782352447509766,5.288791656494141,0.02315775491297245,-0.02076212503015995,-0.007453070487827063
18364410156312,3.3746273517608643,-7.824251174926758,5.287594318389893,0.0244886614382267,-0.01996358297765255,-0.00958251953125
18364411393550,3.3854012489318848,-7.817068576812744,5.305551052093506,0.0234239362180233,-0.0196974016726017,-0.014373779296875
18364412630787,3.3722331523895264,-7.770381450653076,5.288791656494141,0.02369011752307415,-0.01943122036755085,-0.0066545275039970875
18364413868012,3.3315317630767822,-7.805097579956055,5.3127336502075195,0.02262539230287075,-0.0228915736079216,-0.0063883461989462376
18364415105237,3.3506853580474854,-7.790732383728027,5.292382717132568,0.02076212503015995,-0.0196974016726017,-0.007985432632267475
18364416342462,3.3854012489318848,-7.833827972412109,5.254075527191162,0.0244886614382267,-0.0204959437251091,-0.010381062515079975
18364417579687,3.3435027599334717,-7.781155586242676,5.317522048950195,0.02369011752307415,-0.0215606689453125,-0.010114881210029125
18364418816950,3.381809949874878,-7.797914981842041,5.287594318389893,0.0247548408806324,-0.0191650390625,-0.0119781494140625
18364420054175,3.3722331523895264,-7.797914981842041,5.328295707702637,0.02661811001598835,-0.01597086526453495,-0.0119781494140625
18364421291387,3.3518824577331543,-7.77756404876709,5.2899885177612305,0.0228915736079216,-0.01889885775744915,-0.010647243820130825
18364422528612,3.3638534545898438,-7.744045257568359,5.288791656494141,0.0244886614382267,-0.0263519287109375,-0.010114881210029125
18364423765850,3.3435027599334717,-7.7895355224609375,5.274426460266113,0.0276828333735466,-0.0234239362180233,-0.0071868896484375
18364425003087,3.2812533378601074,-7.779958248138428,5.270834922790527,0.0223592109978199,-0.01650322787463665,-0.0071868896484375
18364426240312,3.336320161819458,-7.772775650024414,5.310339450836182,0.0196974016726017,-0.0191650390625,-0.0063883461989462376
18364427477550,3.3291375637054443,-7.781155586242676,5.306747913360596,0.02422248013317585,-0.01943122036755085,-0.00984870083630085
18364428714787,3.33392596244812,-7.766790390014648,5.292382717132568,0.023956298828125,-0.01357523538172245,-0.013042873702943325
18364429952012,3.3494882583618164,-7.77756404876709,5.295974254608154,0.01996358297765255,-0.01597086526453495,-0.007985432632267475
18364431189225,3.3710360527038574,-7.769184589385986,5.3127336502075195,0.0228915736079216,-0.015438503585755825,-0.0063883461989462376
18364432426475,3.31118106842041,-7.771578788757324,5.324704647064209,0.02315775491297245,-0.01224433071911335,-0.005855984054505825
18364433663687,3.3494882583618164,-7.771578788757324,5.30076265335083,0.0276828333735466,-0.012776692397892475,-0.0071868896484375
18364434900937,3.3063926696777344,-7.783549785614014,5.274426460266113,0.0244886614382267,-0.0157046839594841,-0.008251613937318325
18364436138162,3.294421672821045,-7.783549785614014,5.286397457122803,0.02874755859375,-0.014373779296875,-0.007985432632267475
18364437375387,3.268085241317749,-7.7883381843566895,5.275623321533203,0.0247548408806324,-0.013309055007994175,-0.0071868896484375
18364438612637,3.314772367477417,-7.769184589385986,5.216965675354004,0.02369011752307415,-0.012776692397892475,-0.007985432632267475
18364439849862,3.341108560562134,-7.752425193786621,5.328295707702637,0.02422248013317585,-0.012776692397892475,-0.0018632676219567657
18364441087087,3.313575267791748,-7.775169849395752,5.262455463409424,0.0276828333735466,-0.01171196810901165,-0.004791259765625
18364442324337,3.357867956161499,-7.785943984985352,5.2672438621521,0.0271504707634449,-0.0138414166867733,-0.00452507846057415
18364443561550,3.3279404640197754,-7.757213592529297,5.298368453979492,0.02315775491297245,-0.00984870083630085,-0.010114881210029125
18364444798775,3.318363666534424,-7.769184589385986,5.288791656494141,0.02901373989880085,-0.0090501569211483,-0.00931633822619915
18364446036012,3.3195607662200928,-7.766790390014648,5.3115363121032715,0.0220930315554142,-0.01889885775744915,-0.0029279920272529125
18364447273225,3.3494882583618164,-7.750030994415283,5.318718910217285,0.02315775491297245,-0.0138414166867733,-0.005589802749454975
18364448510475,3.338714361190796,-7.747636795043945,5.239710330963135,0.0276828333735466,-0.010647243820130825,-0.0042588976211845875
18364449747687,3.3075897693634033,-7.754819393157959,5.288791656494141,0.02661811001598835,-0.010647243820130825,-0.0023956298828125
18364450984937,3.3219549655914307,-7.7655930519104,5.281609058380127,0.02741665206849575,-0.00958251953125,-0.003460354171693325
18364452222162,3.3267433643341064,-7.744045257568359,5.263652324676514,0.02608574740588665,-0.01224433071911335,-0.0029279920272529125
18364453459400,3.3506853580474854,-7.756016254425049,5.317522048950195,0.0234239362180233,-0.008783976547420025,-0.0037265352439135313
18364454696637,3.3530795574188232,-7.750030994415283,5.276820659637451,0.0276828333735466,-0.008783976547420025,0.0010647244052961469
18364455933875,3.3231520652770996,-7.711723804473877,5.280411720275879,0.02981228195130825,-0.00958251953125,0.0031941730994731188
18364457171087,3.3423056602478027,-7.7631988525390625,5.292382717132568,0.02901373989880085,-0.005855984054505825,-0.003460354171693325
18364458408337,3.3255462646484375,-7.760804653167725,5.272032260894775,0.0282151959836483,-0.00958251953125,-0.00452507846057415
18364459645562,3.3530795574188232,-7.735665798187256,5.299565315246582,0.02981228195130825,-0.0039927163161337376,-0.0053236219100654125
18364460882800,3.3925838470458984,-7.753622055053711,5.280411720275879,0.02741665206849575,-0.0066545275039970875,-0.005589802749454975
18364462120025,3.360262155532837,-7.7655930519104,5.293580055236816,0.0223592109978199,-0.0053236219100654125,-0.0015970865497365594
18364463357262,3.3638534545898438,-7.757213592529297,5.307945251464844,0.0276828333735466,-0.005057440605014563,-0.0010647244052961469
18364464594462,3.335123062133789,-7.769184589385986,5.274426460266113,0.03087700717151165,-0.005855984054505825,-0.0077192517928779125
18364465831712,3.3279404640197754,-7.745242595672607,5.25527286529541,0.0276828333735466,-0.0042588976211845875,-0.0026618109550327063
18364467068950,3.3470940589904785,-7.714118003845215,5.276820659637451,0.02794901467859745,-0.005855984054505825,-0.003460354171693325
18364468306187,3.3482911586761475,-7.757213592529297,5.286397457122803,0.02741665206849575,-0.005589802749454975,-0.00452507846057415
18364469543425,3.312378168106079,-7.744045257568359,5.305551052093506,0.02848137728869915,-0.0053236219100654125,-0.0063883461989462376
18364470780650,3.360262155532837,-7.762001991271973,5.306747913360596,0.02555338479578495,-0.0010647244052961469,-0.005855984054505825
18364472017887,3.3435027599334717,-7.739256858825684,5.2899885177612305,0.023956298828125,0.0,-0.0005323622026480734
18364473255100,3.33392596244812,-7.751227855682373,5.288791656494141,0.0316755510866642,-0.0029279920272529125,-0.0023956298828125
18364474492350,3.296815872192383,-7.754819393157959,5.250484466552734,0.02741665206849575,0.0007985432748682797,-0.0066545275039970875
18364475729575,3.3231520652770996,-7.759607791900635,5.276820659637451,0.0282151959836483,-0.0005323622026480734,-0.00692070834338665
18364476966812,3.317166566848755,-7.767987251281738,5.25527286529541,0.02555338479578495,0.0002661811013240367,-0.008517795242369175
18364478204025,3.294421672821045,-7.745242595672607,5.3127336502075195,0.0311431884765625,0.0,-0.010913425125181675
18364479441250,3.3219549655914307,-7.7416510581970215,5.294776916503906,0.0338049978017807,-0.0010647244052961469,-0.0013309054775163531
18364480678487,3.3470940589904785,-7.733271598815918,5.264849662780762,0.0282151959836483,0.0021294488105922937,0.0
18364481915725,3.3506853580474854,-7.759607791900635,5.252878665924072,0.0282151959836483,0.0026618109550327063,-0.00692070834338665
18364483152950,3.3530795574188232,-7.7643961906433105,5.2564697265625,0.0306108258664608,0.0023956298828125,-0.0090501569211483
18364484390187,3.3722331523895264,-7.750030994415283,5.282805919647217,0.0319417305290699,-0.0066545275039970875,-0.007985432632267475
18364485627387,3.4368765354156494,-7.711723804473877,5.322310447692871,0.0322079136967659,-0.0042588976211845875,-0.005855984054505825
18364486864662,3.3638534545898438,-7.760804653167725,5.299565315246582,0.0306108258664608,0.0,-0.005855984054505825
18364488101887,3.378218650817871,-7.758410453796387,5.313930511474609,0.033538818359375,-0.0015970865497365594,-0.004791259765625
18364489339125,3.332728862762451,-7.7416510581970215,5.317522048950195,0.0348697230219841,0.0010647244052961469,-0.005855984054505825
18364490576350,3.3255462646484375,-7.779958248138428,5.287594318389893,0.0282151959836483,0.0005323622026480734,-0.01224433071911335
18364491813587,3.357867956161499,-7.767987251281738,5.294776916503906,0.0375315360724926,-0.0026618109550327063,-0.008251613937318325
18364493050812,3.3482911586761475,-7.735665798187256,5.288791656494141,0.033272635191679,0.0002661811013240367,-0.0066545275039970875
18364494288062,3.37941575050354,-7.771578788757324,5.3594207763671875,0.0324740931391716,0.0005323622026480734,-0.007985432632267475
18364495525275,3.360262155532837,-7.779958248138428,5.34744930267334,0.0330064557492733,-0.005855984054505825,-0.008251613937318325
18364496762500,3.4129345417022705,-7.77756404876709,5.303156852722168,0.0300784632563591,-0.0023956298828125,-0.006122165359556675
18364497999750,3.4165258407592773,-7.795520782470703,5.2911858558654785,0.02848137728869915,-0.004791259765625,-0.0077192517928779125
18364499236962,3.3854012489318848,-7.773972988128662,5.3127336502075195,0.0404595248401165,-0.010381062515079975,-0.01224433071911335
18364500474187,3.42490553855896,-7.7871413230896,5.304353713989258,0.0340711809694767,-0.0010647244052961469,-0.01171196810901165
18364501711425,3.406949043273926,-7.8098859786987305,5.331887245178223,0.0306108258664608,0.0,-0.01117960549890995
18364502948662,3.4105403423309326,-7.799112319946289,5.317522048950195,0.0354020856320858,-0.0029279920272529125,-0.005855984054505825
18364504185900,3.403357744216919,-7.785943984985352,5.328295707702637,0.0340711809694767,-0.0071868896484375,-0.0037265352439135313
18364505423112,3.3889925479888916,-7.733271598815918,5.307945251464844,0.02901373989880085,-0.005057440605014563,-0.0114457868039608
18364506660350,3.3961751461029053,-7.7895355224609375,5.337872505187988,0.0306108258664608,-0.007453070487827063,-0.00958251953125
18364507897575,3.375824451446533,-7.796718120574951,5.3330841064453125,0.03034464456140995,-0.005057440605014563,-0.005057440605014563
18364509134825,3.420117139816284,-7.830236911773682,5.327098846435547,0.0359344482421875,-0.0071868896484375,-0.0029279920272529125
18364510372062,3.405751943588257,-7.818265914916992,5.323507308959961,0.0319417305290699,-0.00452507846057415,-0.007985432632267475
18364511609287,3.383007049560547,-7.806294918060303,5.33547830581665,0.03087700717151165,-0.008783976547420025,-0.0090501569211483
18364512846500,3.4177229404449463,-7.800309181213379,5.340266704559326,0.0324740931391716,-0.013309055007994175,-0.00958251953125
18364514083737,3.3925838470458984,-7.807491779327393,5.35702657699585,0.02901373989880085,-0.0114457868039608,-0.008251613937318325
18364515320975,3.37941575050354,-7.835025310516357,5.288791656494141,0.0306108258664608,-0.010647243820130825,-0.007985432632267475
18364516558187,3.4105403423309326,-7.838616371154785,5.315127849578857,0.0311431884765625,-0.0114457868039608,-0.006122165359556675
18364517795437,3.427299737930298,-7.850587368011475,5.2911858558654785,0.0276828333735466,-0.0119781494140625,-0.0053236219100654125
18364519032675,3.3877954483032227,-7.8541789054870605,5.329493045806885,0.0276828333735466,-0.01463996060192585,-0.008251613937318325
18364520269887,3.397372245788574,-7.860164165496826,5.34625244140625,0.0276828333735466,-0.010114881210029125,-0.0119781494140625
18364521507125,3.4356794357299805,-7.841010570526123,5.336675643920898,0.0311431884765625,-0.01171196810901165,-0.0119781494140625
18364522744350,3.4093432426452637,-7.875726699829102,5.304353713989258,0.0271504707634449,-0.014906140975654125,-0.013309055007994175
18364523981587,3.3482911586761475,-7.898471355438232,5.365406036376953,0.023956298828125,-0.015438503585755825,-0.00931633822619915
18364525218825,3.3722331523895264,-7.909245491027832,5.324704647064209,0.0215606689453125,-0.01703559048473835,-0.010114881210029125
18364526456050,3.362656354904175,-7.8745293617248535,5.306747913360596,0.02022976242005825,-0.0138414166867733,-0.012510511092841625
18364527693275,3.398569345474243,-7.881711959838867,5.341464042663574,0.01996358297765255,-0.012510511092841625,-0.01756795309484005
18364528930512,3.4081461429595947,-7.870938301086426,5.363011837005615,0.01783413253724575,-0.015172322280704975,-0.0114457868039608
18364530167750,3.40216064453125,-7.890091896057129,5.325901508331299,0.01996358297765255,-0.014906140975654125,-0.010913425125181675
18364531404975,3.3698389530181885,-7.891288757324219,5.384559631347656,0.0196974016726017,-0.01943122036755085,-0.00958251953125
18364532642212,3.3458969593048096,-7.890091896057129,5.360617637634277,0.01410759799182415,-0.01703559048473835,-0.01171196810901165
18364533879425,3.4141316413879395,-7.870938301086426,5.325901508331299,0.01783413253724575,-0.0223592109978199,-0.010647243820130825
18364535116662,3.3877954483032227,-7.856573104858398,5.3127336502075195,0.0186326764523983,-0.0220930315554142,-0.0162370465695858
18364536353925,3.4081461429595947,-7.844602108001709,5.318718910217285,0.0114457868039608,-0.01996358297765255,-0.010381062515079975
18364537591137,3.4105403423309326,-7.8529815673828125,5.366603374481201,0.0090501569211483,-0.02262539230287075,-0.005589802749454975
18364538828362,3.4105403423309326,-7.833827972412109,5.360617637634277,0.01224433071911335,-0.02182685025036335,-0.01117960549890995
18364540065587,3.4093432426452637,-7.842207908630371,5.317522048950195,0.0167694091796875,-0.02182685025036335,-0.008251613937318325
18364541302825,3.375824451446533,-7.862558364868164,5.377377033233643,0.01224433071911335,-0.0228915736079216,-0.008517795242369175
18364542540075,3.3710360527038574,-7.819462776184082,5.34744930267334,0.01117960549890995,-0.0220930315554142,-0.01117960549890995
18364543777300,3.3638534545898438,-7.829039573669434,5.3342814445495605,0.010381062515079975,-0.0258195661008358,-0.010381062515079975
18364545014512,3.3255462646484375,-7.82185697555542,5.341464042663574,0.010114881210029125,-0.0263519287109375,-0.00958251953125
18364546251762,3.378218650817871,-7.818265914916992,5.307945251464844,0.01224433071911335,-0.02794901467859745,-0.008783976547420025
18364547488975,3.3506853580474854,-7.82185697555542,5.3342814445495605,0.012776692397892475,-0.02555338479578495,-0.010381062515079975
18364548726200,3.3854012489318848,-7.7895355224609375,5.342660903930664,0.0071868896484375,-0.0282151959836483,-0.00958251953125
18364549963462,3.4129345417022705,-7.826645374298096,5.360617637634277,0.007453070487827063,-0.02502102218568325,-0.013042873702943325
18364551200650,3.3458969593048096,-7.801506519317627,5.303156852722168,0.00692070834338665,-0.0268842913210392,-0.01410759799182415
18364552437900,3.3423056602478027,-7.808689117431641,5.330689907073975,0.007985432632267475,-0.02848137728869915,-0.008251613937318325
18364553675137,3.339911460876465,-7.7895355224609375,5.3115363121032715,0.0071868896484375,-0.0319417305290699,-0.005855984054505825
18364554912375,3.3698389530181885,-7.773972988128662,5.325901508331299,0.0090501569211483,-0.0268842913210392,-0.0042588976211845875
18364556149612,3.3435027599334717,-7.793126583099365,5.328295707702637,0.0071868896484375,-0.02422248013317585,-0.0119781494140625
18364557386837,3.37941575050354,-7.801506519317627,5.340266704559326,0.0090501569211483,-0.02901373989880085,-0.010647243820130825
18364558624062,3.341108560562134,-7.800309181213379,5.316324710845947,0.01171196810901165,-0.0258195661008358,-0.008783976547420025
18364559861287,3.3506853580474854,-7.778761386871338,5.355829238891602,0.010647243820130825,-0.0311431884765625,-0.010114881210029125
18364561098537,3.3494882583618164,-7.745242595672607,5.360617637634277,0.0039927163161337376,-0.0300784632563591,-0.01224433071911335
18364562335762,3.384204149246216,-7.738059997558594,5.342660903930664,0.007985432632267475,-0.0300784632563591,-0.013042873702943325
18364563573012,3.3518824577331543,-7.735665798187256,5.310339450836182,0.012510511092841625,-0.0314093679189682,-0.0119781494140625
18364564810212,3.3674447536468506,-7.726089000701904,5.310339450836182,0.00931633822619915,-0.02901373989880085,-0.010913425125181675
18364566047437,3.337517261505127,-7.724891662597656,5.325901508331299,0.006122165359556675,-0.0292799212038517,-0.01463996060192585
18364567284700,3.3303346633911133,-7.747636795043945,5.319916248321533,0.00958251953125,-0.0300784632563591,-0.01410759799182415
18364568521912,3.35667085647583,-7.73207426071167,5.324704647064209,0.007985432632267475,-0.02901373989880085,-0.013309055007994175
18364569759162,3.357867956161499,-7.724891662597656,5.324704647064209,0.00931633822619915,-0.0306108258664608,-0.008517795242369175
18364570996375,3.3482911586761475,-7.716512203216553,5.34744930267334,0.015438503585755825,-0.03087700717151165,-0.0114457868039608
18364572233612,3.3710360527038574,-7.717709064483643,5.3330841064453125,0.0114457868039608,-0.03034464456140995,-0.015172322280704975
18364573470837,3.355473756790161,-7.752425193786621,5.329493045806885,0.008251613937318325,-0.0295461006462574,-0.01597086526453495
18364574708087,3.359065055847168,-7.744045257568359,5.389348030090332,0.015172322280704975,-0.02981228195130825,-0.01783413253724575
18364575945312,3.360262155532837,-7.7416510581970215,5.3330841064453125,0.015438503585755825,-0.0314093679189682,-0.014373779296875
18364577182537,3.3470940589904785,-7.736862659454346,5.329493045806885,0.0114457868039608,-0.02901373989880085,-0.0247548408806324
18364578419762,3.3291375637054443,-7.773972988128662,5.360617637634277,0.0119781494140625,-0.0228915736079216,-0.0228915736079216
18364579657012,3.3470940589904785,-7.769184589385986,5.322310447692871,0.013309055007994175,-0.02315775491297245,-0.0196974016726017
18364580894237,3.3506853580474854,-7.726089000701904,5.284003257751465,0.012510511092841625,-0.0244886614382267,-0.0234239362180233
18364582131462,3.3219549655914307,-7.740454196929932,5.343858242034912,0.010381062515079975,-0.01703559048473835,-0.023956298828125
18364583368675,3.312378168106079,-7.744045257568359,5.323507308959961,0.0114457868039608,-0.01943122036755085,-0.02315775491297245
18364584605925,3.317166566848755,-7.781155586242676,5.355829238891602,0.012510511092841625,-0.0263519287109375,-0.02874755859375
18364585843162,3.314772367477417,-7.7643961906433105,5.325901508331299,0.014373779296875,-0.02981228195130825,-0.02608574740588665
18364587080400,3.341108560562134,-7.7428483963012695,5.325901508331299,0.013309055007994175,-0.0228915736079216,-0.0300784632563591
18364588317625,3.362656354904175,-7.754819393157959,5.34744930267334,0.00958251953125,-0.0234239362180233,-0.0311431884765625
18364589554837,3.337517261505127,-7.769184589385986,5.339069843292236,0.00984870083630085,-0.01889885775744915,-0.02794901467859745
18364590792087,3.3446998596191406,-7.709329605102539,5.345055103302002,0.010647243820130825,-0.02262539230287075,-0.0292799212038517
18364592029312,3.3638534545898438,-7.716512203216553,5.313930511474609,0.01224433071911335,-0.0223592109978199,-0.0324740931391716
18364593266550,3.361459255218506,-7.727285861968994,5.297171115875244,0.01224433071911335,-0.01943122036755085,-0.02901373989880085
18364594503775,3.339911460876465,-7.740454196929932,5.354632377624512,0.010913425125181675,-0.0210283063352108,-0.02661811001598835
18364595741012,3.3039984703063965,-7.729680061340332,5.33547830581665,0.0090501569211483,-0.0186326764523983,-0.02874755859375
18364596978237,3.3446998596191406,-7.73207426071167,5.313930511474609,0.01224433071911335,-0.01836649514734745,-0.0330064557492733
18364598215475,3.3710360527038574,-7.738059997558594,5.323507308959961,0.012776692397892475,-0.0173017717897892,-0.0338049978017807
18364599452700,3.355473756790161,-7.723694801330566,5.305551052093506,0.01357523538172245,-0.01224433071911335,-0.0319417305290699
18364600689925,3.3231520652770996,-7.73207426071167,5.329493045806885,0.010114881210029125,-0.01597086526453495,-0.0330064557492733
18364601927150,3.336320161819458,-7.73087739944458,5.307945251464844,0.0119781494140625,-0.01703559048473835,-0.0343373604118824
18364603164400,3.3734302520751953,-7.729680061340332,5.316324710845947,0.013309055007994175,-0.013042873702943325,-0.03087700717151165
18364604401625,3.296815872192383,-7.745242595672607,5.341464042663574,0.00958251953125,-0.0162370465695858,-0.0330064557492733
18364605638862,3.3267433643341064,-7.694964408874512,5.35702657699585,0.015172322280704975,-0.013309055007994175,-0.0372653529047966
18364606876100,3.337517261505127,-7.691372871398926,5.330689907073975,0.012510511092841625,-0.0138414166867733,-0.0367329902946949
18364608113325,3.3470940589904785,-7.715314865112305,5.343858242034912,0.010647243820130825,-0.010381062515079975,-0.0330064557492733
18364609350562,3.3063926696777344,-7.716512203216553,5.331887245178223,0.0196974016726017,-0.007453070487827063,-0.0314093679189682
18364610587800,3.336320161819458,-7.706935405731201,5.324704647064209,0.01703559048473835,-0.008251613937318325,-0.0343373604118824
18364611825025,3.3303346633911133,-7.736862659454346,5.3342814445495605,0.01410759799182415,-0.00984870083630085,-0.0306108258664608
18364613062250,3.3303346633911133,-7.745242595672607,5.3115363121032715,0.0167694091796875,-0.008783976547420025,-0.0330064557492733
18364614299475,3.35667085647583,-7.736862659454346,5.293580055236816,0.0167694091796875,-0.003460354171693325,-0.0343373604118824
18364615536737,3.315969467163086,-7.7201032638549805,5.34625244140625,0.01650322787463665,-0.0037265352439135313,-0.0343373604118824
18364616773937,3.355473756790161,-7.716512203216553,5.374982833862305,0.0191650390625,-0.0002661811013240367,-0.0359344482421875
18364618011162,3.3303346633911133,-7.709329605102539,5.273229122161865,0.01889885775744915,-0.0013309054775163531,-0.0343373604118824
18364619248400,3.337517261505127,-7.751227855682373,5.345055103302002,0.015172322280704975,-0.0023956298828125,-0.0324740931391716
18364620485625,3.3638534545898438,-7.759607791900635,5.363011837005615,0.01703559048473835,-0.0023956298828125,-0.0316755510866642
18364621722862,3.3638534545898438,-7.748833656311035,5.328295707702637,0.02182685025036335,-0.00452507846057415,-0.02901373989880085
18364622960112,3.3698389530181885,-7.745242595672607,5.293580055236816,0.0196974016726017,0.0018632676219567657,-0.02981228195130825
18364624197337,3.3746273517608643,-7.7213006019592285,5.33547830581665,0.0181003138422966,0.0042588976211845875,-0.0306108258664608
18364625434575,3.309983968734741,-7.775169849395752,5.368997573852539,0.01650322787463665,-0.0039927163161337376,-0.03087700717151165
18364626671812,3.360262155532837,-7.746439456939697,5.35702657699585,0.01650322787463665,0.0005323622026480734,-0.02874755859375
18364627909000,3.3279404640197754,-7.746439456939697,5.342660903930664,0.0162370465695858,0.0031941730994731188,-0.02848137728869915
18364629146262,3.362656354904175,-7.726089000701904,5.337872505187988,0.01357523538172245,0.0042588976211845875,-0.0271504707634449
18364630383487,3.383007049560547,-7.739256858825684,5.3582234382629395,0.01410759799182415,0.0066545275039970875,-0.02794901467859745
18364631620725,3.360262155532837,-7.723694801330566,5.299565315246582,0.0181003138422966,0.006122165359556675,-0.03034464456140995
18364632857937,3.377021551132202,-7.715314865112305,5.330689907073975,0.01756795309484005,0.008517795242369175,-0.0314093679189682
18364634095187,3.422511339187622,-7.706935405731201,5.3594207763671875,0.0157046839594841,0.010114881210029125,-0.0319417305290699
18364635332425,3.3746273517608643,-7.706935405731201,5.363011837005615,0.0167694091796875,0.0031941730994731188,-0.02794901467859745
18364636569637,3.3865983486175537,-7.703343868255615,5.348646640777588,0.01463996060192585,0.007453070487827063,-0.0276828333735466
18364637806862,3.398569345474243,-7.73207426071167,5.389348030090332,0.0167694091796875,0.00958251953125,-0.02874755859375
18364639044112,3.421314239501953,-7.757213592529297,5.373785972595215,0.014906140975654125,0.008251613937318325,-0.0300784632563591
18364640281337,3.3961751461029053,-7.754819393157959,5.363011837005615,0.01357523538172245,0.00984870083630085,-0.02901373989880085
18364641518575,3.428496837615967,-7.740454196929932,5.34744930267334,0.0157046839594841,0.008783976547420025,-0.0324740931391716
18364642755812,3.4105403423309326,-7.690176010131836,5.354632377624512,0.015438503585755825,0.010647243820130825,-0.0330064557492733
18364643993037,3.4344823360443115,-7.738059997558594,5.355829238891602,0.014906140975654125,0.010647243820130825,-0.0306108258664608
18364645230275,3.4093432426452637,-7.738059997558594,5.366603374481201,0.01357523538172245,0.0090501569211483,-0.02741665206849575
18364646467500,3.420117139816284,-7.727285861968994,5.372588634490967,0.012510511092841625,0.01171196810901165,-0.02129448764026165
18364647704725,3.450044631958008,-7.723694801330566,5.351040840148926,0.0114457868039608,0.015438503585755825,-0.0282151959836483
18364648941975,3.4296939373016357,-7.712920665740967,5.34625244140625,0.01836649514734745,0.0167694091796875,-0.0300784632563591
18364650179212,3.444059133529663,-7.769184589385986,5.360617637634277,0.01836649514734745,0.012776692397892475,-0.0316755510866642
18364651416425,3.463212728500366,-7.757213592529297,5.39174222946167,0.014906140975654125,0.01597086526453495,-0.0244886614382267
18364652653637,3.4332852363586426,-7.7201032638549805,5.349843502044678,0.01783413253724575,0.01783413253724575,-0.0276828333735466
18364653890900,3.4572272300720215,-7.729680061340332,5.3809685707092285,0.0138414166867733,0.01410759799182415,-0.0271504707634449
18364655128125,3.471592426300049,-7.714118003845215,5.372588634490967,0.01357523538172245,0.010647243820130825,-0.0263519287109375
18364656365337,3.4763808250427246,-7.7213006019592285,5.34625244140625,0.00931633822619915,0.0157046839594841,-0.0276828333735466
18364657602600,3.427299737930298,-7.728483200073242,5.3594207763671875,0.010913425125181675,0.0196974016726017,-0.02901373989880085
18364658839837,3.468001127243042,-7.758410453796387,5.337872505187988,0.014373779296875,0.0173017717897892,-0.0295461006462574
18364660077062,3.4775779247283936,-7.756016254425049,5.325901508331299,0.0138414166867733,0.01996358297765255,-0.0319417305290699
18364661314287,3.4811692237854004,-7.7213006019592285,5.3797712326049805,0.008517795242369175,0.0157046839594841,-0.0327402763068676
18364662551512,3.5170822143554688,-7.778761386871338,5.367800235748291,0.005057440605014563,0.010647243820130825,-0.0271504707634449
18364663788737,3.494337320327759,-7.746439456939697,5.365406036376953,0.00931633822619915,0.010647243820130825,-0.0263519287109375
18364665025975,3.494337320327759,-7.770381450653076,5.386953830718994,0.008783976547420025,0.0204959437251091,-0.0292799212038517
18364666263200,3.536236047744751,-7.772775650024414,5.365406036376953,0.006122165359556675,0.0210283063352108,-0.0311431884765625
18364667500437,3.4548330307006836,-7.782352447509766,5.409698963165283,0.008251613937318325,0.0173017717897892,-0.02794901467859745
18364668737675,3.5039141178131104,-7.770381450653076,5.363011837005615,0.0039927163161337376,0.0167694091796875,-0.0300784632563591
18364669974887,3.4991257190704346,-7.736862659454346,5.3809685707092285,0.007985432632267475,0.01996358297765255,-0.033272635191679
18364671212125,3.508702516555786,-7.773972988128662,5.371391773223877,0.0029279920272529125,0.01943122036755085,-0.0247548408806324
18364672449375,3.5506012439727783,-7.793126583099365,5.33547830581665,0.0039927163161337376,0.0173017717897892,-0.02848137728869915
18364673686612,3.507505416870117,-7.807491779327393,5.327098846435547,0.010114881210029125,0.013042873702943325,-0.02848137728869915
18364674923837,3.4955344200134277,-7.790732383728027,5.340266704559326,0.005855984054505825,0.01703559048473835,-0.02848137728869915
18364676161062,3.508702516555786,-7.7895355224609375,5.355829238891602,0.006122165359556675,0.0252872034907341,-0.02608574740588665
18364677398312,3.508702516555786,-7.783549785614014,5.384559631347656,0.01171196810901165,0.01650322787463665,-0.0247548408806324
18364678635525,3.466804027557373,-7.783549785614014,5.352238178253174,0.0023956298828125,0.007453070487827063,-0.02315775491297245
18364679872737,3.5506012439727783,-7.824251174926758,5.3809685707092285,0.0039927163161337376,0.015172322280704975,-0.0268842913210392
18364681109987,3.5266590118408203,-7.805097579956055,5.366603374481201,0.0023956298828125,0.0181003138422966,-0.03087700717151165
18364682347225,3.513490915298462,-7.775169849395752,5.361814975738525,0.005855984054505825,0.01410759799182415,-0.02794901467859745
18364683584462,3.5745432376861572,-7.7655930519104,5.376180171966553,0.008783976547420025,0.01703559048473835,-0.02262539230287075
18364684821675,3.554192543029785,-7.783549785614014,5.389348030090332,0.004791259765625,0.013309055007994175,-0.0228915736079216
18364686058912,3.532644748687744,-7.7631988525390625,5.35702657699585,0.0,0.01357523538172245,-0.0263519287109375
18364687296137,3.532644748687744,-7.7883381843566895,5.360617637634277,-0.0018632676219567657,0.01224433071911335,-0.02129448764026165
18364688533375,3.53743314743042,-7.797914981842041,5.366603374481201,-0.0005323622026480734,0.0138414166867733,-0.02369011752307415
18364689770600,3.5242648124694824,-7.806294918060303,5.345055103302002,-0.0018632676219567657,0.012776692397892475,-0.0210283063352108
18364691007837,3.539827346801758,-7.808689117431641,5.324704647064209,-0.0010647244052961469,0.0138414166867733,-0.0204959437251091
18364692245087,3.5170822143554688,-7.769184589385986,5.370194435119629,-0.0026618109550327063,0.01463996060192585,-0.01756795309484005
18364693482312,3.56017804145813,-7.775169849395752,5.348646640777588,-0.0042588976211845875,0.012510511092841625,-0.0162370465695858
18364694719537,3.557783842086792,-7.802703380584717,5.400122165679932,-0.005057440605014563,0.01224433071911335,-0.0173017717897892
18364695956775,3.561375141143799,-7.802703380584717,5.365406036376953,-0.0042588976211845875,0.00984870083630085,-0.01410759799182415
18364697193987,3.531447649002075,-7.778761386871338,5.324704647064209,-0.00452507846057415,0.005855984054505825,-0.01463996060192585
18364698431212,3.5517983436584473,-7.778761386871338,5.34625244140625,-0.0018632676219567657,0.0063883461989462376,-0.01836649514734745
18364699668462,3.58292293548584,-7.771578788757324,5.348646640777588,-0.0023956298828125,0.0119781494140625,-0.015438503585755825
18364700905700,3.558980941772461,-7.779958248138428,5.331887245178223,-0.0053236219100654125,0.0114457868039608,-0.014906140975654125
18364702142937,3.531447649002075,-7.779958248138428,5.3330841064453125,-0.005855984054505825,0.005589802749454975,-0.01783413253724575
18364703380150,3.533841848373413,-7.785943984985352,5.365406036376953,-0.005057440605014563,0.005855984054505825,-0.01171196810901165
18364704617387,3.555389642715454,-7.808689117431641,5.345055103302002,-0.00692070834338665,0.010913425125181675,-0.01224433071911335
18364705854612,3.5913026332855225,-7.77756404876709,5.361814975738525,-0.007453070487827063,0.012510511092841625,-0.00931633822619915
18364707091850,3.5673606395721436,-7.797914981842041,5.371391773223877,-0.00692070834338665,0.0039927163161337376,-0.010913425125181675
18364708329075,3.6332011222839355,-7.783549785614014,5.376180171966553,-0.00931633822619915,0.0018632676219567657,-0.005855984054505825
18364709566312,3.5865142345428467,-7.813477516174316,5.337872505187988,-0.0090501569211483,0.006122165359556675,-0.008251613937318325
18364710803550,3.554192543029785,-7.805097579956055,5.373785972595215,-0.010913425125181675,0.0114457868039608,-0.008251613937318325
18364712040787,3.5517983436584473,-7.819462776184082,5.363011837005615,-0.010114881210029125,0.005589802749454975,-0.0026618109550327063
18364713278025,3.5721490383148193,-7.8098859786987305,5.306747913360596,-0.015172322280704975,0.0039927163161337376,-0.0013309054775163531
18364714515225,3.575740337371826,-7.800309181213379,5.366603374481201,-0.012510511092841625,0.0042588976211845875,0.0002661811013240367
18364715752475,3.535038948059082,-7.7643961906433105,5.339069843292236,-0.008517795242369175,0.0042588976211845875,0.0005323622026480734
18364716989687,3.5434186458587646,-7.802703380584717,5.372588634490967,-0.0090501569211483,0.005855984054505825,-0.0018632676219567657
18364718226937,3.5470099449157715,-7.785943984985352,5.360617637634277,-0.014373779296875,0.006122165359556675,0.0029279920272529125
18364719464162,3.5506012439727783,-7.813477516174316,5.349843502044678,-0.013309055007994175,0.0002661811013240367,0.0005323622026480734
18364720701400,3.4955344200134277,-7.758410453796387,5.365406036376953,-0.014373779296875,-0.0005323622026480734,0.0002661811013240367
18364721938637,3.579331636428833,-7.759607791900635,5.340266704559326,-0.01463996060192585,-0.0005323622026480734,0.0037265352439135313
18364723175875,3.5517983436584473,-7.791929721832275,5.3330841064453125,-0.01357523538172245,0.0002661811013240367,0.0053236219100654125
18364724413100,3.5853171348571777,-7.7871413230896,5.364209175109863,-0.01410759799182415,0.0042588976211845875,0.008251613937318325
18364725650312,3.576937437057495,-7.790732383728027,5.35702657699585,-0.01650322787463665,0.0010647244052961469,0.005589802749454975
18364726887575,3.5194764137268066,-7.791929721832275,5.343858242034912,-0.01463996060192585,-0.0015970865497365594,0.0013309054775163531
18364728124800,3.556586742401123,-7.770381450653076,5.318718910217285,-0.012776692397892475,-0.0021294488105922937,0.007985432632267475
18364729362025,3.5254619121551514,-7.735665798187256,5.348646640777588,-0.014906140975654125,-0.0015970865497365594,0.010913425125181675
18364730599262,3.536236047744751,-7.767987251281738,5.365406036376953,-0.01410759799182415,-0.0013309054775163531,0.012510511092841625
18364731836487,3.536236047744751,-7.7883381843566895,5.275623321533203,-0.0210283063352108,-0.00692070834338665,0.008517795242369175
18364733073725,3.5290534496307373,-7.7895355224609375,5.287594318389893,-0.0162370465695858,-0.005057440605014563,0.0077192517928779125
18364734310962,3.536236047744751,-7.77756404876709,5.34625244140625,-0.01889885775744915,-0.00452507846057415,0.0173017717897892
18364735548187,3.5697548389434814,-7.782352447509766,5.352238178253174,-0.01836649514734745,-0.0037265352439135313,0.0210283063352108
18364736785425,3.5206735134124756,-7.779958248138428,5.30076265335083,-0.01463996060192585,-0.0013309054775163531,0.012776692397892475
18364738022662,3.5458128452301025,-7.7643961906433105,5.352238178253174,-0.0196974016726017,-0.0026618109550327063,0.0119781494140625
18364739259887,3.5278563499450684,-7.781155586242676,5.306747913360596,-0.0204959437251091,-0.00452507846057415,0.01224433071911335
18364740497125,3.5733461380004883,-7.7655930519104,5.3342814445495605,-0.01650322787463665,-0.0042588976211845875,0.01943122036755085
18364741734337,3.5266590118408203,-7.772775650024414,5.331887245178223,-0.0138414166867733,-0.00692070834338665,0.0157046839594841
18364742971587,3.4955344200134277,-7.781155586242676,5.2911858558654785,-0.0181003138422966,-0.007453070487827063,0.00984870083630085
18364744208812,3.5206735134124756,-7.778761386871338,5.319916248321533,-0.0228915736079216,0.0005323622026480734,0.013042873702943325
18364745446037,3.5003228187561035,-7.784747123718262,5.303156852722168,-0.0247548408806324,-0.0039927163161337376,0.015172322280704975
18364746683275,3.4536359310150146,-7.781155586242676,5.322310447692871,-0.01650322787463665,-0.010913425125181675,0.0181003138422966
18364747920500,3.4955344200134277,-7.775169849395752,5.2564697265625,-0.01889885775744915,-0.005057440605014563,0.012510511092841625
18364749157725,3.5027170181274414,-7.7871413230896,5.2911858558654785,-0.01943122036755085,-0.010381062515079975,0.014906140975654125
18364750394975,3.463212728500366,-7.802703380584717,5.266046524047852,-0.0191650390625,-0.0077192517928779125,0.01650322787463665
18364751632212,3.490746021270752,-7.8110833168029785,5.318718910217285,-0.02741665206849575,-0.0063883461989462376,0.012776692397892475
18364752869437,3.513490915298462,-7.7643961906433105,5.304353713989258,-0.02262539230287075,-0.0039927163161337376,0.0186326764523983
18364754106650,3.5242648124694824,-7.773972988128662,5.274426460266113,-0.0258195661008358,-0.00692070834338665,0.0173017717897892
18364755343887,3.5063083171844482,-7.783549785614014,5.2564697265625,-0.0282151959836483,-0.0026618109550327063,0.01597086526453495
18364756581125,3.535038948059082,-7.773972988128662,5.349843502044678,-0.02369011752307415,-0.007453070487827063,0.01943122036755085
18364757818362,3.4727895259857178,-7.801506519317627,5.30195951461792,-0.0228915736079216,-0.013042873702943325,0.0157046839594841
18364759055612,3.4991257190704346,-7.794323921203613,5.263652324676514,-0.02182685025036335,-0.00931633822619915,0.01996358297765255
18364760292837,3.5254619121551514,-7.762001991271973,5.260061264038086,-0.0228915736079216,-0.007453070487827063,0.02022976242005825
18364761530050,3.5027170181274414,-7.733271598815918,5.250484466552734,-0.02076212503015995,-0.0071868896484375,0.02182685025036335
18364762767300,3.463212728500366,-7.756016254425049,5.298368453979492,-0.02182685025036335,-0.005057440605014563,0.02874755859375
18364764004512,3.4620156288146973,-7.7201032638549805,5.294776916503906,-0.0181003138422966,-0.008517795242369175,0.02422248013317585
18364765241750,3.4787750244140625,-7.746439456939697,5.299565315246582,-0.01836649514734745,-0.00931633822619915,0.02369011752307415
18364766478975,3.4596214294433594,-7.739256858825684,5.297171115875244,-0.0210283063352108,-0.0090501569211483,0.023956298828125
18364767716225,3.494337320327759,-7.723694801330566,5.284003257751465,-0.014906140975654125,-0.008517795242369175,0.0252872034907341
18364768953437,3.4811692237854004,-7.740454196929932,5.276820659637451,-0.01357523538172245,0.0,0.0314093679189682
18364770190687,3.5003228187561035,-7.7763671875,5.284003257751465,-0.01836649514734745,-0.006122165359556675,0.02741665206849575
18364771427937,3.488351821899414,-7.7416510581970215,5.284003257751465,-0.01889885775744915,-0.014906140975654125,0.0276828333735466
18364772665162,3.4787750244140625,-7.733271598815918,5.272032260894775,-0.01410759799182415,-0.01117960549890995,0.03087700717151165
18364773902375,3.5003228187561035,-7.7631988525390625,5.2696380615234375,-0.012776692397892475,-0.0077192517928779125,0.0268842913210392
18364775139612,3.5039141178131104,-7.754819393157959,5.292382717132568,-0.01836649514734745,-0.010381062515079975,0.03087700717151165
18364776376850,3.4955344200134277,-7.7416510581970215,5.2911858558654785,-0.0191650390625,-0.013042873702943325,0.0340711809694767
18364777614075,3.490746021270752,-7.7655930519104,5.276820659637451,-0.0173017717897892,-0.013042873702943325,0.038330078125
18364778851300,3.4967315196990967,-7.752425193786621,5.272032260894775,-0.02022976242005825,-0.007985432632267475,0.0372653529047966
18364780088550,3.5206735134124756,-7.760804653167725,5.266046524047852,-0.0191650390625,-0.005057440605014563,0.0364668108522892
18364781325775,3.4763808250427246,-7.7213006019592285,5.297171115875244,-0.0157046839594841,-0.008783976547420025,0.0364668108522892
18364782562987,3.512293815612793,-7.722497463226318,5.317522048950195,-0.0162370465695858,-0.01117960549890995,0.0407257080078125
18364783800225,3.466804027557373,-7.733271598815918,5.280411720275879,-0.01597086526453495,-0.01171196810901165,0.043121337890625
18364785037462,3.47039532661438,-7.7416510581970215,5.292382717132568,-0.00984870083630085,-0.008251613937318325,0.0415242500603199
18364786274712,3.4991257190704346,-7.740454196929932,5.246892929077148,-0.01117960549890995,-0.005855984054505825,0.0388624407351017
18364787511925,3.5158851146698,-7.753622055053711,5.286397457122803,-0.010381062515079975,-0.0114457868039608,0.0444522425532341
18364788749187,3.5254619121551514,-7.715314865112305,5.236119270324707,-0.008783976547420025,-0.0167694091796875,0.0449846051633358
18364789986400,3.487154722213745,-7.7428483963012695,5.258863925933838,-0.00931633822619915,-0.013309055007994175,0.0396609827876091
18364791223637,3.4739866256713867,-7.740454196929932,5.233725070953369,-0.014906140975654125,-0.010913425125181675,0.0407257080078125
18364792460862,3.463212728500366,-7.758410453796387,5.230133533477783,-0.01410759799182415,-0.008783976547420025,0.0391286201775074
18364793698087,3.442862033843994,-7.7416510581970215,5.261258125305176,-0.008783976547420025,-0.01171196810901165,0.0433875173330307
18364794935337,3.463212728500366,-7.790732383728027,5.237316131591797,-0.012776692397892475,-0.013042873702943325,0.0439198799431324
18364796172550,3.4584243297576904,-7.805097579956055,5.238513469696045,-0.014373779296875,-0.015438503585755825,0.0375315360724926
18364797409787,3.444059133529663,-7.784747123718262,5.264849662780762,-0.01357523538172245,-0.013042873702943325,0.0359344482421875
18364798647025,3.4380736351013184,-7.785943984985352,5.236119270324707,-0.010381062515079975,-0.013309055007994175,0.0348697230219841
18364799884262,3.463212728500366,-7.818265914916992,5.2444987297058105,-0.008517795242369175,-0.015438503585755825,0.0348697230219841
18364801121475,3.4165258407592773,-7.801506519317627,5.2672438621521,-0.00931633822619915,-0.013309055007994175,0.0362006276845932
18364802358725,3.4548330307006836,-7.762001991271973,5.220556735992432,-0.012510511092841625,-0.013309055007994175,0.0343373604118824
18364803595950,3.4368765354156494,-7.739256858825684,5.232527732849121,-0.0173017717897892,-0.008251613937318325,0.02874755859375
18364804833187,3.3949780464172363,-7.769184589385986,5.233725070953369,-0.01357523538172245,-0.010381062515079975,0.0292799212038517
18364806070400,3.3937809467315674,-7.748833656311035,5.240907669067383,-0.013309055007994175,-0.01224433071911335,0.02848137728869915
18364807307650,3.4356794357299805,-7.735665798187256,5.2229509353637695,-0.00984870083630085,-0.010114881210029125,0.0295461006462574
18364808544862,3.4344823360443115,-7.752425193786621,5.207388877868652,-0.008783976547420025,-0.010913425125181675,0.0276828333735466
18364809782100,3.4787750244140625,-7.735665798187256,5.260061264038086,-0.01357523538172245,-0.013042873702943325,0.0316755510866642
18364811019337,3.444059133529663,-7.7416510581970215,5.262455463409424,-0.013309055007994175,-0.01703559048473835,0.03034464456140995
18364812256562,3.446453332901001,-7.73087739944458,5.2696380615234375,-0.01410759799182415,-0.01410759799182415,0.02422248013317585
18364813493812,3.427299737930298,-7.69735860824585,5.306747913360596,-0.0167694091796875,-0.013042873702943325,0.02129448764026165
18364814731037,3.463212728500366,-7.703343868255615,5.292382717132568,-0.0186326764523983,-0.01224433071911335,0.0292799212038517
18364815968275,3.445256233215332,-7.663839817047119,5.257667064666748,-0.01171196810901165,-0.013309055007994175,0.02874755859375
18364817205487,3.441664934158325,-7.68538761138916,5.266046524047852,-0.008517795242369175,-0.014373779296875,0.0234239362180233
18364818442750,3.4560301303863525,-7.714118003845215,5.280411720275879,-0.008517795242369175,-0.015172322280704975,0.023956298828125
18364819679962,3.3961751461029053,-7.68538761138916,5.273229122161865,-0.014373779296875,-0.01756795309484005,0.0215606689453125
18364820917187,3.4081461429595947,-7.679401874542236,5.232527732849121,-0.005057440605014563,-0.0191650390625,0.0276828333735466
18364822154437,3.400963544845581,-7.68538761138916,5.275623321533203,-0.005057440605014563,-0.01410759799182415,0.02262539230287075
18364823391675,3.4392707347869873,-7.717709064483643,5.260061264038086,-0.005057440605014563,-0.012776692397892475,0.0234239362180233
18364824628912,3.448847532272339,-7.684190273284912,5.242104530334473,-0.0053236219100654125,-0.01463996060192585,0.02182685025036335
18364825866125,3.406949043273926,-7.682993412017822,5.2014031410217285,-0.0039927163161337376,-0.01756795309484005,0.0215606689453125
18364827103337,3.377021551132202,-7.706935405731201,5.250484466552734,-0.0021294488105922937,-0.0173017717897892,0.02076212503015995
18364828340587,3.428496837615967,-7.669825077056885,5.240907669067383,-0.0015970865497365594,-0.01410759799182415,0.0306108258664608
18364829577837,3.426102638244629,-7.6566572189331055,5.2265424728393555,-0.0031941730994731188,-0.014906140975654125,0.02901373989880085
18364830815050,3.423708438873291,-7.68658447265625,5.238513469696045,-0.0026618109550327063,-0.0077192517928779125,0.0223592109978199
18364832052300,3.445256233215332,-7.705738067626953,5.263652324676514,-0.0007985432748682797,-0.00931633822619915,0.02608574740588665
18364833289500,3.4296939373016357,-7.724891662597656,5.264849662780762,0.0,-0.010381062515079975,0.0244886614382267
18364834526750,3.423708438873291,-7.718906402587891,5.230133533477783,0.0015970865497365594,-0.0071868896484375,0.02422248013317585
18364835763975,3.4117374420166016,-7.672219276428223,5.273229122161865,0.0023956298828125,-0.01463996060192585,0.0215606689453125
18364837001200,3.3901896476745605,-7.6746134757995605,5.260061264038086,0.0015970865497365594,-0.015172322280704975,0.0210283063352108
18364838238450,3.4356794357299805,-7.680599212646484,5.2564697265625,0.005057440605014563,-0.014373779296875,0.02369011752307415
18364839475662,3.4392707347869873,-7.673416614532471,5.232527732849121,0.0090501569211483,-0.007985432632267475,0.02848137728869915
18364840712900,3.3901896476745605,-7.694964408874512,5.294776916503906,0.005855984054505825,-0.012510511092841625,0.0258195661008358
18364841950150,3.383007049560547,-7.659051418304443,5.264849662780762,0.0029279920272529125,-0.0138414166867733,0.02502102218568325
18364843187375,3.4620156288146973,-7.660248279571533,5.258863925933838,0.005057440605014563,-0.010114881210029125,0.0268842913210392
18364844424600,3.4153287410736084,-7.696161270141602,5.227739334106445,0.0063883461989462376,-0.012510511092841625,0.0234239362180233
18364845661850,3.3937809467315674,-7.672219276428223,5.233725070953369,0.0090501569211483,-0.01117960549890995,0.02794901467859745
18364846899075,3.4344823360443115,-7.727285861968994,5.215768337249756,0.01597086526453495,-0.012510511092841625,0.02901373989880085
18364848136300,3.3901896476745605,-7.696161270141602,5.207388877868652,0.01171196810901165,-0.013309055007994175,0.02022976242005825
18364849373537,3.3889925479888916,-7.6985554695129395,5.2480902671813965,0.0138414166867733,-0.01171196810901165,0.0223592109978199
18364850610762,3.3961751461029053,-7.690176010131836,5.227739334106445,0.0186326764523983,-0.0119781494140625,0.0215606689453125
18364851848000,3.3710360527038574,-7.712920665740967,5.240907669067383,0.010913425125181675,-0.00692070834338665,0.0220930315554142
18364853085250,3.4117374420166016,-7.69735860824585,5.263652324676514,0.01171196810901165,-0.00984870083630085,0.0252872034907341
18364854322462,3.3734302520751953,-7.724891662597656,5.2444987297058105,0.01463996060192585,-0.0071868896484375,0.02608574740588665
18364855559687,3.4117374420166016,-7.745242595672607,5.237316131591797,0.0162370465695858,-0.005855984054505825,0.023956298828125
18364856796912,3.384204149246216,-7.745242595672607,5.2229509353637695,0.010913425125181675,-0.010114881210029125,0.0210283063352108
18364858034162,3.3913867473602295,-7.797914981842041,5.257667064666748,0.012776692397892475,-0.01171196810901165,0.0215606689453125
18364859271387,3.4093432426452637,-7.7631988525390625,5.257667064666748,0.012776692397892475,-0.00984870083630085,0.02369011752307415
18364860508625,3.4093432426452637,-7.750030994415283,5.278017520904541,0.00984870083630085,-0.008517795242369175,0.0220930315554142
18364861745850,3.3494882583618164,-7.751227855682373,5.276820659637451,0.0090501569211483,-0.004791259765625,0.02129448764026165
18364862983075,3.362656354904175,-7.7428483963012695,5.218162536621094,0.012510511092841625,-0.0031941730994731188,0.0181003138422966
18364864220325,3.377021551132202,-7.747636795043945,5.264849662780762,0.013309055007994175,-0.008251613937318325,0.02129448764026165
18364865457550,3.3650505542755127,-7.758410453796387,5.262455463409424,0.014373779296875,-0.0071868896484375,0.0220930315554142
18364866694787,3.3303346633911133,-7.7895355224609375,5.287594318389893,0.01597086526453495,-0.0090501569211483,0.01783413253724575
18364867932025,3.3255462646484375,-7.779958248138428,5.2899885177612305,0.013042873702943325,-0.00931633822619915,0.0181003138422966
18364869169262,3.339911460876465,-7.7631988525390625,5.297171115875244,0.010114881210029125,0.0005323622026480734,0.0191650390625
18364870406487,3.3494882583618164,-7.815871715545654,5.274426460266113,0.0157046839594841,-0.005589802749454975,0.0138414166867733
18364871643700,3.3423056602478027,-7.796718120574951,5.234921932220459,0.01410759799182415,-0.008517795242369175,0.0162370465695858
18364872880950,3.375824451446533,-7.802703380584717,5.260061264038086,0.013042873702943325,-0.006122165359556675,0.01996358297765255
18364874118175,3.339911460876465,-7.813477516174316,5.316324710845947,0.00958251953125,-0.003460354171693325,0.0204959437251091
18364875355412,3.3506853580474854,-7.815871715545654,5.260061264038086,0.00984870083630085,-0.003460354171693325,0.012776692397892475
18364876592650,3.354276657104492,-7.77756404876709,5.288791656494141,0.008251613937318325,-0.0007985432748682797,0.015438503585755825
18364877829887,3.3710360527038574,-7.781155586242676,5.299565315246582,0.01224433071911335,0.0,0.0181003138422966
18364879067100,3.3746273517608643,-7.796718120574951,5.292382717132568,0.0031941730994731188,0.0010647244052961469,0.0138414166867733
18364880304350,3.3901896476745605,-7.779958248138428,5.282805919647217,0.0063883461989462376,-0.0015970865497365594,0.0196974016726017
18364881541562,3.35667085647583,-7.784747123718262,5.278017520904541,0.00931633822619915,-0.0007985432748682797,0.01410759799182415
18364882778787,3.3482911586761475,-7.77756404876709,5.274426460266113,0.008783976547420025,0.0013309054775163531,0.01357523538172245
18364884016050,3.3530795574188232,-7.796718120574951,5.298368453979492,0.0071868896484375,0.0002661811013240367,0.01783413253724575
18364885253275,3.315969467163086,-7.782352447509766,5.292382717132568,0.0077192517928779125,0.0026618109550327063,0.0157046839594841
18364886490500,3.360262155532837,-7.778761386871338,5.286397457122803,0.005855984054505825,0.0029279920272529125,0.013309055007994175
18364887727737,3.33392596244812,-7.769184589385986,5.293580055236816,0.0090501569211483,0.003460354171693325,0.0167694091796875
18364888964962,3.3686418533325195,-7.7655930519104,5.275623321533203,0.003460354171693325,0.005855984054505825,0.0138414166867733
18364890202200,3.3710360527038574,-7.767987251281738,5.274426460266113,0.0026618109550327063,0.0039927163161337376,0.01597086526453495
18364891439412,3.3662476539611816,-7.785943984985352,5.282805919647217,0.0053236219100654125,0.0066545275039970875,0.0167694091796875
18364892676650,3.3530795574188232,-7.759607791900635,5.280411720275879,0.0063883461989462376,0.0071868896484375,0.0114457868039608
18364893913887,3.3925838470458984,-7.781155586242676,5.2696380615234375,0.0053236219100654125,0.00931633822619915,0.0162370465695858
18364895151137,3.332728862762451,-7.77756404876709,5.294776916503906,0.0090501569211483,0.00931633822619915,0.013042873702943325
18364896388362,3.35667085647583,-7.7631988525390625,5.276820659637451,0.0138414166867733,0.005855984054505825,0.01224433071911335
18364897625587,3.3949780464172363,-7.7643961906433105,5.287594318389893,0.0042588976211845875,0.00958251953125,0.0119781494140625
18364898862812,3.3674447536468506,-7.760804653167725,5.25527286529541,0.0039927163161337376,0.010647243820130825,0.007985432632267475
18364900100062,3.3877954483032227,-7.797914981842041,5.263652324676514,0.0114457868039608,0.007985432632267475,0.0023956298828125
18364901337287,3.3734302520751953,-7.745242595672607,5.260061264038086,0.005057440605014563,0.008783976547420025,0.008251613937318325
18364902574512,3.3961751461029053,-7.751227855682373,5.340266704559326,0.005855984054505825,0.013042873702943325,0.012510511092841625
18364903811737,3.3518824577331543,-7.758410453796387,5.321113109588623,0.0077192517928779125,0.01463996060192585,0.0090501569211483
18364905048987,3.3710360527038574,-7.750030994415283,5.310339450836182,0.00958251953125,0.010381062515079975,0.006122165359556675
18364906286225,3.3865983486175537,-7.773972988128662,5.324704647064209,0.010381062515079975,0.008783976547420025,0.0119781494140625
18364907523450,3.3518824577331543,-7.7416510581970215,5.282805919647217,0.006122165359556675,0.014373779296875,0.015438503585755825
18364908760675,3.384204149246216,-7.7871413230896,5.321113109588623,0.005855984054505825,0.01836649514734745,0.010381062515079975
18364909997912,3.4105403423309326,-7.771578788757324,5.316324710845947,0.0042588976211845875,0.0157046839594841,0.010647243820130825
18364911235150,3.384204149246216,-7.771578788757324,5.286397457122803,0.00931633822619915,0.012776692397892475,0.008517795242369175
18364912472375,3.37941575050354,-7.754819393157959,5.325901508331299,0.0077192517928779125,0.01703559048473835,0.010647243820130825
18364913709625,3.3746273517608643,-7.779958248138428,5.30195951461792,0.0063883461989462376,0.01756795309484005,0.00958251953125
18364914946837,3.375824451446533,-7.7763671875,5.288791656494141,0.00931633822619915,0.0138414166867733,0.005855984054505825
18364916184062,3.3949780464172363,-7.7655930519104,5.306747913360596,0.007985432632267475,0.01224433071911335,0.008251613937318325
18364917421300,3.4153287410736084,-7.806294918060303,5.329493045806885,0.0039927163161337376,0.01171196810901165,0.010381062515079975
18364918658537,3.3913867473602295,-7.77756404876709,5.315127849578857,0.00452507846057415,0.01410759799182415,0.008783976547420025
18364919895762,3.381809949874878,-7.756016254425049,5.327098846435547,0.0018632676219567657,0.01943122036755085,0.0039927163161337376
18364921132987,3.4093432426452637,-7.808689117431641,5.316324710845947,0.0037265352439135313,0.01889885775744915,0.007453070487827063
18364922370225,3.421314239501953,-7.7763671875,5.309142112731934,0.003460354171693325,0.0186326764523983,0.0077192517928779125
18364923607462,3.3913867473602295,-7.740454196929932,5.309142112731934,0.0029279920272529125,0.01943122036755085,-0.0005323622026480734
18364924844700,3.441664934158325,-7.744045257568359,5.286397457122803,0.0077192517928779125,0.015438503585755825,0.010913425125181675
18364926081937,3.4512417316436768,-7.791929721832275,5.279214859008789,0.005855984054505825,0.01224433071911335,0.00984870083630085
18364927319150,3.4356794357299805,-7.767987251281738,5.341464042663574,0.0015970865497365594,0.013309055007994175,0.0063883461989462376
18364928556400,3.448847532272339,-7.778761386871338,5.274426460266113,0.0063883461989462376,0.0157046839594841,0.007985432632267475
18364929793637,3.3913867473602295,-7.793126583099365,5.286397457122803,0.0031941730994731188,0.0138414166867733,0.0071868896484375
18364931030862,3.421314239501953,-7.7763671875,5.324704647064209,0.0015970865497365594,0.0167694091796875,0.007453070487827063
18364932268087,3.4536359310150146,-7.779958248138428,5.281609058380127,0.0037265352439135313,0.0167694091796875,0.01117960549890995
18364933505337,3.405751943588257,-7.794323921203613,5.293580055236816,0.0071868896484375,0.0186326764523983,0.008517795242369175
18364934742537,3.4620156288146973,-7.748833656311035,5.275623321533203,0.0039927163161337376,0.014373779296875,0.010381062515079975
18364935979787,3.404554843902588,-7.7655930519104,5.284003257751465,0.0037265352439135313,0.014906140975654125,0.01357523538172245
18364937217025,3.471592426300049,-7.750030994415283,5.303156852722168,-0.0005323622026480734,0.01703559048473835,0.010647243820130825
18364938454250,3.4081461429595947,-7.791929721832275,5.367800235748291,-0.0042588976211845875,0.0186326764523983,0.0077192517928779125
18364939691487,3.4548330307006836,-7.756016254425049,5.327098846435547,0.0007985432748682797,0.013309055007994175,0.00692070834338665
18364940928712,3.4296939373016357,-7.778761386871338,5.3342814445495605,0.0023956298828125,0.01943122036755085,0.00452507846057415
18364942165937,3.4356794357299805,-7.760804653167725,5.330689907073975,0.0026618109550327063,0.0186326764523983,0.0090501569211483
18364943403187,3.4332852363586426,-7.782352447509766,5.288791656494141,0.0026618109550327063,0.01703559048473835,0.008783976547420025
18364944640412,3.404554843902588,-7.7763671875,5.287594318389893,0.0002661811013240367,0.01889885775744915,-0.0018632676219567657
18364945877637,3.4105403423309326,-7.767987251281738,5.293580055236816,0.0023956298828125,0.0162370465695858,0.00452507846057415
18364947114862,3.426102638244629,-7.715314865112305,5.263652324676514,0.005855984054505825,0.014906140975654125,0.013042873702943325
18364948352125,3.4572272300720215,-7.778761386871338,5.30195951461792,0.0071868896484375,0.013309055007994175,0.013309055007994175
18364949589325,3.423708438873291,-7.781155586242676,5.292382717132568,0.0015970865497365594,0.0196974016726017,-0.0015970865497365594
18364950826575,3.4536359310150146,-7.806294918060303,5.328295707702637,-0.0005323622026480734,0.01836649514734745,0.0
18364952063800,3.4320881366729736,-7.744045257568359,5.327098846435547,-0.0015970865497365594,0.01410759799182415,0.007985432632267475
18364953301050,3.450044631958008,-7.760804653167725,5.281609058380127,0.0013309054775163531,0.015438503585755825,0.010913425125181675
18364954538262,3.450044631958008,-7.7631988525390625,5.310339450836182,0.0042588976211845875,0.014906140975654125,0.00452507846057415
18364955775512,3.445256233215332,-7.718906402587891,5.337872505187988,0.0,0.01224433071911335,0.005855984054505825
18364957012712,3.42490553855896,-7.782352447509766,5.310339450836182,0.0,0.0138414166867733,0.01357523538172245
18364958249962,3.4081461429595947,-7.802703380584717,5.282805919647217,-0.0031941730994731188,0.01410759799182415,0.0119781494140625
18364959487200,3.450044631958008,-7.773972988128662,5.3330841064453125,-0.0037265352439135313,0.012510511092841625,0.0026618109550327063
18364960724437,3.4727895259857178,-7.756016254425049,5.304353713989258,0.0031941730994731188,0.0119781494140625,0.0066545275039970875
18364961961662,3.445256233215332,-7.775169849395752,5.319916248321533,0.003460354171693325,0.014373779296875,0.01117960549890995
18364963198887,3.3901896476745605,-7.747636795043945,5.331887245178223,-0.004791259765625,0.01650322787463665,0.008783976547420025
18364964436125,3.4404678344726562,-7.766790390014648,5.329493045806885,0.0005323622026480734,0.01410759799182415,0.008251613937318325
18364965673350,3.44765043258667,-7.751227855682373,5.275623321533203,-0.0010647244052961469,0.013042873702943325,0.005589802749454975
18364966910575,3.4620156288146973,-7.779958248138428,5.317522048950195,0.0029279920272529125,0.01224433071911335,0.0053236219100654125
18364968147837,3.428496837615967,-7.744045257568359,5.352238178253174,0.0031941730994731188,0.008517795242369175,0.007453070487827063
18364969385062,3.446453332901001,-7.728483200073242,5.3594207763671875,-0.0007985432748682797,0.0181003138422966,0.012510511092841625
18364970622287,3.4560301303863525,-7.729680061340332,5.339069843292236,-0.005855984054505825,0.0138414166867733,0.010913425125181675
18364971859525,3.463212728500366,-7.797914981842041,5.288791656494141,-0.0013309054775163531,0.010647243820130825,0.007985432632267475
18364973096750,3.44765043258667,-7.744045257568359,5.293580055236816,-0.0018632676219567657,0.0090501569211483,0.010381062515079975
18364974333987,3.4620156288146973,-7.778761386871338,5.298368453979492,-0.0010647244052961469,0.013309055007994175,0.0138414166867733
18364975571212,3.507505416870117,-7.7631988525390625,5.3342814445495605,0.0015970865497365594,0.0090501569211483,0.012776692397892475
18364976808450,3.4512417316436768,-7.736862659454346,5.281609058380127,-0.0023956298828125,0.00984870083630085,0.0119781494140625
18364978045687,3.450044631958008,-7.794323921203613,5.288791656494141,0.0007985432748682797,0.008517795242369175,0.010647243820130825
18364979282925,3.491943120956421,-7.733271598815918,5.309142112731934,-0.0015970865497365594,0.00984870083630085,0.007453070487827063
18364980520162,3.441664934158325,-7.718906402587891,5.2899885177612305,0.0010647244052961469,0.008783976547420025,0.008783976547420025
18364981757387,3.4584243297576904,-7.735665798187256,5.329493045806885,-0.0029279920272529125,0.00692070834338665,0.012776692397892475
18364982994612,3.466804027557373,-7.7201032638549805,5.345055103302002,-0.0023956298828125,0.005855984054505825,0.010647243820130825
18364984231850,3.4847605228424072,-7.740454196929932,5.294776916503906,0.0005323622026480734,0.006122165359556675,0.0071868896484375
18364985469075,3.468001127243042,-7.753622055053711,5.323507308959961,-0.0013309054775163531,0.007453070487827063,0.0071868896484375
18364986706312,3.426102638244629,-7.718906402587891,5.2899885177612305,0.0029279920272529125,0.0071868896484375,0.014906140975654125
18364987943537,3.4620156288146973,-7.772775650024414,5.318718910217285,0.00452507846057415,0.0053236219100654125,0.01357523538172245
18364989180787,3.4596214294433594,-7.747636795043945,5.34744930267334,0.0026618109550327063,0.0090501569211483,0.01171196810901165
18364990418012,3.4727895259857178,-7.748833656311035,5.275623321533203,0.008783976547420025,0.0053236219100654125,0.0090501569211483
18364991655225,3.5039141178131104,-7.756016254425049,5.294776916503906,0.0042588976211845875,0.0007985432748682797,0.005057440605014563
18364992892462,3.485957622528076,-7.734468460083008,5.342660903930664,0.0053236219100654125,0.0029279920272529125,0.012776692397892475
18364994129700,3.4751837253570557,-7.736862659454346,5.287594318389893,0.0042588976211845875,0.0010647244052961469,0.014373779296875
18364995366937,3.4308910369873047,-7.744045257568359,5.272032260894775,0.0037265352439135313,-0.0023956298828125,0.014906140975654125
18364996604187,3.4739866256713867,-7.739256858825684,5.307945251464844,0.003460354171693325,0.0031941730994731188,0.01597086526453495
18364997841412,3.4584243297576904,-7.733271598815918,5.329493045806885,-0.0005323622026480734,0.005057440605014563,0.010647243820130825
18364999078625,3.4811692237854004,-7.752425193786621,5.287594318389893,0.005855984054505825,0.00452507846057415,0.0119781494140625
18365000315875,3.494337320327759,-7.751227855682373,5.262455463409424,0.00452507846057415,0.0021294488105922937,0.008783976547420025
18365001553087,3.4344823360443115,-7.748833656311035,5.298368453979492,-0.0029279920272529125,0.0018632676219567657,0.012776692397892475
18365002790337,3.4380736351013184,-7.723694801330566,5.2899885177612305,0.0021294488105922937,0.0037265352439135313,0.0138414166867733
18365004027562,3.4596214294433594,-7.750030994415283,5.340266704559326,0.0042588976211845875,0.00452507846057415,0.01703559048473835
18365005264787,3.4332852363586426,-7.770381450653076,5.316324710845947,0.0026618109550327063,0.0013309054775163531,0.012776692397892475
18365006502025,3.4404678344726562,-7.739256858825684,5.293580055236816,0.0007985432748682797,-0.0007985432748682797,0.0077192517928779125
18365007739262,3.4596214294433594,-7.733271598815918,5.313930511474609,0.00958251953125,0.0005323622026480734,0.0114457868039608
18365008976500,3.4404678344726562,-7.735665798187256,5.328295707702637,0.0029279920272529125,0.003460354171693325,0.01650322787463665
18365010213725,3.4368765354156494,-7.7763671875,5.309142112731934,0.0023956298828125,-0.0026618109550327063,0.012510511092841625
18365011450975,3.44765043258667,-7.759607791900635,5.323507308959961,0.006122165359556675,-0.0026618109550327063,0.01171196810901165
18365012688187,3.4356794357299805,-7.739256858825684,5.310339450836182,0.0018632676219567657,0.0002661811013240367,0.014906140975654125
18365013925425,3.4847605228424072,-7.767987251281738,5.341464042663574,0.0031941730994731188,-0.0023956298828125,0.0157046839594841
18365015162650,3.4356794357299805,-7.7871413230896,5.352238178253174,0.0071868896484375,-0.007985432632267475,0.014373779296875
18365016399887,3.4608185291290283,-7.750030994415283,5.327098846435547,0.0077192517928779125,-0.0023956298828125,0.0167694091796875
18365017637125,3.42490553855896,-7.7201032638549805,5.327098846435547,0.0026618109550327063,-0.0007985432748682797,0.01597086526453495
18365018874350,3.421314239501953,-7.745242595672607,5.331887245178223,0.0077192517928779125,-0.0026618109550327063,0.0119781494140625
18365020111587,3.4177229404449463,-7.7428483963012695,5.33547830581665,0.003460354171693325,-0.0021294488105922937,0.01357523538172245
18365021348812,3.426102638244629,-7.728483200073242,5.3115363121032715,0.005057440605014563,0.0021294488105922937,0.01224433071911335
18365022586062,3.42490553855896,-7.734468460083008,5.368997573852539,0.00931633822619915,-0.0037265352439135313,0.01224433071911335
18365023823300,3.4296939373016357,-7.711723804473877,5.315127849578857,0.01117960549890995,-0.0071868896484375,0.013042873702943325
18365025060512,3.4608185291290283,-7.740454196929932,5.3342814445495605,0.00452507846057415,-0.0037265352439135313,0.01410759799182415
18365026297750,3.421314239501953,-7.740454196929932,5.329493045806885,0.0026618109550327063,0.0007985432748682797,0.013309055007994175
18365027534987,3.463212728500366,-7.675810813903809,5.287594318389893,0.008517795242369175,0.0,0.013042873702943325
18365028772212,3.4356794357299805,-7.752425193786621,5.317522048950195,0.0077192517928779125,-0.0007985432748682797,0.01224433071911335
18365030009462,3.4320881366729736,-7.758410453796387,5.2911858558654785,0.003460354171693325,-0.0010647244052961469,0.014906140975654125
18365031246700,3.421314239501953,-7.754819393157959,5.324704647064209,0.0039927163161337376,-0.0023956298828125,0.012510511092841625
18365032483925,3.404554843902588,-7.762001991271973,5.349843502044678,0.0063883461989462376,0.0005323622026480734,0.015172322280704975
18365033721162,3.397372245788574,-7.710526466369629,5.342660903930664,0.005855984054505825,0.0018632676219567657,0.01756795309484005
18365034958375,3.420117139816284,-7.708132266998291,5.341464042663574,0.0015970865497365594,-0.0013309054775163531,0.01943122036755085
18365036195625,3.446453332901001,-7.7213006019592285,5.304353713989258,0.0042588976211845875,-0.0013309054775163531,0.01943122036755085
18365037432850,3.4356794357299805,-7.735665798187256,5.339069843292236,0.00984870083630085,-0.0007985432748682797,0.01783413253724575
18365038670087,3.4320881366729736,-7.739256858825684,5.331887245178223,0.0039927163161337376,-0.0026618109550327063,0.01703559048473835
18365039907312,3.406949043273926,-7.724891662597656,5.330689907073975,0.010647243820130825,-0.003460354171693325,0.0204959437251091
18365041144537,3.465606927871704,-7.73087739944458,5.273229122161865,0.005057440605014563,-0.0037265352439135313,0.02315775491297245
18365042381787,3.397372245788574,-7.739256858825684,5.339069843292236,0.005589802749454975,-0.005855984054505825,0.02182685025036335
18365043619000,3.426102638244629,-7.728483200073242,5.345055103302002,0.0066545275039970875,-0.005057440605014563,0.0186326764523983
18365044856237,3.4368765354156494,-7.714118003845215,5.366603374481201,0.0018632676219567657,-0.0026618109550327063,0.0196974016726017
18365046093462,3.4344823360443115,-7.7428483963012695,5.318718910217285,0.007453070487827063,0.0010647244052961469,0.01943122036755085
18365047330725,3.427299737930298,-7.729680061340332,5.313930511474609,0.01463996060192585,-0.0015970865497365594,0.0215606689453125
18365048567937,3.423708438873291,-7.758410453796387,5.351040840148926,0.010913425125181675,-0.0021294488105922937,0.0252872034907341
18365049805175,3.3674447536468506,-7.751227855682373,5.341464042663574,0.007985432632267475,-0.0042588976211845875,0.0220930315554142
18365051042412,3.397372245788574,-7.7416510581970215,5.30076265335083,0.003460354171693325,0.0010647244052961469,0.0210283063352108
18365052279650,3.3937809467315674,-7.69735860824585,5.323507308959961,0.007985432632267475,-0.005589802749454975,0.0220930315554142
18365053516875,3.3674447536468506,-7.767987251281738,5.337872505187988,0.010114881210029125,-0.00931633822619915,0.0228915736079216
18365054754112,3.3925838470458984,-7.790732383728027,5.329493045806885,0.0077192517928779125,-0.0018632676219567657,0.0223592109978199
18365055991337,3.427299737930298,-7.7643961906433105,5.352238178253174,0.00984870083630085,-0.0013309054775163531,0.0204959437251091
18365057228575,3.3650505542755127,-7.784747123718262,5.3582234382629395,0.012510511092841625,0.0,0.02262539230287075
18365058465812,3.3913867473602295,-7.779958248138428,5.323507308959961,0.008517795242369175,0.0015970865497365594,0.02369011752307415
18365059703037,3.357867956161499,-7.767987251281738,5.330689907073975,0.0090501569211483,-0.0013309054775163531,0.02315775491297245
18365060940287,3.4344823360443115,-7.778761386871338,5.34744930267334,0.0077192517928779125,-0.0015970865497365594,0.023956298828125
18365062177500,3.3877954483032227,-7.772775650024414,5.322310447692871,0.008517795242369175,-0.0021294488105922937,0.0244886614382267
18365063414750,3.397372245788574,-7.781155586242676,5.3809685707092285,0.010114881210029125,-0.0010647244052961469,0.02555338479578495
18365064651987,3.444059133529663,-7.758410453796387,5.394136428833008,0.008251613937318325,-0.0013309054775163531,0.023956298828125
18365065889212,3.397372245788574,-7.762001991271973,5.339069843292236,0.007453070487827063,0.0010647244052961469,0.02422248013317585
18365067126425,3.3854012489318848,-7.767987251281738,5.33547830581665,0.003460354171693325,0.0026618109550327063,0.0223592109978199
18365068363675,3.40216064453125,-7.702147006988525,5.325901508331299,0.0042588976211845875,-0.0023956298828125,0.0220930315554142
18365069600912,3.4117374420166016,-7.7416510581970215,5.293580055236816,0.010913425125181675,-0.0007985432748682797,0.0268842913210392
18365070838150,3.400963544845581,-7.760804653167725,5.330689907073975,0.0077192517928779125,0.0018632676219567657,0.0311431884765625
18365072075387,3.3877954483032227,-7.799112319946289,5.329493045806885,0.0039927163161337376,-0.0015970865497365594,0.0252872034907341
18365073312600,3.399766445159912,-7.771578788757324,5.355829238891602,0.0063883461989462376,0.003460354171693325,0.0234239362180233
18365074549850,3.3877954483032227,-7.773972988128662,5.341464042663574,0.007453070487827063,0.0010647244052961469,0.02848137728869915
18365075787062,3.427299737930298,-7.812280178070068,5.33547830581665,0.003460354171693325,-0.0037265352439135313,0.02369011752307415
18365077024300,3.37941575050354,-7.7631988525390625,5.336675643920898,0.007985432632267475,-0.0029279920272529125,0.0300784632563591
18365078261562,3.3877954483032227,-7.8110833168029785,5.341464042663574,0.0090501569211483,-0.0042588976211845875,0.0244886614382267
18365079498775,3.37941575050354,-7.767987251281738,5.3342814445495605,0.007985432632267475,-0.0042588976211845875,0.02182685025036335
18365080736000,3.421314239501953,-7.807491779327393,5.323507308959961,0.0063883461989462376,0.0,0.02874755859375
18365081973250,3.3722331523895264,-7.793126583099365,5.318718910217285,0.007453070487827063,0.0005323622026480734,0.0316755510866642
18365083210462,3.3734302520751953,-7.771578788757324,5.322310447692871,0.005057440605014563,-0.0026618109550327063,0.023956298828125
18365084447687,3.3949780464172363,-7.7763671875,5.349843502044678,0.0029279920272529125,-0.004791259765625,0.03087700717151165
18365085684925,3.380612850189209,-7.803900718688965,5.370194435119629,0.0029279920272529125,-0.0002661811013240367,0.03034464456140995
18365086922175,3.406949043273926,-7.790732383728027,5.376180171966553,0.0005323622026480734,0.0010647244052961469,0.02874755859375
18365088159412,3.405751943588257,-7.747636795043945,5.371391773223877,0.0010647244052961469,0.0,0.0228915736079216
18365089396637,3.383007049560547,-7.753622055053711,5.328295707702637,0.0005323622026480734,-0.00452507846057415,0.02502102218568325
18365090633875,3.4105403423309326,-7.7895355224609375,5.339069843292236,0.0026618109550327063,-0.0063883461989462376,0.0247548408806324
18365091871087,3.3949780464172363,-7.806294918060303,5.345055103302002,0.0013309054775163531,-0.0018632676219567657,0.0252872034907341
18365093108337,3.362656354904175,-7.783549785614014,5.33547830581665,0.0042588976211845875,0.0,0.0314093679189682
18365094345562,3.4117374420166016,-7.781155586242676,5.328295707702637,0.0053236219100654125,-0.0002661811013240367,0.0263519287109375
18365095582812,3.445256233215332,-7.7883381843566895,5.3594207763671875,0.0037265352439135313,-0.0037265352439135313,0.0223592109978199
18365096820037,3.4141316413879395,-7.795520782470703,5.4025163650512695,0.0007985432748682797,-0.0021294488105922937,0.02661811001598835
18365098057262,3.4129345417022705,-7.797914981842041,5.367800235748291,0.0021294488105922937,-0.00452507846057415,0.0276828333735466
18365099294512,3.37941575050354,-7.757213592529297,5.318718910217285,0.0005323622026480734,-0.005589802749454975,0.02741665206849575
18365100531725,3.37941575050354,-7.7763671875,5.373785972595215,0.003460354171693325,-0.004791259765625,0.023956298828125
18365101768962,3.381809949874878,-7.770381450653076,5.3127336502075195,0.0015970865497365594,-0.0031941730994731188,0.0311431884765625
18365103006187,3.404554843902588,-7.803900718688965,5.342660903930664,0.0005323622026480734,-0.0002661811013240367,0.0311431884765625
18365104243437,3.4165258407592773,-7.791929721832275,5.306747913360596,-0.0029279920272529125,-0.0037265352439135313,0.0282151959836483
18365105480662,3.403357744216919,-7.760804653167725,5.30076265335083,0.0005323622026480734,-0.00692070834338665,0.0263519287109375
18365106717875,3.3650505542755127,-7.778761386871338,5.34625244140625,0.0002661811013240367,-0.00692070834338665,0.0295461006462574
18365107955125,3.378218650817871,-7.778761386871338,5.365406036376953,0.0005323622026480734,-0.007985432632267475,0.02741665206849575
18365109192362,3.3686418533325195,-7.758410453796387,5.3330841064453125,-0.0015970865497365594,0.0,0.02502102218568325
18365110429600,3.3470940589904785,-7.801506519317627,5.324704647064209,-0.0063883461989462376,0.0029279920272529125,0.0276828333735466
18365111666825,3.4093432426452637,-7.738059997558594,5.371391773223877,0.0015970865497365594,-0.0021294488105922937,0.0300784632563591
18365112904075,3.384204149246216,-7.800309181213379,5.3594207763671875,0.0007985432748682797,-0.005589802749454975,0.0268842913210392
18365114141287,3.3913867473602295,-7.772775650024414,5.3594207763671875,-0.0002661811013240367,-0.005855984054505825,0.02848137728869915
18365115378500,3.354276657104492,-7.784747123718262,5.325901508331299,-0.007453070487827063,0.0,0.0300784632563591
18365116615762,3.3901896476745605,-7.814674377441406,5.286397457122803,-0.00452507846057415,-0.0015970865497365594,0.023956298828125
18365117852987,3.377021551132202,-7.814674377441406,5.281609058380127,-0.0031941730994731188,-0.0063883461989462376,0.0210283063352108
18365119090225,3.37941575050354,-7.806294918060303,5.306747913360596,-0.0002661811013240367,-0.0021294488105922937,0.02874755859375
18365120327462,3.3207578659057617,-7.813477516174316,5.321113109588623,-0.004791259765625,-0.0023956298828125,0.0263519287109375
18365121564700,3.336320161819458,-7.82066011428833,5.278017520904541,-0.010381062515079975,0.0018632676219567657,0.0244886614382267
18365122801912,3.3746273517608643,-7.814674377441406,5.299565315246582,-0.0063883461989462376,-0.007453070487827063,0.0263519287109375
18365124039150,3.3446998596191406,-7.8541789054870605,5.2911858558654785,-0.00984870083630085,-0.0021294488105922937,0.0234239362180233
18365125276400,3.332728862762451,-7.833827972412109,5.30076265335083,-0.005589802749454975,-0.0026618109550327063,0.02555338479578495
18365126513600,3.3458969593048096,-7.797914981842041,5.2899885177612305,-0.0039927163161337376,-0.00692070834338665,0.02981228195130825
18365127750850,3.3865983486175537,-7.82185697555542,5.3127336502075195,-0.010114881210029125,-0.008251613937318325,0.02608574740588665
18365128988087,3.3530795574188232,-7.7871413230896,5.305551052093506,-0.010647243820130825,0.0029279920272529125,0.02315775491297245
18365130225325,3.3267433643341064,-7.790732383728027,5.324704647064209,-0.010381062515079975,0.0002661811013240367,0.0258195661008358
18365131462550,3.359065055847168,-7.836222171783447,5.304353713989258,-0.0090501569211483,-0.005057440605014563,0.02848137728869915
18365132699787,3.3734302520751953,-7.808689117431641,5.280411720275879,-0.010913425125181675,-0.0013309054775163531,0.0268842913210392
18365133937000,3.3674447536468506,-7.791929721832275,5.313930511474609,-0.01224433071911335,-0.003460354171693325,0.0258195661008358
18365135174275,3.3470940589904785,-7.812280178070068,5.2911858558654785,-0.012510511092841625,-0.010114881210029125,0.0244886614382267
18365136411475,3.3458969593048096,-7.8110833168029785,5.293580055236816,-0.013309055007994175,-0.007985432632267475,0.02555338479578495
18365137648725,3.312378168106079,-7.802703380584717,5.3127336502075195,-0.0077192517928779125,-0.005855984054505825,0.0319417305290699
18365138885937,3.377021551132202,-7.7428483963012695,5.307945251464844,-0.008517795242369175,-0.0031941730994731188,0.0306108258664608
18365140123187,3.335123062133789,-7.722497463226318,5.321113109588623,-0.010114881210029125,0.0002661811013240367,0.0234239362180233
18365141360425,3.3315317630767822,-7.769184589385986,5.352238178253174,-0.0114457868039608,-0.0007985432748682797,0.0244886614382267
18365142597637,3.359065055847168,-7.753622055053711,5.305551052093506,-0.008517795242369175,-0.006122165359556675,0.0295461006462574
18365143834875,3.3506853580474854,-7.717709064483643,5.319916248321533,-0.010381062515079975,-0.006122165359556675,0.0327402763068676
18365145072112,3.3494882583618164,-7.718906402587891,5.288791656494141,-0.00984870083630085,-0.0090501569211483,0.0322079136967659
18365146309337,3.3446998596191406,-7.748833656311035,5.297171115875244,-0.008783976547420025,-0.003460354171693325,0.02901373989880085
18365147546562,3.3315317630767822,-7.770381450653076,5.30076265335083,-0.010647243820130825,-0.005855984054505825,0.02874755859375
18365148783825,3.3494882583618164,-7.782352447509766,5.264849662780762,-0.010381062515079975,-0.005589802749454975,0.02981228195130825
18365150021050,3.3482911586761475,-7.746439456939697,5.285200119018555,-0.004791259765625,-0.0037265352439135313,0.02901373989880085
18365151258275,3.3016042709350586,-7.748833656311035,5.262455463409424,0.0010647244052961469,-0.005057440605014563,0.0356682650744915
18365152495500,3.31118106842041,-7.752425193786621,5.266046524047852,-0.008251613937318325,-0.0042588976211845875,0.0343373604118824
18365153732750,3.314772367477417,-7.779958248138428,5.310339450836182,-0.00692070834338665,-0.003460354171693325,0.0324740931391716
18365154969987,3.3662476539611816,-7.771578788757324,5.319916248321533,-0.0042588976211845875,-0.007453070487827063,0.0351359061896801
18365156207212,3.338714361190796,-7.7428483963012695,5.292382717132568,-0.008517795242369175,-0.0039927163161337376,0.0330064557492733
18365157444450,3.31118106842041,-7.7655930519104,5.315127849578857,-0.0039927163161337376,-0.0021294488105922937,0.03087700717151165
18365158681662,3.3662476539611816,-7.754819393157959,5.257667064666748,-0.0037265352439135313,-0.0090501569211483,0.0338049978017807
18365159918925,3.381809949874878,-7.716512203216553,5.318718910217285,-0.0063883461989462376,-0.00931633822619915,0.0314093679189682
18365161156150,3.377021551132202,-7.771578788757324,5.3330841064453125,-0.0090501569211483,-0.008783976547420025,0.0295461006462574
18365162393387,3.362656354904175,-7.769184589385986,5.286397457122803,-0.0066545275039970875,-0.0066545275039970875,0.02874755859375
18365163630625,3.318363666534424,-7.739256858825684,5.310339450836182,-0.005589802749454975,-0.006122165359556675,0.0292799212038517
18365164867862,3.31118106842041,-7.722497463226318,5.282805919647217,-0.0021294488105922937,-0.0063883461989462376,0.0276828333735466
18365166105087,3.354276657104492,-7.724891662597656,5.276820659637451,-0.005057440605014563,-0.0007985432748682797,0.02874755859375
18365167342312,3.3315317630767822,-7.752425193786621,5.297171115875244,-0.005855984054505825,-0.005855984054505825,0.03087700717151165
18365168579537,3.3231520652770996,-7.744045257568359,5.331887245178223,-0.006122165359556675,-0.010381062515079975,0.0314093679189682
18365169816775,3.2980129718780518,-7.702147006988525,5.295974254608154,-0.0026618109550327063,-0.0066545275039970875,0.02315775491297245
18365171054025,3.3303346633911133,-7.7428483963012695,5.317522048950195,-0.00692070834338665,-0.0077192517928779125,0.023956298828125
18365172291237,3.318363666534424,-7.744045257568359,5.339069843292236,-0.00692070834338665,-0.00931633822619915,0.0220930315554142
18365173528475,3.359065055847168,-7.748833656311035,5.307945251464844,-0.005057440605014563,-0.01117960549890995,0.0228915736079216
18365174765712,3.3267433643341064,-7.766790390014648,5.279214859008789,-0.005589802749454975,-0.0066545275039970875,0.02182685025036335
18365176002950,3.3279404640197754,-7.751227855682373,5.310339450836182,-0.0029279920272529125,-0.0037265352439135313,0.0204959437251091
18365177240175,3.3291375637054443,-7.757213592529297,5.280411720275879,-0.0007985432748682797,-0.008251613937318325,0.01836649514734745
18365178477412,3.3506853580474854,-7.714118003845215,5.266046524047852,-0.0021294488105922937,-0.008517795242369175,0.0196974016726017
18365179714637,3.314772367477417,-7.778761386871338,5.2911858558654785,-0.0007985432748682797,-0.006122165359556675,0.0167694091796875
18365180951862,3.3255462646484375,-7.753622055053711,5.292382717132568,-0.006122165359556675,-0.007985432632267475,0.01836649514734745
18365182189100,3.3303346633911133,-7.7643961906433105,5.309142112731934,-0.00692070834338665,-0.00958251953125,0.01597086526453495
18365183426337,3.3028013706207275,-7.762001991271973,5.316324710845947,-0.003460354171693325,-0.0023956298828125,0.013042873702943325
18365184663587,3.3016042709350586,-7.734468460083008,5.303156852722168,-0.0031941730994731188,-0.0071868896484375,0.01171196810901165
18365185900837,3.335123062133789,-7.7763671875,5.319916248321533,-0.0031941730994731188,-0.006122165359556675,0.008783976547420025
18365187138062,3.3530795574188232,-7.762001991271973,5.313930511474609,-0.005589802749454975,-0.005057440605014563,0.00958251953125
18365188375287,3.3435027599334717,-7.760804653167725,5.305551052093506,-0.0031941730994731188,-0.0053236219100654125,0.0053236219100654125
18365189612525,3.3482911586761475,-7.756016254425049,5.330689907073975,-0.0021294488105922937,-0.00692070834338665,0.0031941730994731188
18365190849750,3.336320161819458,-7.770381450653076,5.365406036376953,-0.0026618109550327063,-0.0031941730994731188,0.0021294488105922937
18365192086962,3.332728862762451,-7.779958248138428,5.3797712326049805,-0.0010647244052961469,-0.00452507846057415,0.0026618109550327063
18365193324200,3.341108560562134,-7.784747123718262,5.354632377624512,0.0026618109550327063,-0.006122165359556675,0.0077192517928779125
18365194561437,3.318363666534424,-7.752425193786621,5.33547830581665,0.0005323622026480734,-0.0023956298828125,-0.0029279920272529125
18365195798675,3.314772367477417,-7.705738067626953,5.355829238891602,-0.003460354171693325,-0.0039927163161337376,-0.005589802749454975
18365197035925,3.341108560562134,-7.744045257568359,5.377377033233643,-0.006122165359556675,-0.0021294488105922937,-0.0042588976211845875
18365198273137,3.3207578659057617,-7.73087739944458,5.39174222946167,-0.0002661811013240367,-0.0063883461989462376,-0.008251613937318325
18365199510400,3.359065055847168,-7.736862659454346,5.376180171966553,-0.0042588976211845875,-0.0053236219100654125,-0.010114881210029125
18365200747612,3.3854012489318848,-7.745242595672607,5.328295707702637,-0.006122165359556675,-0.0002661811013240367,-0.007453070487827063
18365201984862,3.318363666534424,-7.738059997558594,5.331887245178223,-0.0053236219100654125,-0.0119781494140625,-0.0010647244052961469
18365203222087,3.318363666534424,-7.727285861968994,5.322310447692871,-0.0015970865497365594,-0.00692070834338665,0.0026618109550327063
18365204459325,3.336320161819458,-7.762001991271973,5.328295707702637,-0.0029279920272529125,-0.0037265352439135313,-0.0021294488105922937
18365205696550,3.3063926696777344,-7.7201032638549805,5.305551052093506,0.0010647244052961469,-0.0007985432748682797,-0.008251613937318325
18365206933800,3.336320161819458,-7.709329605102539,5.349843502044678,0.0013309054775163531,-0.0005323622026480734,-0.013042873702943325
18365208171012,3.3518824577331543,-7.7213006019592285,5.348646640777588,-0.0010647244052961469,-0.0066545275039970875,-0.01117960549890995
18365209408237,3.3889925479888916,-7.710526466369629,5.2899885177612305,-0.0007985432748682797,-0.0010647244052961469,-0.012510511092841625
18365210645487,3.3303346633911133,-7.69735860824585,5.318718910217285,0.0,-0.0007985432748682797,-0.0071868896484375
18365211882712,3.33392596244812,-7.736862659454346,5.280411720275879,0.0002661811013240367,-0.0018632676219567657,-0.0063883461989462376
18365213119950,3.377021551132202,-7.6985554695129395,5.348646640777588,0.0053236219100654125,-0.0037265352439135313,-0.008251613937318325
18365214357175,3.3315317630767822,-7.740454196929932,5.313930511474609,0.0042588976211845875,-0.003460354171693325,-0.010114881210029125
18365215594400,3.315969467163086,-7.762001991271973,5.352238178253174,-0.0013309054775163531,-0.0010647244052961469,-0.01117960549890995
18365216831662,3.354276657104492,-7.716512203216553,5.281609058380127,0.005057440605014563,-0.0023956298828125,-0.005855984054505825
18365218068887,3.3494882583618164,-7.7416510581970215,5.297171115875244,0.00692070834338665,-0.0007985432748682797,-0.007985432632267475
18365219306112,3.3470940589904785,-7.710526466369629,5.370194435119629,0.008517795242369175,-0.0039927163161337376,-0.007985432632267475
18365220543337,3.3195607662200928,-7.746439456939697,5.351040840148926,0.0023956298828125,-0.0066545275039970875,-0.0090501569211483
18365221780587,3.3734302520751953,-7.7416510581970215,5.321113109588623,0.003460354171693325,-0.0007985432748682797,-0.012510511092841625
18365223017812,3.313575267791748,-7.696161270141602,5.355829238891602,0.0026618109550327063,0.0005323622026480734,-0.0029279920272529125
18365224255050,3.3506853580474854,-7.734468460083008,5.331887245178223,0.00692070834338665,-0.0021294488105922937,-0.008251613937318325
18365225492275,3.3315317630767822,-7.738059997558594,5.313930511474609,0.0037265352439135313,0.0031941730994731188,-0.01117960549890995
18365226729512,3.332728862762451,-7.773972988128662,5.322310447692871,0.0023956298828125,0.0042588976211845875,-0.00931633822619915
18365227966725,3.314772367477417,-7.73087739944458,5.315127849578857,0.005057440605014563,0.0031941730994731188,-0.0037265352439135313
18365229203975,3.341108560562134,-7.739256858825684,5.294776916503906,0.00984870083630085,0.0015970865497365594,-0.006122165359556675
18365230441212,3.339911460876465,-7.757213592529297,5.327098846435547,-0.0002661811013240367,0.0010647244052961469,-0.013042873702943325
18365231678437,3.3446998596191406,-7.712920665740967,5.352238178253174,0.0021294488105922937,-0.0010647244052961469,-0.01224433071911335
18365232915687,3.339911460876465,-7.729680061340332,5.348646640777588,0.00452507846057415,0.0021294488105922937,-0.010381062515079975
18365234152900,3.3315317630767822,-7.795520782470703,5.355829238891602,0.007453070487827063,-0.0010647244052961469,-0.0063883461989462376
18365235390150,3.3267433643341064,-7.744045257568359,5.304353713989258,0.006122165359556675,0.0023956298828125,-0.010114881210029125
18365236627362,3.3231520652770996,-7.73207426071167,5.3115363121032715,0.0010647244052961469,0.0063883461989462376,-0.008517795242369175
18365237864612,3.384204149246216,-7.711723804473877,5.2911858558654785,0.003460354171693325,0.005057440605014563,-0.008783976547420025
18365239101825,3.40216064453125,-7.790732383728027,5.321113109588623,0.003460354171693325,0.005589802749454975,-0.0119781494140625
18365240339075,3.3267433643341064,-7.782352447509766,5.324704647064209,0.0015970865497365594,0.0042588976211845875,-0.010913425125181675
18365241576312,3.3219549655914307,-7.7416510581970215,5.340266704559326,-0.0015970865497365594,0.006122165359556675,-0.008251613937318325
18365242813537,3.3650505542755127,-7.7655930519104,5.306747913360596,0.0023956298828125,0.0053236219100654125,-0.0114457868039608
18365244050775,3.35667085647583,-7.791929721832275,5.257667064666748,0.0066545275039970875,0.0018632676219567657,-0.006122165359556675
18365245288012,3.375824451446533,-7.793126583099365,5.313930511474609,0.0053236219100654125,0.0026618109550327063,-0.0042588976211845875
18365246525237,3.384204149246216,-7.803900718688965,5.3115363121032715,-0.0007985432748682797,0.00692070834338665,-0.01357523538172245
18365247762475,3.3925838470458984,-7.795520782470703,5.342660903930664,0.0005323622026480734,0.010913425125181675,-0.0119781494140625
18365248999712,3.354276657104492,-7.781155586242676,5.337872505187988,-0.0005323622026480734,0.00958251953125,-0.0071868896484375
18365250236962,3.400963544845581,-7.757213592529297,5.30195951461792,-0.0021294488105922937,0.010114881210029125,-0.00984870083630085
18365251474175,3.338714361190796,-7.824251174926758,5.348646640777588,-0.0037265352439135313,0.0114457868039608,-0.0066545275039970875
18365252711412,3.3423056602478027,-7.7883381843566895,5.3330841064453125,0.0002661811013240367,0.0090501569211483,-0.007453070487827063
18365253948637,3.42490553855896,-7.829039573669434,5.343858242034912,-0.0013309054775163531,0.010381062515079975,-0.0053236219100654125
18365255185887,3.3494882583618164,-7.843404769897461,5.371391773223877,-0.005855984054505825,0.010913425125181675,-0.004791259765625
18365256423112,3.404554843902588,-7.823054313659668,5.327098846435547,-0.0013309054775163531,0.007985432632267475,-0.0077192517928779125
18365257660337,3.3423056602478027,-7.833827972412109,5.360617637634277,-0.0029279920272529125,0.01117960549890995,-0.010114881210029125
18365258897600,3.3638534545898438,-7.7871413230896,5.366603374481201,-0.0031941730994731188,0.015438503585755825,-0.00931633822619915
18365260134825,3.3506853580474854,-7.823054313659668,5.339069843292236,-0.005855984054505825,0.013042873702943325,-0.0071868896484375
18365261372050,3.37941575050354,-7.806294918060303,5.323507308959961,-0.003460354171693325,0.0114457868039608,-0.005057440605014563
18365262609300,3.359065055847168,-7.8098859786987305,5.315127849578857,-0.00452507846057415,0.01117960549890995,-0.00931633822619915
18365263846500,3.3901896476745605,-7.797914981842041,5.337872505187988,-0.00958251953125,0.01597086526453495,-0.00452507846057415
18365265083750,3.399766445159912,-7.795520782470703,5.345055103302002,-0.007985432632267475,0.014373779296875,-0.0063883461989462376
18365266320987,3.406949043273926,-7.806294918060303,5.303156852722168,-0.0114457868039608,0.01357523538172245,-0.0066545275039970875
18365267558225,3.35667085647583,-7.82185697555542,5.317522048950195,-0.0071868896484375,0.01357523538172245,-0.0031941730994731188
18365268795462,3.4129345417022705,-7.835025310516357,5.324704647064209,-0.012510511092841625,0.01756795309484005,-0.0090501569211483
18365270032700,3.3722331523895264,-7.833827972412109,5.373785972595215,-0.01410759799182415,0.014373779296875,-0.0090501569211483
18365271269925,3.4081461429595947,-7.835025310516357,5.345055103302002,-0.0186326764523983,0.0181003138422966,-0.014906140975654125
18365272507162,3.3877954483032227,-7.791929721832275,5.337872505187988,-0.01410759799182415,0.015172322280704975,-0.0063883461989462376
18365273744375,3.397372245788574,-7.842207908630371,5.342660903930664,-0.01410759799182415,0.010381062515079975,-0.004791259765625
18365274981625,3.3518824577331543,-7.8110833168029785,5.342660903930664,-0.014906140975654125,0.01463996060192585,-0.003460354171693325
18365276218862,3.3854012489318848,-7.801506519317627,5.327098846435547,-0.01357523538172245,0.0191650390625,-0.0053236219100654125
18365277456075,3.404554843902588,-7.836222171783447,5.317522048950195,-0.015172322280704975,0.01783413253724575,-0.0026618109550327063
18365278693325,3.3722331523895264,-7.802703380584717,5.35702657699585,-0.0173017717897892,0.0173017717897892,-0.0039927163161337376
18365279930550,3.405751943588257,-7.839813709259033,5.293580055236816,-0.01836649514734745,0.0138414166867733,-0.0018632676219567657
18365281167800,3.4117374420166016,-7.801506519317627,5.361814975738525,-0.01650322787463665,0.014906140975654125,-0.00452507846057415
18365282405025,3.406949043273926,-7.806294918060303,5.30076265335083,-0.01703559048473835,0.01943122036755085,-0.006122165359556675
18365283642250,3.398569345474243,-7.812280178070068,5.325901508331299,-0.0162370465695858,0.014906140975654125,-0.0007985432748682797
18365284879500,3.380612850189209,-7.819462776184082,5.329493045806885,-0.0186326764523983,0.014373779296875,-0.0002661811013240367
18365286116725,3.404554843902588,-7.8098859786987305,5.272032260894775,-0.01943122036755085,0.0181003138422966,-0.0021294488105922937
18365287353950,3.398569345474243,-7.802703380584717,5.341464042663574,-0.0173017717897892,0.01996358297765255,0.003460354171693325
18365288591200,3.35667085647583,-7.7895355224609375,5.307945251464844,-0.01703559048473835,0.02022976242005825,0.003460354171693325
18365289828412,3.404554843902588,-7.806294918060303,5.254075527191162,-0.01783413253724575,0.01889885775744915,0.0010647244052961469
18365291065675,3.4081461429595947,-7.799112319946289,5.306747913360596,-0.0196974016726017,0.0157046839594841,-0.0005323622026480734
18365292302900,3.450044631958008,-7.782352447509766,5.313930511474609,-0.02262539230287075,0.015438503585755825,0.0015970865497365594
18365293540137,3.4344823360443115,-7.7763671875,5.288791656494141,-0.02022976242005825,0.01650322787463665,0.0018632676219567657
18365294777362,3.42490553855896,-7.779958248138428,5.306747913360596,-0.0186326764523983,0.01996358297765255,0.005589802749454975
18365296014587,3.4332852363586426,-7.791929721832275,5.307945251464844,-0.0223592109978199,0.0191650390625,0.0114457868039608
18365297251837,3.4105403423309326,-7.808689117431641,5.3330841064453125,-0.0247548408806324,0.0157046839594841,0.00452507846057415
18365298489062,3.3949780464172363,-7.803900718688965,5.3127336502075195,-0.02129448764026165,0.01996358297765255,0.005057440605014563
18365299726300,3.404554843902588,-7.781155586242676,5.306747913360596,-0.01597086526453495,0.02022976242005825,0.0023956298828125
18365300963537,3.4380736351013184,-7.794323921203613,5.299565315246582,-0.02076212503015995,0.0173017717897892,0.0015970865497365594
18365302200762,3.4165258407592773,-7.838616371154785,5.304353713989258,-0.02262539230287075,0.01597086526453495,0.005855984054505825
18365303438000,3.442862033843994,-7.797914981842041,5.299565315246582,-0.02129448764026165,0.0138414166867733,0.0114457868039608
18365304675237,3.4584243297576904,-7.756016254425049,5.286397457122803,-0.02022976242005825,0.01703559048473835,0.00692070834338665
18365305912462,3.450044631958008,-7.769184589385986,5.339069843292236,-0.01889885775744915,0.0181003138422966,0.005589802749454975
18365307149687,3.4380736351013184,-7.785943984985352,5.337872505187988,-0.02022976242005825,0.0167694091796875,0.0077192517928779125
18365308386937,3.427299737930298,-7.793126583099365,5.297171115875244,-0.0220930315554142,0.0157046839594841,0.010647243820130825
18365309624175,3.4392707347869873,-7.836222171783447,5.284003257751465,-0.02182685025036335,0.0167694091796875,0.01463996060192585
18365310861400,3.4308910369873047,-7.802703380584717,5.262455463409424,-0.02422248013317585,0.01756795309484005,0.01171196810901165
18365312098612,3.446453332901001,-7.785943984985352,5.294776916503906,-0.02741665206849575,0.01357523538172245,0.0090501569211483
18365313335862,3.448847532272339,-7.7631988525390625,5.287594318389893,-0.0263519287109375,0.013042873702943325,0.0090501569211483
18365314573087,3.442862033843994,-7.808689117431641,5.298368453979492,-0.02315775491297245,0.010647243820130825,0.01171196810901165
18365315810337,3.4775779247283936,-7.775169849395752,5.30195951461792,-0.0228915736079216,0.0090501569211483,0.0119781494140625
18365317047562,3.398569345474243,-7.7871413230896,5.30076265335083,-0.0263519287109375,0.012510511092841625,0.00958251953125
18365318284787,3.446453332901001,-7.77756404876709,5.2672438621521,-0.0263519287109375,0.01410759799182415,0.008783976547420025
18365319522037,3.4751837253570557,-7.82185697555542,5.304353713989258,-0.02422248013317585,0.01171196810901165,0.0119781494140625
18365320759250,3.450044631958008,-7.799112319946289,5.30195951461792,-0.0215606689453125,0.012510511092841625,0.0119781494140625
18365321996487,3.4165258407592773,-7.793126583099365,5.25527286529541,-0.01836649514734745,0.008783976547420025,0.012776692397892475
18365323233737,3.4727895259857178,-7.754819393157959,5.298368453979492,-0.02369011752307415,0.0114457868039608,0.0138414166867733
18365324470962,3.4536359310150146,-7.7643961906433105,5.260061264038086,-0.03034464456140995,0.0114457868039608,0.0114457868039608
18365325708212,3.44765043258667,-7.767987251281738,5.2899885177612305,-0.0252872034907341,0.0090501569211483,0.014373779296875
18365326945437,3.450044631958008,-7.752425193786621,5.264849662780762,-0.02422248013317585,0.0114457868039608,0.00958251953125
18365328182662,3.450044631958008,-7.784747123718262,5.262455463409424,-0.02555338479578495,0.008783976547420025,0.008251613937318325
18365329419925,3.441664934158325,-7.790732383728027,5.260061264038086,-0.01889885775744915,0.0071868896484375,0.015438503585755825
18365330657125,3.44765043258667,-7.738059997558594,5.2911858558654785,-0.0220930315554142,0.0077192517928779125,0.01597086526453495
18365331894350,3.4380736351013184,-7.7428483963012695,5.2684407234191895,-0.02262539230287075,0.006122165359556675,0.0173017717897892
18365333131600,3.4727895259857178,-7.7416510581970215,5.2696380615234375,-0.02022976242005825,0.0066545275039970875,0.01117960549890995
18365334368850,3.4799721240997314,-7.753622055053711,5.280411720275879,-0.0276828333735466,0.0090501569211483,0.00931633822619915
18365335606062,3.4536359310150146,-7.767987251281738,5.251681327819824,-0.0258195661008358,0.005057440605014563,0.01836649514734745
18365336843287,3.464409828186035,-7.746439456939697,5.227739334106445,-0.0247548408806324,0.004791259765625,0.01410759799182415
18365338080550,3.4727895259857178,-7.766790390014648,5.273229122161865,-0.02129448764026165,0.0007985432748682797,0.0114457868039608
18365339317762,3.4835634231567383,-7.735665798187256,5.286397457122803,-0.0223592109978199,0.0018632676219567657,0.01171196810901165
18365340555000,3.428496837615967,-7.718906402587891,5.30076265335083,-0.0204959437251091,-0.0002661811013240367,0.010381062515079975
18365341792225,3.4727895259857178,-7.759607791900635,5.285200119018555,-0.0196974016726017,-0.00452507846057415,0.004791259765625
18365343029475,3.4847605228424072,-7.7416510581970215,5.280411720275879,-0.02182685025036335,0.003460354171693325,0.007453070487827063
18365344266687,3.421314239501953,-7.7428483963012695,5.294776916503906,-0.0196974016726017,0.004791259765625,0.010647243820130825
18365345503912,3.463212728500366,-7.7655930519104,5.230133533477783,-0.0157046839594841,-0.0015970865497365594,0.0119781494140625
18365346741187,3.4404678344726562,-7.759607791900635,5.257667064666748,-0.0220930315554142,-0.0007985432748682797,0.00931633822619915
18365347978400,3.4177229404449463,-7.773972988128662,5.270834922790527,-0.0186326764523983,-0.005855984054505825,0.008251613937318325
18365349215637,3.3889925479888916,-7.7201032638549805,5.294776916503906,-0.0173017717897892,-0.0042588976211845875,0.01171196810901165
18365350452875,3.3722331523895264,-7.793126583099365,5.286397457122803,-0.02022976242005825,-0.0037265352439135313,0.010913425125181675
18365351690112,3.441664934158325,-7.775169849395752,5.288791656494141,-0.0215606689453125,-0.0029279920272529125,0.00958251953125
18365352927350,3.4177229404449463,-7.759607791900635,5.270834922790527,-0.02076212503015995,-0.0039927163161337376,0.01224433071911335
18365354164575,3.4392707347869873,-7.7871413230896,5.207388877868652,-0.0215606689453125,-0.0042588976211845875,0.006122165359556675
18365355401800,3.4105403423309326,-7.790732383728027,5.246892929077148,-0.02315775491297245,-0.00452507846057415,0.00958251953125
18365356639050,3.4189200401306152,-7.779958248138428,5.25527286529541,-0.02369011752307415,0.0007985432748682797,0.0053236219100654125
18365357876275,3.444059133529663,-7.752425193786621,5.238513469696045,-0.0247548408806324,-0.00452507846057415,0.0071868896484375
18365359113512,3.3698389530181885,-7.766790390014648,5.264849662780762,-0.01996358297765255,-0.008517795242369175,0.01224433071911335
18365360350737,3.3901896476745605,-7.7871413230896,5.273229122161865,-0.0191650390625,-0.0053236219100654125,0.010114881210029125
18365361587987,3.405751943588257,-7.738059997558594,5.243301868438721,-0.023956298828125,-0.0039927163161337376,0.0077192517928779125
18365362825225,3.4177229404449463,-7.723694801330566,5.287594318389893,-0.0204959437251091,-0.0039927163161337376,0.012510511092841625
18365364062450,3.397372245788574,-7.758410453796387,5.233725070953369,-0.0196974016726017,-0.0042588976211845875,0.012776692397892475
18365365299687,3.3937809467315674,-7.738059997558594,5.264849662780762,-0.0191650390625,-0.005855984054505825,0.01597086526453495
18365366536925,3.421314239501953,-7.744045257568359,5.252878665924072,-0.014906140975654125,-0.0053236219100654125,0.0162370465695858
18365367774150,3.463212728500366,-7.771578788757324,5.220556735992432,-0.0181003138422966,-0.008517795242369175,0.01463996060192585
18365369011387,3.399766445159912,-7.757213592529297,5.239710330963135,-0.0181003138422966,-0.0077192517928779125,0.013309055007994175
18365370248625,3.420117139816284,-7.794323921203613,5.2899885177612305,-0.00984870083630085,-0.008517795242369175,0.013042873702943325
18365371485825,3.445256233215332,-7.760804653167725,5.2049946784973145,-0.007985432632267475,-0.008517795242369175,0.015172322280704975
18365372723075,3.3961751461029053,-7.775169849395752,5.215768337249756,-0.010114881210029125,-0.008783976547420025,0.02129448764026165
18365373960312,3.428496837615967,-7.7643961906433105,5.298368453979492,-0.012510511092841625,-0.01357523538172245,0.01783413253724575
18365375197550,3.3961751461029053,-7.733271598815918,5.2444987297058105,-0.01117960549890995,-0.01836649514734745,0.0196974016726017
18365376434775,3.428496837615967,-7.723694801330566,5.251681327819824,-0.0090501569211483,-0.01224433071911335,0.014906140975654125
18365377672025,3.4560301303863525,-7.747636795043945,5.2564697265625,-0.010647243820130825,-0.013309055007994175,0.0215606689453125
18365378909250,3.442862033843994,-7.734468460083008,5.1798553466796875,-0.0066545275039970875,-0.01357523538172245,0.0258195661008358
18365380146487,3.4129345417022705,-7.744045257568359,5.249287128448486,-0.0053236219100654125,-0.00958251953125,0.0223592109978199
18365381383712,3.404554843902588,-7.762001991271973,5.228936672210693,-0.0066545275039970875,-0.010913425125181675,0.0204959437251091
18365382620937,3.3913867473602295,-7.7895355224609375,5.251681327819824,-0.006122165359556675,-0.0138414166867733,0.0204959437251091
18365383858200,3.398569345474243,-7.726089000701904,5.250484466552734,-0.0026618109550327063,-0.01357523538172245,0.0247548408806324
18365385095437,3.4189200401306152,-7.758410453796387,5.251681327819824,0.0015970865497365594,-0.0157046839594841,0.02502102218568325
18365386332675,3.398569345474243,-7.779958248138428,5.254075527191162,-0.0023956298828125,-0.013309055007994175,0.0220930315554142
18365387569900,3.444059133529663,-7.769184589385986,5.193023681640625,-0.0023956298828125,-0.0119781494140625,0.02981228195130825
18365388807137,3.40216064453125,-7.7763671875,5.220556735992432,-0.0031941730994731188,-0.013042873702943325,0.0258195661008358
18365390044375,3.400963544845581,-7.772775650024414,5.2049946784973145,-0.007453070487827063,-0.01597086526453495,0.02315775491297245
18365391281600,3.4141316413879395,-7.77756404876709,5.20978307723999,-0.005855984054505825,-0.0138414166867733,0.0244886614382267
18365392518825,3.4177229404449463,-7.806294918060303,5.272032260894775,-0.0031941730994731188,-0.015438503585755825,0.0191650390625
18365393756062,3.3494882583618164,-7.8541789054870605,5.243301868438721,-0.0026618109550327063,-0.015438503585755825,0.0215606689453125
18365394993300,3.37941575050354,-7.823054313659668,5.251681327819824,-0.0021294488105922937,-0.01756795309484005,0.0220930315554142
18365396230525,3.3698389530181885,-7.869740962982178,5.2564697265625,-0.0063883461989462376,-0.0186326764523983,0.0234239362180233
18365397467775,3.3506853580474854,-7.85537576675415,5.251681327819824,-0.00958251953125,-0.01463996060192585,0.0186326764523983
18365398705000,3.3243491649627686,-7.824251174926758,5.243301868438721,-0.0077192517928779125,-0.015172322280704975,0.0167694091796875
18365399942225,3.357867956161499,-7.842207908630371,5.275623321533203,-0.0026618109550327063,-0.0157046839594841,0.0196974016726017
18365401179475,3.3470940589904785,-7.841010570526123,5.266046524047852,-0.005057440605014563,-0.015438503585755825,0.01357523538172245
18365402416700,3.3722331523895264,-7.881711959838867,5.246892929077148,-0.0066545275039970875,-0.014373779296875,0.01410759799182415
18365403653925,3.359065055847168,-7.849390506744385,5.279214859008789,-0.00692070834338665,-0.0210283063352108,0.008251613937318325
18365404891175,3.3734302520751953,-7.851784706115723,5.266046524047852,-0.0071868896484375,-0.01597086526453495,0.00931633822619915
18365406128400,3.362656354904175,-7.844602108001709,5.234921932220459,-0.00931633822619915,-0.01117960549890995,0.0138414166867733
18365407365637,3.37941575050354,-7.799112319946289,5.264849662780762,-0.0119781494140625,-0.01357523538172245,0.010381062515079975
18365408602875,3.3494882583618164,-7.829039573669434,5.254075527191162,-0.014906140975654125,-0.0162370465695858,0.008251613937318325
18365409840125,3.3937809467315674,-7.814674377441406,5.238513469696045,-0.0167694091796875,-0.014373779296875,0.0077192517928779125
18365411077350,3.4129345417022705,-7.772775650024414,5.285200119018555,-0.010381062515079975,-0.015172322280704975,0.00692070834338665
18365412314587,3.3877954483032227,-7.7428483963012695,5.246892929077148,-0.00931633822619915,-0.0191650390625,0.008517795242369175
18365413551800,3.3423056602478027,-7.760804653167725,5.281609058380127,-0.00931633822619915,-0.0173017717897892,0.006122165359556675
18365414789050,3.383007049560547,-7.748833656311035,5.262455463409424,-0.010913425125181675,-0.012776692397892475,0.0
18365416026262,3.3698389530181885,-7.758410453796387,5.261258125305176,-0.003460354171693325,-0.012776692397892475,0.0021294488105922937
18365417263500,3.3435027599334717,-7.722497463226318,5.295974254608154,-0.0066545275039970875,-0.01117960549890995,0.0031941730994731188
18365418500737,3.3686418533325195,-7.727285861968994,5.275623321533203,-0.008783976547420025,-0.010913425125181675,0.006122165359556675
18365419737975,3.3650505542755127,-7.740454196929932,5.243301868438721,-0.006122165359556675,-0.0119781494140625,0.007985432632267475
18365420975212,3.3937809467315674,-7.722497463226318,5.262455463409424,-0.00958251953125,-0.01357523538172245,0.005855984054505825
18365422212437,3.33392596244812,-7.716512203216553,5.243301868438721,-0.004791259765625,-0.01703559048473835,0.0039927163161337376
18365423449675,3.3674447536468506,-7.727285861968994,5.2480902671813965,-0.0042588976211845875,-0.015172322280704975,0.0029279920272529125
18365424686925,3.399766445159912,-7.738059997558594,5.280411720275879,-0.0023956298828125,-0.0063883461989462376,0.0039927163161337376
18365425924150,3.3650505542755127,-7.712920665740967,5.242104530334473,0.0005323622026480734,-0.0042588976211845875,0.0039927163161337376
18365427161387,3.341108560562134,-7.687781810760498,5.273229122161865,-0.0013309054775163531,-0.0119781494140625,0.0
18365428398612,3.3518824577331543,-7.727285861968994,5.258863925933838,-0.00452507846057415,-0.010647243820130825,-0.0007985432748682797
18365429635862,3.318363666534424,-7.703343868255615,5.238513469696045,-0.0007985432748682797,-0.00931633822619915,-0.0007985432748682797
18365430873087,3.3063926696777344,-7.739256858825684,5.246892929077148,0.0026618109550327063,-0.012776692397892475,0.005855984054505825
18365432110325,3.332728862762451,-7.739256858825684,5.278017520904541,0.003460354171693325,-0.01756795309484005,0.010114881210029125
18365433347562,3.3195607662200928,-7.711723804473877,5.273229122161865,0.005855984054505825,-0.0071868896484375,0.0053236219100654125
18365434584812,3.3865983486175537,-7.710526466369629,5.246892929077148,0.00692070834338665,-0.01357523538172245,0.008251613937318325
18365435822050,3.336320161819458,-7.724891662597656,5.257667064666748,0.008251613937318325,-0.010381062515079975,0.006122165359556675
18365437059250,3.3961751461029053,-7.723694801330566,5.25527286529541,0.0031941730994731188,-0.01117960549890995,0.008251613937318325
18365438296512,3.3435027599334717,-7.706935405731201,5.250484466552734,0.005057440605014563,-0.01171196810901165,0.00931633822619915
18365439533737,3.3722331523895264,-7.700949668884277,5.230133533477783,0.00452507846057415,-0.00931633822619915,0.004791259765625
18365440770975,3.362656354904175,-7.704541206359863,5.2899885177612305,0.0029279920272529125,-0.0053236219100654125,-0.0002661811013240367
18365442008187,3.362656354904175,-7.726089000701904,5.230133533477783,0.005057440605014563,-0.0029279920272529125,0.006122165359556675
18365443245425,3.332728862762451,-7.728483200073242,5.250484466552734,0.008251613937318325,-0.005589802749454975,0.00958251953125
18365444482675,3.3207578659057617,-7.711723804473877,5.278017520904541,0.005589802749454975,-0.007453070487827063,0.00452507846057415
18365445719887,3.3315317630767822,-7.709329605102539,5.258863925933838,0.004791259765625,-0.0066545275039970875,0.005057440605014563
18365446957137,3.338714361190796,-7.754819393157959,5.252878665924072,0.00452507846057415,-0.007985432632267475,0.0066545275039970875
18365448194362,3.337517261505127,-7.735665798187256,5.274426460266113,0.0066545275039970875,-0.0042588976211845875,0.00692070834338665
18365449431612,3.3494882583618164,-7.736862659454346,5.284003257751465,0.010381062515079975,-0.0010647244052961469,0.0029279920272529125
18365450668850,3.295618772506714,-7.736862659454346,5.279214859008789,0.0090501569211483,-0.0042588976211845875,0.0063883461989462376
18365451906062,3.354276657104492,-7.704541206359863,5.2899885177612305,0.00931633822619915,-0.0066545275039970875,0.005057440605014563
18365453143312,3.339911460876465,-7.750030994415283,5.2696380615234375,0.00984870083630085,-0.0039927163161337376,0.0039927163161337376
