timestamp_ns,accel_x,accel_y,accel_z,gyro_x,gyro_y,gyro_z
18971340250475,-2.0386626720428467,-9.378087997436523,-2.141613483428955,0.0244886614382267,0.0508405901491642,0.0053236219100654125
18971341487812,-2.0422539710998535,-9.394847869873047,-2.118868589401245,0.02262539230287075,0.0511067695915699,0.005057440605014563
18971342725162,-2.07936429977417,-9.330204010009766,-2.1104888916015625,0.0215606689453125,0.052437674254179,0.004791259765625
18971343962500,-2.0231003761291504,-9.345766067504883,-2.1523873805999756,0.01943122036755085,0.0500420443713665,0.0063883461989462376
18971345199862,-2.033874273300171,-9.315838813781738,-2.146401882171631,0.0186326764523983,0.052703857421875,0.00692070834338665
18971346437200,-2.078167200088501,-9.315838813781738,-2.1045033931732178,0.0263519287109375,0.0508405901491642,0.008783976547420025
18971347674525,-2.081758499145508,-9.303868293762207,-2.076970100402832,0.023956298828125,0.0516391322016716,0.00931633822619915
18971348911862,-2.011129379272461,-9.279926300048828,-2.0709846019744873,0.0204959437251091,0.0529700368642807,0.0037265352439135313
18971350149200,-2.0470423698425293,-9.261969566345215,-2.096123695373535,0.0244886614382267,0.0601569265127182,0.0037265352439135313
18971351386562,-2.0195090770721436,-9.257181167602539,-2.1080946922302246,0.02422248013317585,0.0556318499147892,0.010114881210029125
18971352623900,-1.985990285873413,-9.261969566345215,-2.0410568714141846,0.023956298828125,0.0532362200319767,0.01410759799182415
18971353861250,-1.9907786846160889,-9.20211410522461,-2.1116859912872314,0.0271504707634449,0.0585598424077034,0.007985432632267475
18971355098587,-1.9776105880737305,-9.215282440185547,-2.0841526985168457,0.02422248013317585,0.0598907470703125,0.0071868896484375
18971356335925,-2.007538080215454,-9.206902503967285,-2.100912094116211,0.0234239362180233,0.062286376953125,0.00931633822619915
18971357573275,-1.9835960865020752,-9.188945770263672,-2.1332337856292725,0.0276828333735466,0.0606892891228199,0.01171196810901165
18971358810612,-1.9931728839874268,-9.168595314025879,-2.139219284057617,0.0292799212038517,0.0596245639026165,0.008517795242369175
18971360047950,-1.9991583824157715,-9.194931983947754,-2.100912094116211,0.0300784632563591,0.0585598424077034,0.008517795242369175
18971361285300,-2.0219032764434814,-9.17936897277832,-2.094926595687866,0.02981228195130825,0.0625525563955307,0.008517795242369175
18971362522637,-2.0183119773864746,-9.185355186462402,-2.120065689086914,0.0292799212038517,0.0625525563955307,0.00452507846057415
18971363759987,-1.9907786846160889,-9.193734169006348,-2.121262788772583,0.0338049978017807,0.0577612966299057,0.0053236219100654125
18971364997362,-2.0015525817871094,-9.185355186462402,-2.141613483428955,0.0362006276845932,0.0604231096804142,0.008251613937318325
18971366234675,-2.029085874557495,-9.17697525024414,-2.123656988143921,0.0362006276845932,0.0609554722905159,0.007985432632267475
18971367472025,-1.9943699836730957,-9.188945770263672,-2.1128830909729004,0.0375315360724926,0.0577612966299057,0.00984870083630085
18971368709350,-2.0470423698425293,-9.191340446472168,-2.141613483428955,0.0388624407351017,0.0598907470703125,0.010381062515079975
18971369946700,-1.987187385559082,-9.224859237670898,-2.167949676513672,0.0460493303835392,0.0598907470703125,0.008783976547420025
18971371184050,-1.985990285873413,-9.223662376403809,-2.10210919380188,0.0460493303835392,0.0646820068359375,0.0090501569211483
18971372421387,-2.0219032764434814,-9.229647636413574,-2.074575901031494,0.0415242500603199,0.0625525563955307,0.0063883461989462376
18971373658725,-2.0015525817871094,-9.217676162719727,-2.1116859912872314,0.0420566126704216,0.0604231096804142,0.0042588976211845875
18971374896075,-2.009932279586792,-9.251195907592773,-2.1080946922302246,0.043121337890625,0.0649481862783432,0.0039927163161337376
18971376133425,-2.0242974758148193,-9.232041358947754,-2.05781626701355,0.0452507846057415,0.0649481862783432,0.0029279920272529125
18971377370737,-1.9967641830444336,-9.23323917388916,-2.0697875022888184,0.0487111397087574,0.0617540143430233,0.0039927163161337376
18971378608112,-1.9788076877593994,-9.228450775146484,-2.0877439975738525,0.0484449602663517,0.0630849227309227,0.007985432632267475
18971379845462,-1.9608511924743652,-9.230844497680664,-2.1475989818573,0.0508405901491642,0.0668114572763443,0.006122165359556675
18971381082787,-1.9847931861877441,-9.23682975769043,-2.076970100402832,0.0513729527592659,0.0654805526137352,0.003460354171693325
18971382320125,-1.9931728839874268,-9.216479301452637,-2.0602104663848877,0.0516391322016716,0.0652143657207489,0.005589802749454975
18971383557487,-1.9608511924743652,-9.206902503967285,-2.0721817016601562,0.0569627545773983,0.0678761824965477,0.008517795242369175
18971384794812,-1.965639591217041,-9.193734169006348,-2.074575901031494,0.0553656667470932,0.0662790909409523,0.010381062515079975
18971386032175,-1.9728221893310547,-9.239224433898926,-2.0721817016601562,0.052703857421875,0.0628187358379364,0.01171196810901165
18971387269512,-1.9847931861877441,-9.209297180175781,-2.0614075660705566,0.0540347620844841,0.0654805526137352,0.003460354171693325
18971388506850,-1.985990285873413,-9.23443603515625,-2.0901381969451904,0.0577612966299057,0.0684085413813591,0.0005323622026480734
18971389744200,-1.9740192890167236,-9.220070838928223,-2.1045033931732178,0.0606892891228199,0.0660129114985466,0.0002661811013240367
18971390981537,-1.9788076877593994,-9.216479301452637,-2.0889410972595215,0.0564303919672966,0.0673438161611557,0.0037265352439135313
18971392218875,-1.9812018871307373,-9.238027572631836,-2.118868589401245,0.0521714948117733,0.0673438161611557,0.0015970865497365594
18971393456225,-1.9476830959320068,-9.284714698791504,-2.100912094116211,0.0580274797976017,0.06707763671875,0.0031941730994731188
18971394693575,-1.988384485244751,-9.313445091247559,-2.1475989818573,0.0585598424077034,0.0708041712641716,0.0018632676219567657
18971395930925,-1.9991583824157715,-9.246407508850098,-2.1272482872009277,0.0566965714097023,0.066545270383358,0.0018632676219567657
18971397168250,-1.9835960865020752,-9.270349502563477,-2.081758499145508,0.057228934019804,0.0630849227309227,0.0
18971398405600,-1.9800047874450684,-9.32302188873291,-2.100912094116211,0.0580274797976017,0.0638834610581398,0.0010647244052961469
18971399642925,-2.0003554821014404,-9.351752281188965,-2.097320795059204,0.0582936592400074,0.0654805526137352,-0.0015970865497365594
18971400880287,-2.0039467811584473,-9.315838813781738,-2.0673930644989014,0.0636172816157341,0.0662790909409523,-0.0026618109550327063
18971402117625,-1.9608511924743652,-9.348160743713379,-2.100912094116211,0.0628187358379364,0.0612216517329216,-0.0031941730994731188
18971403354975,-2.0171148777008057,-9.319430351257324,-2.097320795059204,0.0628187358379364,0.066545270383358,-0.0021294488105922937
18971404592300,-1.9931728839874268,-9.373299598693848,-2.0829555988311768,0.0590922012925148,0.0649481862783432,-0.0002661811013240367
18971405829650,-1.987187385559082,-9.348160743713379,-2.073378801345825,0.0612216517329216,0.0649481862783432,0.0005323622026480734
18971407066987,-1.9500772953033447,-9.35893440246582,-2.098517894744873,0.0630849227309227,0.062020193785429,0.005589802749454975
18971408304350,-1.9931728839874268,-9.354146003723145,-2.075773000717163,0.0614878311753273,0.0585598424077034,-0.0053236219100654125
18971409541675,-1.9716250896453857,-9.405621528625488,-2.07936429977417,0.0569627545773983,0.0617540143430233,-0.0026618109550327063
18971410779012,-1.9955670833587646,-9.388861656188965,-2.1092917919158936,0.0614878311753273,0.0654805526137352,-0.0007985432748682797
18971412016375,-1.98958158493042,-9.391256332397461,-2.1116859912872314,0.057228934019804,0.0660129114985466,-0.00452507846057415
18971413253725,-1.9632453918457031,-9.405621528625488,-2.0470423698425293,0.0606892891228199,0.0654805526137352,-0.004791259765625
18971414491050,-1.985990285873413,-9.398438453674316,-2.097320795059204,0.0585598424077034,0.0710703507065773,-0.0013309054775163531
18971415728400,-1.9177556037902832,-9.446322441101074,-2.0829555988311768,0.0564303919672966,0.0628187358379364,-0.003460354171693325
18971416965737,-1.9333178997039795,-9.424775123596191,-2.122459888458252,0.0564303919672966,0.0604231096804142,-0.0066545275039970875
18971418203075,-1.987187385559082,-9.405621528625488,-2.0638017654418945,0.0553656667470932,0.0606892891228199,-0.0026618109550327063
18971419440425,-1.9620482921600342,-9.431957244873047,-2.0147206783294678,0.0564303919672966,0.0657467320561409,-0.005589802749454975
18971420677762,-1.9249382019042969,-9.430760383605957,-2.1116859912872314,0.0545671246945858,0.0649481862783432,-0.01357523538172245
18971421915112,-1.9524714946746826,-9.39365005493164,-2.0446481704711914,0.0548333041369915,0.0638834610581398,-0.0114457868039608
18971423152462,-1.9369091987609863,-9.384073257446289,-2.0482394695281982,0.0535023994743824,0.0657467320561409,-0.003460354171693325
18971424389800,-1.9285295009613037,-9.397241592407227,-2.0207061767578125,0.0500420443713665,0.0606892891228199,-0.0063883461989462376
18971425627150,-1.946485996246338,-9.387664794921875,-2.080561399459839,0.0487111397087574,0.0577612966299057,-0.005057440605014563
18971426864512,-1.9189527034759521,-9.428366661071777,-2.0602104663848877,0.0500420443713665,0.0604231096804142,-0.00692070834338665
18971428101837,-1.922544002532959,-9.425971984863281,-2.0207061767578125,0.0465816929936409,0.0553656667470932,-0.007985432632267475
18971429339187,-1.9524714946746826,-9.354146003723145,-2.055422067642212,0.0521714948117733,0.0580274797976017,-0.0063883461989462376
18971430576512,-1.8914194107055664,-9.39365005493164,-2.078167200088501,0.0513729527592659,0.0612216517329216,-0.00958251953125
18971431813850,-1.9261353015899658,-9.361329078674316,-2.0195090770721436,0.0460493303835392,0.0601569265127182,-0.0066545275039970875
18971433051200,-1.9357120990753174,-9.3828763961792,-2.053027868270874,0.04791259765625,0.0580274797976017,-0.00692070834338665
18971434288550,-1.9177556037902832,-9.394847869873047,-2.053027868270874,0.0463155098259449,0.0580274797976017,-0.00958251953125
18971435525900,-1.9081788063049316,-9.379284858703613,-2.0374655723571777,0.0481787770986557,0.0550994873046875,-0.0053236219100654125
18971436763237,-1.9261353015899658,-9.348160743713379,-2.081758499145508,0.0468478724360466,0.0585598424077034,-0.0026618109550327063
18971438000562,-1.8902223110198975,-9.379284858703613,-2.097320795059204,0.0396609827876091,0.0532362200319767,-0.005855984054505825
18971439237937,-1.944091796875,-9.384073257446289,-2.0865468978881836,0.0455169677734375,0.0511067695915699,-0.0063883461989462376
18971440475275,-1.8818424940109253,-9.396044731140137,-2.0458452701568604,0.0492435023188591,0.0558980293571949,-0.01224433071911335
18971441712600,-1.8794482946395874,-9.44752025604248,-2.032677173614502,0.0433875173330307,0.0545671246945858,-0.00692070834338665
18971442949937,-1.900996208190918,-9.409213066101074,-2.0889410972595215,0.0417904332280159,0.0521714948117733,-0.0029279920272529125
18971444187287,-1.922544002532959,-9.379284858703613,-2.0661959648132324,0.0407257080078125,0.0532362200319767,-0.008783976547420025
18971445424625,-1.9165585041046143,-9.425971984863281,-1.987187385559082,0.0399271659553051,0.0489773228764534,-0.00452507846057415
18971446661962,-1.8890252113342285,-9.361329078674316,-1.9752163887023926,0.0393948033452034,0.0545671246945858,-0.00958251953125
18971447899325,-1.8555063009262085,-9.41759204864502,-1.9847931861877441,0.0399271659553051,0.0532362200319767,-0.01224433071911335
18971449136650,-1.8495208024978638,-9.423578262329102,-2.0183119773864746,0.0407257080078125,0.0473802350461483,-0.010114881210029125
18971450374000,-1.8399440050125122,-9.38167953491211,-2.07936429977417,0.0359344482421875,0.0508405901491642,-0.01224433071911335
18971451611362,-1.8351556062698364,-9.41400146484375,-2.0219032764434814,0.038063894957304,0.0503082275390625,-0.008783976547420025
18971452848700,-1.8746598958969116,-9.396044731140137,-2.03507137298584,0.0338049978017807,0.0497758649289608,-0.010114881210029125
18971454086037,-1.8267759084701538,-9.394847869873047,-1.988384485244751,0.0343373604118824,0.0465816929936409,-0.00958251953125
18971455323362,-1.8363527059555054,-9.396044731140137,-2.033874273300171,0.0385962575674057,0.0471140518784523,-0.0114457868039608
18971456560712,-1.8255788087844849,-9.3828763961792,-2.0195090770721436,0.0401933453977108,0.0460493303835392,-0.01224433071911335
18971457798062,-1.799242615699768,-9.374496459960938,-2.0183119773864746,0.0401933453977108,0.0465816929936409,-0.01171196810901165
18971459035400,-1.8339585065841675,-9.38048267364502,-1.9943699836730957,0.0356682650744915,0.0468478724360466,-0.01410759799182415
18971460272750,-1.8064252138137817,-9.370905876159668,-2.027888774871826,0.0346035435795784,0.0433875173330307,-0.013042873702943325
18971461510087,-1.7932571172714233,-9.348160743713379,-2.0242974758148193,0.0346035435795784,0.0433875173330307,-0.00958251953125
18971462747437,-1.8387469053268433,-9.398438453674316,-1.9704279899597168,0.0306108258664608,0.0364668108522892,-0.008517795242369175
18971463984775,-1.801636815071106,-9.361329078674316,-1.9979612827301025,0.0364668108522892,0.0351359061896801,-0.0162370465695858
18971465222125,-1.7645267248153687,-9.35654067993164,-2.0242974758148193,0.0346035435795784,0.0351359061896801,-0.0204959437251091
18971466459462,-1.7968484163284302,-9.349357604980469,-2.0003554821014404,0.0322079136967659,0.0377977155148983,-0.010647243820130825
18971467696812,-1.8088194131851196,-9.35654067993164,-1.988384485244751,0.0330064557492733,0.0348697230219841,-0.0077192517928779125
18971468934162,-1.8722656965255737,-9.369708061218262,-1.988384485244751,0.0316755510866642,0.0359344482421875,-0.0071868896484375
18971470171500,-1.7908629179000854,-9.35773754119873,-1.9955670833587646,0.0346035435795784,0.0338049978017807,-0.00984870083630085
18971471408837,-1.844732403755188,-9.374496459960938,-2.0231003761291504,0.0327402763068676,0.0319417305290699,-0.013042873702943325
18971472646187,-1.8088194131851196,-9.374496459960938,-2.0171148777008057,0.0338049978017807,0.03034464456140995,-0.0077192517928779125
18971473883537,-1.7908629179000854,-9.373299598693848,-2.008735179901123,0.0340711809694767,0.02848137728869915,-0.0071868896484375
18971475120862,-1.8088194131851196,-9.362525939941406,-1.987187385559082,0.0356682650744915,0.02848137728869915,-0.0071868896484375
18971476358212,-1.824381709098816,-9.355342864990234,-2.0171148777008057,0.0340711809694767,0.0271504707634449,-0.013309055007994175
18971477595550,-1.7908629179000854,-9.350554466247559,-2.0183119773864746,0.0348697230219841,0.02661811001598835,-0.013309055007994175
18971478832887,-1.8064252138137817,-9.403226852416992,-1.9692308902740479,0.033272635191679,0.0220930315554142,-0.00958251953125
18971480070237,-1.7693151235580444,-9.397241592407227,-2.0039467811584473,0.0346035435795784,0.0252872034907341,-0.02182685025036335
18971481307575,-1.8399440050125122,-9.342175483703613,-1.9788076877593994,0.0340711809694767,0.023956298828125,-0.01889885775744915
18971482544925,-1.8363527059555054,-9.375694274902344,-2.033874273300171,0.0346035435795784,0.0228915736079216,-0.012776692397892475
18971483782275,-1.8614917993545532,-9.364919662475586,-1.9919757843017578,0.0319417305290699,0.01996358297765255,-0.015438503585755825
18971485019612,-1.845929503440857,-9.354146003723145,-2.030282974243164,0.0327402763068676,0.0215606689453125,-0.02076212503015995
18971486256950,-1.821987509727478,-9.374496459960938,-2.0195090770721436,0.0354020856320858,0.01650322787463665,-0.0138414166867733
18971487494300,-1.777694821357727,-9.342175483703613,-1.987187385559082,0.02874755859375,0.01836649514734745,-0.01836649514734745
18971488731662,-1.7908629179000854,-9.351752281188965,-1.9847931861877441,0.0282151959836483,0.0210283063352108,-0.0173017717897892
18971489968987,-1.776497721672058,-9.38048267364502,-2.008735179901123,0.02848137728869915,0.02076212503015995,-0.0173017717897892
18971491206325,-1.824381709098816,-9.390059471130371,-2.0015525817871094,0.0348697230219841,0.01597086526453495,-0.0138414166867733
18971492443675,-1.8124107122421265,-9.402029991149902,-2.029085874557495,0.0351359061896801,0.013042873702943325,-0.0167694091796875
18971493681012,-1.8136078119277954,-9.412803649902344,-2.0266916751861572,0.03087700717151165,0.0173017717897892,-0.015172322280704975
18971494918362,-1.7932571172714233,-9.362525939941406,-1.96683669090271,0.0372653529047966,0.013309055007994175,-0.01171196810901165
18971496155700,-1.800439715385437,-9.404424667358398,-2.032677173614502,0.0354020856320858,0.010381062515079975,-0.015438503585755825
18971497393050,-1.7932571172714233,-9.384073257446289,-1.9835960865020752,0.0351359061896801,0.0090501569211483,-0.0157046839594841
18971498630412,-1.777694821357727,-9.35654067993164,-1.945288896560669,0.0340711809694767,0.010647243820130825,-0.012510511092841625
18971499867737,-1.8112136125564575,-9.374496459960938,-1.9500772953033447,0.0351359061896801,0.01171196810901165,-0.012510511092841625
18971501105075,-1.777694821357727,-9.352949142456055,-1.942894697189331,0.0324740931391716,0.008517795242369175,-0.01410759799182415
18971502342412,-1.824381709098816,-9.28950309753418,-1.9740192890167236,0.0367329902946949,0.0023956298828125,-0.01756795309484005
18971503579762,-1.7920600175857544,-9.32541561126709,-1.9321208000183105,0.033538818359375,0.0021294488105922937,-0.012510511092841625
18971504817100,-1.7824832201004028,-9.314641952514648,-1.9823989868164062,0.0356682650744915,0.0026618109550327063,-0.01171196810901165
18971506054462,-1.8064252138137817,-9.245209693908691,-1.9321208000183105,0.0375315360724926,-0.0042588976211845875,-0.008251613937318325
18971507291800,-1.778891921043396,-9.263166427612305,-1.9560627937316895,0.0393948033452034,0.0002661811013240367,-0.0066545275039970875
18971508529137,-1.744175910949707,-9.312247276306152,-1.9488801956176758,0.0425889752805233,0.0013309054775163531,-0.01171196810901165
18971509766487,-1.7872716188430786,-9.284714698791504,-1.9776105880737305,0.0409918874502182,-0.0018632676219567657,-0.008251613937318325
18971511003837,-1.7944542169570923,-9.299079895019531,-1.9907786846160889,0.0404595248401165,-0.005057440605014563,-0.00692070834338665
18971512241162,-1.8100165128707886,-9.330204010009766,-1.9572598934173584,0.0449846051633358,-0.005057440605014563,-0.0090501569211483
18971513478512,-1.86508309841156,-9.346963882446289,-1.9716250896453857,0.043121337890625,-0.0021294488105922937,-0.0071868896484375
18971514715837,-1.8148049116134644,-9.3828763961792,-1.965639591217041,0.0455169677734375,-0.004791259765625,-0.005589802749454975
18971515953187,-1.799242615699768,-9.338583946228027,-1.9991583824157715,0.0447184219956398,-0.00452507846057415,-0.0037265352439135313
18971517190550,-1.8722656965255737,-9.372102737426758,-2.005143880844116,0.0444522425532341,-0.00692070834338665,-0.0031941730994731188
18971518427875,-1.8878281116485596,-9.418789863586426,-1.9740192890167236,0.0433875173330307,-0.0031941730994731188,-0.0077192517928779125
18971519665225,-1.8842366933822632,-9.44991397857666,-1.9812018871307373,0.042855154722929,-0.003460354171693325,-0.006122165359556675
18971520902562,-1.900996208190918,-9.459490776062012,-2.013523578643799,0.0409918874502182,-0.007985432632267475,-0.0090501569211483
18971522139925,-1.9512743949890137,-9.524134635925293,-1.9800047874450684,0.0399271659553051,-0.008251613937318325,-0.007453070487827063
18971523377262,-1.8770540952682495,-9.498995780944824,-2.005143880844116,0.0404595248401165,-0.00958251953125,-0.005057440605014563
18971524614600,-1.8914194107055664,-9.475052833557129,-2.013523578643799,0.0388624407351017,-0.0037265352439135313,-0.0063883461989462376
18971525851950,-1.8842366933822632,-9.533711433410645,-2.006340980529785,0.038330078125,-0.008783976547420025,-0.0063883461989462376
18971527089287,-1.9177556037902832,-9.476250648498535,-2.0195090770721436,0.0460493303835392,-0.015438503585755825,-0.003460354171693325
18971528326637,-1.902193307876587,-9.524134635925293,-2.0254945755004883,0.0399271659553051,-0.00958251953125,-0.0066545275039970875
18971529563975,-1.923741102218628,-9.542091369628906,-2.007538080215454,0.0356682650744915,-0.0066545275039970875,-0.00692070834338665
18971530801325,-1.9273324012756348,-9.512163162231445,-2.007538080215454,0.0319417305290699,-0.0077192517928779125,-0.00984870083630085
18971532038675,-1.899799108505249,-9.5037841796875,-1.9476830959320068,0.0330064557492733,-0.004791259765625,-0.012510511092841625
18971533276000,-1.92134690284729,-9.533711433410645,-1.9931728839874268,0.0319417305290699,-0.008251613937318325,-0.0114457868039608
18971534513362,-1.9057846069335938,-9.514557838439941,-1.985990285873413,0.033538818359375,-0.008517795242369175,-0.012776692397892475
18971535750675,-1.9165585041046143,-9.53730297088623,-1.9728221893310547,0.0322079136967659,-0.008251613937318325,-0.0071868896484375
18971536988037,-1.9093759059906006,-9.500192642211914,-1.9728221893310547,0.0271504707634449,-0.007453070487827063,-0.004791259765625
18971538225375,-1.8806453943252563,-9.518149375915527,-1.985990285873413,0.02369011752307415,-0.012776692397892475,-0.007985432632267475
18971539462725,-1.9045875072479248,-9.527726173400879,-1.9931728839874268,0.02608574740588665,-0.008783976547420025,-0.010913425125181675
18971540700062,-1.8890252113342285,-9.519346237182617,-1.9249382019042969,0.02661811001598835,-0.0053236219100654125,-0.00958251953125
18971541937400,-1.868674397468567,-9.525331497192383,-1.9512743949890137,0.02315775491297245,-0.0077192517928779125,-0.0162370465695858
18971543174750,-1.8626888990402222,-9.508572578430176,-1.9704279899597168,0.0204959437251091,-0.0090501569211483,-0.0119781494140625
18971544412087,-1.84233820438385,-9.479841232299805,-1.965639591217041,0.0223592109978199,-0.010114881210029125,-0.012510511092841625
18971545649437,-1.8710685968399048,-9.4822359085083,-2.031480073928833,0.0215606689453125,-0.010381062515079975,-0.02129448764026165
18971546886787,-1.8279730081558228,-9.508572578430176,-1.9476830959320068,0.01597086526453495,-0.01224433071911335,-0.01756795309484005
18971548124125,-1.9057846069335938,-9.485827445983887,-1.9931728839874268,0.01783413253724575,-0.0090501569211483,-0.0186326764523983
18971549361475,-1.8579005002975464,-9.516951560974121,-2.0195090770721436,0.01597086526453495,-0.008251613937318325,-0.0220930315554142
18971550598812,-1.8794482946395874,-9.48462963104248,-1.9716250896453857,0.012510511092841625,-0.005855984054505825,-0.0191650390625
18971551836150,-1.8914194107055664,-9.536105155944824,-1.9979612827301025,0.012510511092841625,-0.008517795242369175,-0.0220930315554142
18971553073512,-1.8962078094482422,-9.515754699707031,-2.0458452701568604,0.008517795242369175,-0.008251613937318325,-0.0276828333735466
18971554310812,-1.8938136100769043,-9.487024307250977,-2.0027496814727783,0.010381062515079975,-0.00958251953125,-0.02502102218568325
18971555548187,-1.9165585041046143,-9.485827445983887,-2.007538080215454,0.01117960549890995,-0.005855984054505825,-0.0258195661008358
18971556785525,-1.92134690284729,-9.485827445983887,-1.9536685943603516,0.010114881210029125,-0.008783976547420025,-0.02848137728869915
18971558022862,-1.9321208000183105,-9.494207382202148,-1.9788076877593994,0.007453070487827063,-0.007453070487827063,-0.0268842913210392
18971559260212,-1.8914194107055664,-9.463082313537598,-1.9967641830444336,0.0023956298828125,-0.0023956298828125,-0.0292799212038517
18971560497550,-1.8926165103912354,-9.467870712280273,-2.0027496814727783,0.0029279920272529125,-0.00958251953125,-0.0311431884765625
18971561734900,-1.9141643047332764,-9.473855972290039,-2.0003554821014404,0.003460354171693325,-0.008251613937318325,-0.02794901467859745
18971562972237,-1.9093759059906006,-9.488221168518066,-1.9955670833587646,0.00452507846057415,-0.005589802749454975,-0.0271504707634449
18971564209587,-1.866280198097229,-9.463082313537598,-1.9943699836730957,0.0026618109550327063,-0.0023956298828125,-0.02315775491297245
18971565446937,-1.8758569955825806,-9.50498104095459,-1.965639591217041,0.003460354171693325,-0.004791259765625,-0.02422248013317585
18971566684262,-1.8950107097625732,-9.502586364746094,-1.946485996246338,0.003460354171693325,-0.00452507846057415,-0.0223592109978199
18971567921600,-1.8842366933822632,-9.498995780944824,-1.9692308902740479,0.0005323622026480734,-0.0042588976211845875,-0.02315775491297245
18971569158962,-1.86508309841156,-9.466673851013184,-1.9943699836730957,0.005057440605014563,-0.007453070487827063,-0.0258195661008358
18971570396300,-1.8495208024978638,-9.469067573547363,-2.0195090770721436,0.0029279920272529125,-0.0037265352439135313,-0.0258195661008358
18971571633662,-1.8555063009262085,-9.460687637329102,-1.9692308902740479,0.0015970865497365594,-0.0077192517928779125,-0.02315775491297245
18971572870975,-1.8387469053268433,-9.494207382202148,-1.9620482921600342,-0.0026618109550327063,-0.00984870083630085,-0.0196974016726017
18971574108337,-1.902193307876587,-9.440337181091309,-1.9692308902740479,-0.0042588976211845875,-0.00452507846057415,-0.0196974016726017
18971575345675,-1.86508309841156,-9.465476036071777,-1.9045875072479248,-0.0015970865497365594,-0.006122165359556675,-0.0220930315554142
18971576583025,-1.8758569955825806,-9.44752025604248,-1.9488801956176758,-0.0042588976211845875,-0.0039927163161337376,-0.0204959437251091
18971577820362,-1.8375498056411743,-9.47146224975586,-1.9907786846160889,-0.00984870083630085,-0.0010647244052961469,-0.0228915736079216
18971579057712,-1.8555063009262085,-9.453505516052246,-1.9812018871307373,-0.005855984054505825,-0.0071868896484375,-0.0186326764523983
18971580295050,-1.9153614044189453,-9.410409927368164,-1.9620482921600342,-0.006122165359556675,-0.0053236219100654125,-0.0167694091796875
18971581532375,-1.8531121015548706,-9.463082313537598,-1.9560627937316895,-0.006122165359556675,-0.00452507846057415,-0.014373779296875
18971582769737,-1.8770540952682495,-9.458293914794922,-1.9476830959320068,-0.0077192517928779125,-0.0071868896484375,-0.007985432632267475
18971584007100,-1.8794482946395874,-9.461885452270508,-1.9608511924743652,-0.004791259765625,-0.0090501569211483,-0.010647243820130825
18971585244412,-1.9045875072479248,-9.422380447387695,-1.9764134883880615,-0.0071868896484375,-0.0042588976211845875,-0.01463996060192585
18971586481762,-1.8950107097625732,-9.443928718566895,-1.9608511924743652,-0.0077192517928779125,-0.008517795242369175,-0.00931633822619915
18971587719112,-1.8854339122772217,-9.3828763961792,-1.9955670833587646,-0.008517795242369175,-0.0029279920272529125,-0.005589802749454975
18971588956450,-1.8543092012405396,-9.433155059814453,-2.029085874557495,-0.0090501569211483,-0.008517795242369175,-0.00931633822619915
18971590193800,-1.9141643047332764,-9.454702377319336,-2.008735179901123,-0.0077192517928779125,-0.0029279920272529125,-0.007985432632267475
18971591431150,-1.900996208190918,-9.410409927368164,-1.9931728839874268,-0.0023956298828125,-0.0013309054775163531,-0.0066545275039970875
18971592668487,-1.89860200881958,-9.405621528625488,-2.0219032764434814,-0.01171196810901165,-0.005855984054505825,-0.00931633822619915
18971593905825,-1.8734627962112427,-9.402029991149902,-2.0219032764434814,-0.010647243820130825,-0.0071868896484375,-0.0063883461989462376
18971595143150,-1.8567034006118774,-9.418789863586426,-1.9991583824157715,-0.005057440605014563,-0.005589802749454975,0.0005323622026480734
18971596380525,-1.9081788063049316,-9.41759204864502,-2.0159177780151367,-0.0077192517928779125,-0.00452507846057415,-0.0010647244052961469
18971597617862,-1.9081788063049316,-9.387664794921875,-2.0482394695281982,-0.005589802749454975,-0.0026618109550327063,0.004791259765625
18971598855200,-1.8902223110198975,-9.423578262329102,-1.9967641830444336,-0.005589802749454975,-0.0042588976211845875,0.0066545275039970875
18971600092525,-1.9045875072479248,-9.458293914794922,-1.946485996246338,-0.0071868896484375,-0.003460354171693325,0.0002661811013240367
18971601329887,-1.9093759059906006,-9.421183586120605,-1.9991583824157715,-0.008783976547420025,-0.0015970865497365594,0.005057440605014563
18971602567237,-1.8950107097625732,-9.442731857299805,-1.9776105880737305,-0.013042873702943325,-0.0015970865497365594,0.0039927163161337376
18971603804562,-1.9177556037902832,-9.478644371032715,-1.9907786846160889,-0.00958251953125,-0.0029279920272529125,0.0023956298828125
18971605041912,-1.902193307876587,-9.518149375915527,-1.9800047874450684,-0.010114881210029125,0.0,0.00958251953125
18971606279250,-1.8734627962112427,-9.4822359085083,-1.9608511924743652,-0.012776692397892475,0.0018632676219567657,0.01224433071911335
18971607516587,-1.8614917993545532,-9.478644371032715,-2.0015525817871094,-0.0157046839594841,0.0031941730994731188,0.01463996060192585
18971608753950,-1.8938136100769043,-9.494207382202148,-1.941697597503662,-0.01410759799182415,0.003460354171693325,0.01171196810901165
18971609991275,-1.8734627962112427,-9.47146224975586,-1.9512743949890137,-0.01410759799182415,0.0037265352439135313,0.015438503585755825
18971611228637,-1.8782511949539185,-9.53849983215332,-1.9728221893310547,-0.0157046839594841,0.0042588976211845875,0.01597086526453495
18971612465962,-1.8255788087844849,-9.513360977172852,-1.9800047874450684,-0.01756795309484005,-0.0013309054775163531,0.01996358297765255
18971613703325,-1.8543092012405396,-9.459490776062012,-1.9728221893310547,-0.0191650390625,0.0013309054775163531,0.02022976242005825
18971614940675,-1.821987509727478,-9.469067573547363,-1.9812018871307373,-0.01703559048473835,0.0037265352439135313,0.023956298828125
18971616178012,-1.8088194131851196,-9.457097053527832,-1.9512743949890137,-0.02422248013317585,0.0010647244052961469,0.0228915736079216
18971617415350,-1.7908629179000854,-9.402029991149902,-1.9488801956176758,-0.0223592109978199,0.0037265352439135313,0.02502102218568325
18971618652700,-1.8148049116134644,-9.400833129882812,-1.9165585041046143,-0.023956298828125,0.00692070834338665,0.02608574740588665
18971619890037,-1.742978811264038,-9.364919662475586,-1.9345149993896484,-0.0228915736079216,0.00931633822619915,0.02608574740588665
18971621127375,-1.7513585090637207,-9.367314338684082,-1.9979612827301025,-0.02661811001598835,0.010647243820130825,0.02369011752307415
18971622364737,-1.801636815071106,-9.320627212524414,-1.9572598934173584,-0.02502102218568325,0.0037265352439135313,0.02182685025036335
18971623602062,-1.7860745191574097,-9.314641952514648,-1.9105730056762695,-0.02794901467859745,0.0077192517928779125,0.02422248013317585
18971624839412,-1.7836803197860718,-9.330204010009766,-1.9045875072479248,-0.033538818359375,0.0015970865497365594,0.0167694091796875
18971626076750,-1.8100165128707886,-9.283516883850098,-1.9524714946746826,-0.0316755510866642,0.0015970865497365594,0.0252872034907341
18971627314112,-1.8339585065841675,-9.281123161315918,-2.01232647895813,-0.02741665206849575,0.0021294488105922937,0.0306108258664608
18971628551450,-1.777694821357727,-9.259574890136719,-1.9931728839874268,-0.02901373989880085,-0.0005323622026480734,0.0300784632563591
18971629788800,-1.7932571172714233,-9.26915168762207,-1.9488801956176758,-0.0263519287109375,0.0015970865497365594,0.02502102218568325
18971631026137,-1.8171991109848022,-9.253589630126953,-1.9608511924743652,-0.0276828333735466,0.0010647244052961469,0.02315775491297245
18971632263475,-1.8471266031265259,-9.283516883850098,-1.96683669090271,-0.0263519287109375,-0.0007985432748682797,0.0258195661008358
18971633500825,-1.821987509727478,-9.287108421325684,-1.9812018871307373,-0.02661811001598835,0.0023956298828125,0.02315775491297245
18971634738150,-1.7944542169570923,-9.318233489990234,-1.9776105880737305,-0.02608574740588665,0.0018632676219567657,0.02369011752307415
18971635975512,-1.821987509727478,-9.299079895019531,-2.0027496814727783,-0.02848137728869915,-0.0015970865497365594,0.0292799212038517
18971637212862,-1.8064252138137817,-9.375694274902344,-1.9847931861877441,-0.02794901467859745,0.0042588976211845875,0.0295461006462574
18971638450200,-1.7848774194717407,-9.384073257446289,-2.029085874557495,-0.02315775491297245,0.0015970865497365594,0.03087700717151165
18971639687537,-1.8171991109848022,-9.361329078674316,-1.9955670833587646,-0.02315775491297245,-0.0010647244052961469,0.0322079136967659
18971640924875,-1.8579005002975464,-9.39365005493164,-1.98958158493042,-0.02608574740588665,0.0031941730994731188,0.0306108258664608
18971642162212,-1.8267759084701538,-9.412803649902344,-1.9752163887023926,-0.02555338479578495,0.0063883461989462376,0.0295461006462574
18971643399575,-1.823184609413147,-9.418789863586426,-1.9847931861877441,-0.0247548408806324,0.0023956298828125,0.0319417305290699
18971644636925,-1.8902223110198975,-9.425971984863281,-1.965639591217041,-0.0234239362180233,-0.0002661811013240367,0.0340711809694767
18971645874262,-1.8794482946395874,-9.477447509765625,-1.9524714946746826,-0.02555338479578495,0.0010647244052961469,0.02848137728869915
18971647111600,-1.8483237028121948,-9.4822359085083,-1.9488801956176758,-0.02608574740588665,0.0042588976211845875,0.0343373604118824
18971648348950,-1.8579005002975464,-9.45111083984375,-1.9776105880737305,-0.02555338479578495,0.0029279920272529125,0.0396609827876091
18971649586275,-1.868674397468567,-9.455899238586426,-1.9620482921600342,-0.0276828333735466,0.0021294488105922937,0.0362006276845932
18971650823625,-1.867477297782898,-9.433155059814453,-1.946485996246338,-0.0244886614382267,0.0023956298828125,0.038330078125
18971652060975,-1.8555063009262085,-9.406818389892578,-1.9716250896453857,-0.02741665206849575,0.0010647244052961469,0.0364668108522892
18971653298312,-1.8339585065841675,-9.454702377319336,-1.964442491531372,-0.0268842913210392,0.0,0.033538818359375
18971654535650,-1.868674397468567,-9.465476036071777,-1.985990285873413,-0.0244886614382267,0.0042588976211845875,0.0367329902946949
18971655773025,-1.9033904075622559,-9.441534042358398,-2.009932279586792,-0.0314093679189682,0.008517795242369175,0.0385962575674057
18971657010337,-1.8818424940109253,-9.430760383605957,-2.005143880844116,-0.0263519287109375,0.0005323622026480734,0.0356682650744915
18971658247675,-1.8806453943252563,-9.422380447387695,-1.9752163887023926,-0.0263519287109375,0.005855984054505825,0.0388624407351017
18971659485037,-1.8878281116485596,-9.443928718566895,-1.9800047874450684,-0.0276828333735466,0.008251613937318325,0.0401933453977108
18971660722362,-1.8950107097625732,-9.455899238586426,-2.0027496814727783,-0.0263519287109375,0.0021294488105922937,0.0367329902946949
18971661959712,-1.8974049091339111,-9.461885452270508,-2.0219032764434814,-0.02422248013317585,0.0002661811013240367,0.043121337890625
18971663197062,-1.9333178997039795,-9.463082313537598,-2.0195090770721436,-0.0263519287109375,0.00452507846057415,0.0412580706179142
18971664434425,-1.8902223110198975,-9.502586364746094,-2.055422067642212,-0.0263519287109375,0.00452507846057415,0.0412580706179142
18971665671775,-1.899799108505249,-9.459490776062012,-2.03507137298584,-0.02661811001598835,0.00692070834338665,0.0356682650744915
18971666909075,-1.89860200881958,-9.457097053527832,-2.0446481704711914,-0.03034464456140995,0.007985432632267475,0.0324740931391716
18971668146437,-1.8890252113342285,-9.47146224975586,-1.9979612827301025,-0.0316755510866642,0.0037265352439135313,0.0322079136967659
18971669383775,-1.9105730056762695,-9.487024307250977,-2.0386626720428467,-0.0292799212038517,0.007985432632267475,0.0375315360724926
18971670621137,-1.9117701053619385,-9.434351921081543,-2.0446481704711914,-0.0314093679189682,0.0039927163161337376,0.0468478724360466
18971671858475,-1.8974049091339111,-9.429563522338867,-2.0183119773864746,-0.0330064557492733,0.0026618109550327063,0.0319417305290699
18971673095825,-1.899799108505249,-9.490615844726562,-2.0242974758148193,-0.0359344482421875,0.008251613937318325,0.033272635191679
18971674333162,-1.899799108505249,-9.4822359085083,-2.0446481704711914,-0.0343373604118824,0.0071868896484375,0.0354020856320858
18971675570512,-1.9189527034759521,-9.41400146484375,-2.0458452701568604,-0.0306108258664608,0.005589802749454975,0.0351359061896801
18971676807850,-1.8579005002975464,-9.418789863586426,-1.9740192890167236,-0.0324740931391716,0.006122165359556675,0.0346035435795784
18971678045175,-1.868674397468567,-9.411606788635254,-1.9931728839874268,-0.0292799212038517,0.0039927163161337376,0.0377977155148983
18971679282525,-1.8854339122772217,-9.410409927368164,-2.0003554821014404,-0.0319417305290699,0.003460354171693325,0.0346035435795784
18971680519887,-1.8878281116485596,-9.39365005493164,-2.0027496814727783,-0.0343373604118824,0.007985432632267475,0.0330064557492733
18971681757225,-1.8375498056411743,-9.429563522338867,-1.9692308902740479,-0.0311431884765625,0.00984870083630085,0.0391286201775074
18971682994575,-1.866280198097229,-9.386467933654785,-2.0207061767578125,-0.02848137728869915,0.005057440605014563,0.0377977155148983
18971684231912,-1.86508309841156,-9.372102737426758,-1.96683669090271,-0.0351359061896801,0.0063883461989462376,0.0346035435795784
18971685469250,-1.86508309841156,-9.352949142456055,-2.006340980529785,-0.0359344482421875,0.0042588976211845875,0.0369991734623909
18971686706587,-1.8579005002975464,-9.344569206237793,-2.009932279586792,-0.0330064557492733,0.007453070487827063,0.0415242500603199
18971687943937,-1.824381709098816,-9.320627212524414,-2.053027868270874,-0.0377977155148983,0.005589802749454975,0.0343373604118824
18971689181275,-1.8351556062698364,-9.311050415039062,-2.0649988651275635,-0.0372653529047966,0.0037265352439135313,0.0354020856320858
18971690418637,-1.8148049116134644,-9.2655611038208,-2.0386626720428467,-0.0354020856320858,0.0039927163161337376,0.0359344482421875
18971691655962,-1.7980455160140991,-9.270349502563477,-2.013523578643799,-0.0295461006462574,0.005589802749454975,0.0364668108522892
18971692893312,-1.824381709098816,-9.277531623840332,-2.030282974243164,-0.0324740931391716,0.0042588976211845875,0.0343373604118824
18971694130650,-1.8339585065841675,-9.313445091247559,-2.0195090770721436,-0.0356682650744915,0.0071868896484375,0.0306108258664608
18971695368000,-1.8291701078414917,-9.331400871276855,-2.0242974758148193,-0.0372653529047966,0.0021294488105922937,0.0330064557492733
18971696605337,-1.7956513166427612,-9.318233489990234,-2.006340980529785,-0.03034464456140995,0.0018632676219567657,0.0369991734623909
18971697842700,-1.7944542169570923,-9.312247276306152,-2.0422539710998535,-0.0319417305290699,0.0042588976211845875,0.0338049978017807
18971699080037,-1.8471266031265259,-9.320627212524414,-2.050633668899536,-0.0311431884765625,0.0026618109550327063,0.03034464456140995
18971700317375,-1.7860745191574097,-9.376891136169434,-2.054224967956543,-0.0354020856320858,0.0042588976211845875,0.0319417305290699
18971701554725,-1.8076223134994507,-9.421183586120605,-2.0027496814727783,-0.0327402763068676,0.0007985432748682797,0.0316755510866642
18971702792062,-1.845929503440857,-9.428366661071777,-2.081758499145508,-0.0300784632563591,0.003460354171693325,0.0314093679189682
18971704029412,-1.8160020112991333,-9.433155059814453,-2.0925323963165283,-0.0295461006462574,0.0023956298828125,0.0340711809694767
18971705266762,-1.8088194131851196,-9.44752025604248,-2.0374655723571777,-0.0316755510866642,-0.0015970865497365594,0.02901373989880085
18971706504087,-1.801636815071106,-9.47146224975586,-2.0195090770721436,-0.0300784632563591,0.0018632676219567657,0.02661811001598835
18971707741437,-1.8555063009262085,-9.44752025604248,-2.0027496814727783,-0.0295461006462574,-0.0018632676219567657,0.0314093679189682
18971708978762,-1.8052281141281128,-9.493009567260742,-1.9764134883880615,-0.0263519287109375,-0.0018632676219567657,0.0348697230219841
18971710216137,-1.8351556062698364,-9.443928718566895,-1.9321208000183105,-0.02741665206849575,0.0015970865497365594,0.0327402763068676
18971711453450,-1.8088194131851196,-9.387664794921875,-1.9369091987609863,-0.0314093679189682,-0.007453070487827063,0.0316755510866642
18971712690800,-1.7669209241867065,-9.35773754119873,-1.9560627937316895,-0.0282151959836483,-0.008783976547420025,0.0356682650744915
18971713928150,-1.7956513166427612,-9.315838813781738,-1.9476830959320068,-0.02981228195130825,-0.0039927163161337376,0.0340711809694767
18971715165487,-1.799242615699768,-9.299079895019531,-1.9512743949890137,-0.0322079136967659,-0.0039927163161337376,0.0343373604118824
18971716402850,-1.799242615699768,-9.29309368133545,-1.9393033981323242,-0.0306108258664608,-0.008251613937318325,0.0362006276845932
18971717640175,-1.820790410041809,-9.278728485107422,-1.9333178997039795,-0.0244886614382267,-0.0071868896484375,0.0314093679189682
18971718877525,-1.7489643096923828,-9.239224433898926,-1.941697597503662,-0.02129448764026165,-0.01117960549890995,0.0348697230219841
18971720114862,-1.7393875122070312,-9.220070838928223,-1.9345149993896484,-0.02422248013317585,-0.010913425125181675,0.0364668108522892
18971721352212,-1.7884687185287476,-9.264363288879395,-1.942894697189331,-0.0234239362180233,-0.00452507846057415,0.0346035435795784
18971722589562,-1.802833914756775,-9.215282440185547,-1.9093759059906006,-0.0204959437251091,-0.0071868896484375,0.0300784632563591
18971723826912,-1.780089020729065,-9.242815971374512,-1.965639591217041,-0.01889885775744915,-0.008251613937318325,0.0375315360724926
18971725064225,-1.7824832201004028,-9.19972038269043,-1.9536685943603516,-0.01783413253724575,-0.0066545275039970875,0.0362006276845932
18971726301600,-1.7705122232437134,-9.211690902709961,-1.9381062984466553,-0.01783413253724575,-0.00931633822619915,0.033538818359375
18971727538937,-1.7669209241867065,-9.205705642700195,-1.9536685943603516,-0.01836649514734745,-0.01171196810901165,0.0322079136967659
18971728776262,-1.7513585090637207,-9.240421295166016,-1.964442491531372,-0.0167694091796875,-0.010913425125181675,0.0311431884765625
18971730013612,-1.7872716188430786,-9.21288776397705,-2.007538080215454,-0.01171196810901165,-0.0090501569211483,0.0369991734623909
18971731250962,-1.7812861204147339,-9.210494041442871,-1.988384485244751,-0.010913425125181675,-0.0157046839594841,0.0311431884765625
18971732488337,-1.7860745191574097,-9.244012832641602,-1.985990285873413,-0.0077192517928779125,-0.0138414166867733,0.0340711809694767
18971733725650,-1.7537527084350586,-9.263166427612305,-1.9991583824157715,-0.006122165359556675,-0.01597086526453495,0.0399271659553051
18971734963000,-1.7848774194717407,-9.260772705078125,-2.0039467811584473,-0.0029279920272529125,-0.0162370465695858,0.038330078125
18971736200350,-1.7836803197860718,-9.276334762573242,-1.9812018871307373,-0.010114881210029125,-0.01889885775744915,0.0300784632563591
18971737437687,-1.8124107122421265,-9.209297180175781,-1.944091796875,-0.00692070834338665,-0.01357523538172245,0.0306108258664608
18971738675012,-1.8088194131851196,-9.247604370117188,-2.0003554821014404,-0.005855984054505825,-0.013309055007994175,0.0282151959836483
18971739912375,-1.821987509727478,-9.251195907592773,-2.011129379272461,-0.005855984054505825,-0.014373779296875,0.0268842913210392
18971741149712,-1.8148049116134644,-9.314641952514648,-1.98958158493042,-0.00452507846057415,-0.01650322787463665,0.0258195661008358
18971742387050,-1.8100165128707886,-9.32302188873291,-2.0147206783294678,-0.0031941730994731188,-0.0204959437251091,0.02661811001598835
18971743624400,-1.8303672075271606,-9.305065155029297,-2.056619167327881,-0.0005323622026480734,-0.0191650390625,0.0295461006462574
18971744861750,-1.8531121015548706,-9.3026704788208,-2.0638017654418945,-0.0042588976211845875,-0.02129448764026165,0.02555338479578495
18971746099087,-1.8483237028121948,-9.315838813781738,-2.05781626701355,0.0015970865497365594,-0.0196974016726017,0.0271504707634449
18971747336437,-1.8136078119277954,-9.349357604980469,-1.9919757843017578,0.0039927163161337376,-0.0300784632563591,0.02981228195130825
18971748573775,-1.8255788087844849,-9.423578262329102,-2.005143880844116,0.0063883461989462376,-0.02262539230287075,0.02848137728869915
18971749811112,-1.8195933103561401,-9.402029991149902,-2.006340980529785,0.0026618109550327063,-0.01889885775744915,0.02848137728869915
18971751048462,-1.8351556062698364,-9.431957244873047,-2.0039467811584473,0.0015970865497365594,-0.02502102218568325,0.0306108258664608
18971752285812,-1.8411411046981812,-9.466673851013184,-2.007538080215454,0.005855984054505825,-0.0268842913210392,0.0311431884765625
18971753523162,-1.843535304069519,-9.429563522338867,-1.9752163887023926,0.008517795242369175,-0.0252872034907341,0.0311431884765625
18971754760500,-1.8602946996688843,-9.408015251159668,-1.9764134883880615,0.00931633822619915,-0.02422248013317585,0.033538818359375
18971755997825,-1.867477297782898,-9.445125579833984,-1.985990285873413,0.0,-0.02422248013317585,0.0356682650744915
18971757235200,-1.8734627962112427,-9.418789863586426,-1.9740192890167236,0.0002661811013240367,-0.02315775491297245,0.0311431884765625
18971758472525,-1.8974049091339111,-9.425971984863281,-1.9716250896453857,0.0013309054775163531,-0.0234239362180233,0.0324740931391716
18971759709875,-1.8710685968399048,-9.421183586120605,-1.985990285873413,0.006122165359556675,-0.02555338479578495,0.0367329902946949
18971760947212,-1.868674397468567,-9.398438453674316,-1.9776105880737305,0.0053236219100654125,-0.02794901467859745,0.02874755859375
18971762184550,-1.8758569955825806,-9.390059471130371,-1.9716250896453857,0.003460354171693325,-0.03087700717151165,0.0292799212038517
18971763421887,-1.8914194107055664,-9.374496459960938,-1.9812018871307373,0.0026618109550327063,-0.0252872034907341,0.03087700717151165
18971764659250,-1.9033904075622559,-9.351752281188965,-1.98958158493042,0.0005323622026480734,-0.02661811001598835,0.0252872034907341
18971765896587,-1.9069817066192627,-9.339780807495117,-1.9584569931030273,-0.0026618109550327063,-0.0244886614382267,0.02315775491297245
18971767133962,-1.8914194107055664,-9.370905876159668,-1.9524714946746826,-0.0010647244052961469,-0.0244886614382267,0.0271504707634449
18971768371300,-1.9129672050476074,-9.327810287475586,-1.9393033981323242,0.0063883461989462376,-0.0292799212038517,0.02794901467859745
18971769608612,-1.8746598958969116,-9.306262016296387,-1.9512743949890137,0.0066545275039970875,-0.02555338479578495,0.0220930315554142
18971770845962,-1.8842366933822632,-9.329007148742676,-1.9847931861877441,0.006122165359556675,-0.02502102218568325,0.0271504707634449
18971772083312,-1.8950107097625732,-9.329007148742676,-1.964442491531372,0.0031941730994731188,-0.02848137728869915,0.02076212503015995
18971773320662,-1.900996208190918,-9.334992408752441,-1.9476830959320068,0.0018632676219567657,-0.0234239362180233,0.02129448764026165
18971774557987,-1.8878281116485596,-9.32421875,-1.9776105880737305,0.004791259765625,-0.0234239362180233,0.02422248013317585
18971775795350,-1.902193307876587,-9.337387084960938,-1.9800047874450684,0.0090501569211483,-0.0276828333735466,0.02129448764026165
18971777032687,-1.9321208000183105,-9.345766067504883,-1.9991583824157715,0.005589802749454975,-0.0252872034907341,0.0244886614382267
18971778270025,-1.9105730056762695,-9.361329078674316,-2.01232647895813,0.005855984054505825,-0.0258195661008358,0.0220930315554142
18971779507375,-1.8567034006118774,-9.385271072387695,-1.9536685943603516,0.00958251953125,-0.0276828333735466,0.0204959437251091
18971780744712,-1.8818424940109253,-9.388861656188965,-1.9812018871307373,0.0090501569211483,-0.0271504707634449,0.0215606689453125
18971781982050,-1.8854339122772217,-9.429563522338867,-1.9345149993896484,0.0021294488105922937,-0.02741665206849575,0.0181003138422966
18971783219412,-1.8974049091339111,-9.41400146484375,-1.9357120990753174,0.008517795242369175,-0.0276828333735466,0.01783413253724575
18971784456762,-1.920149803161621,-9.445125579833984,-1.9608511924743652,0.003460354171693325,-0.0306108258664608,0.02076212503015995
18971785694100,-1.8950107097625732,-9.430760383605957,-1.9560627937316895,0.0053236219100654125,-0.02874755859375,0.01703559048473835
18971786931425,-1.8926165103912354,-9.45111083984375,-1.946485996246338,0.0090501569211483,-0.0322079136967659,0.014373779296875
18971788168800,-1.9369091987609863,-9.410409927368164,-1.9788076877593994,0.008517795242369175,-0.0327402763068676,0.0138414166867733
18971789406137,-1.9776105880737305,-9.419986724853516,-1.946485996246338,0.004791259765625,-0.02422248013317585,0.0173017717897892
18971790643462,-1.92134690284729,-9.405621528625488,-1.9572598934173584,0.0053236219100654125,-0.02981228195130825,0.01357523538172245
18971791880812,-1.9297266006469727,-9.44752025604248,-1.9500772953033447,0.005589802749454975,-0.02901373989880085,0.01703559048473835
18971793118150,-1.9524714946746826,-9.379284858703613,-1.945288896560669,0.0053236219100654125,-0.02848137728869915,0.02022976242005825
18971794355525,-1.9405004978179932,-9.397241592407227,-1.9728221893310547,0.003460354171693325,-0.0268842913210392,0.01943122036755085
18971795592850,-1.9141643047332764,-9.411606788635254,-1.965639591217041,0.003460354171693325,-0.0234239362180233,0.014906140975654125
18971796830200,-1.923741102218628,-9.399636268615723,-1.9357120990753174,0.0066545275039970875,-0.01996358297765255,0.015172322280704975
18971798067550,-1.9141643047332764,-9.367314338684082,-1.9177556037902832,0.0010647244052961469,-0.02422248013317585,0.01410759799182415
18971799304875,-1.9057846069335938,-9.370905876159668,-1.9105730056762695,0.0018632676219567657,-0.02502102218568325,0.01410759799182415
18971800542225,-1.900996208190918,-9.363722801208496,-1.9321208000183105,0.004791259765625,-0.02848137728869915,0.013042873702943325
18971801779575,-1.922544002532959,-9.350554466247559,-1.9345149993896484,0.0037265352439135313,-0.02741665206849575,0.01703559048473835
18971803016912,-1.9357120990753174,-9.3828763961792,-1.9321208000183105,0.00692070834338665,-0.02741665206849575,0.013042873702943325
18971804254262,-1.9548656940460205,-9.369708061218262,-1.9093759059906006,0.0042588976211845875,-0.02422248013317585,0.01410759799182415
18971805491612,-1.945288896560669,-9.396044731140137,-1.9273324012756348,0.0005323622026480734,-0.0276828333735466,0.0167694091796875
18971806728937,-1.9033904075622559,-9.352949142456055,-1.9369091987609863,0.0021294488105922937,-0.02794901467859745,0.01224433071911335
18971807966287,-1.89860200881958,-9.35893440246582,-1.9692308902740479,0.0053236219100654125,-0.01996358297765255,0.015172322280704975
18971809203637,-1.9560627937316895,-9.372102737426758,-1.9728221893310547,0.0066545275039970875,-0.02502102218568325,0.01889885775744915
18971810440975,-1.9033904075622559,-9.348160743713379,-1.9057846069335938,0.0013309054775163531,-0.02848137728869915,0.01410759799182415
18971811678325,-1.9381062984466553,-9.348160743713379,-1.9393033981323242,0.0013309054775163531,-0.0268842913210392,0.01117960549890995
18971812915650,-1.9393033981323242,-9.366117477416992,-1.946485996246338,0.0005323622026480734,-0.0282151959836483,0.013309055007994175
18971814152987,-1.9309237003326416,-9.327810287475586,-1.945288896560669,-0.0007985432748682797,-0.01889885775744915,0.010913425125181675
18971815390337,-1.941697597503662,-9.362525939941406,-1.9273324012756348,0.0007985432748682797,-0.02369011752307415,0.01783413253724575
18971816627712,-1.9093759059906006,-9.368511199951172,-1.9165585041046143,0.0015970865497365594,-0.02874755859375,0.01703559048473835
18971817865037,-1.9273324012756348,-9.319430351257324,-1.8950107097625732,0.0039927163161337376,-0.0268842913210392,0.01650322787463665
18971819102387,-1.9321208000183105,-9.370905876159668,-1.9536685943603516,0.0,-0.02874755859375,0.01943122036755085
18971820339725,-1.8854339122772217,-9.385271072387695,-1.9345149993896484,0.0013309054775163531,-0.02608574740588665,0.01756795309484005
18971821577062,-1.9057846069335938,-9.38167953491211,-1.942894697189331,0.0026618109550327063,-0.02794901467859745,0.015172322280704975
18971822814400,-1.920149803161621,-9.403226852416992,-1.9764134883880615,0.0039927163161337376,-0.02608574740588665,0.0138414166867733
18971824051750,-1.9524714946746826,-9.39365005493164,-1.9716250896453857,0.0013309054775163531,-0.02661811001598835,0.0162370465695858
18971825289100,-1.9381062984466553,-9.38167953491211,-1.9321208000183105,0.0010647244052961469,-0.0234239362180233,0.01703559048473835
18971826526450,-1.9405004978179932,-9.402029991149902,-1.9093759059906006,0.0029279920272529125,-0.02315775491297245,0.01783413253724575
18971827763787,-1.9177556037902832,-9.402029991149902,-1.9728221893310547,0.0005323622026480734,-0.0263519287109375,0.012776692397892475
18971829001112,-1.9333178997039795,-9.387664794921875,-1.9297266006469727,-0.0021294488105922937,-0.02661811001598835,0.0157046839594841
18971830238475,-1.922544002532959,-9.45111083984375,-1.9835960865020752,-0.0007985432748682797,-0.02262539230287075,0.01836649514734745
18971831475812,-1.9141643047332764,-9.423578262329102,-1.9512743949890137,-0.0018632676219567657,-0.0247548408806324,0.01996358297765255
18971832713162,-1.923741102218628,-9.454702377319336,-1.9800047874450684,-0.0021294488105922937,-0.02369011752307415,0.0220930315554142
18971833950512,-1.9297266006469727,-9.429563522338867,-1.9620482921600342,-0.0013309054775163531,-0.02848137728869915,0.02315775491297245
18971835187850,-1.9261353015899658,-9.44871711730957,-1.9967641830444336,0.005057440605014563,-0.02502102218568325,0.0186326764523983
18971836425200,-1.92134690284729,-9.406818389892578,-1.9596540927886963,-0.0018632676219567657,-0.02315775491297245,0.0196974016726017
18971837662537,-1.9632453918457031,-9.378087997436523,-1.9847931861877441,-0.004791259765625,-0.02369011752307415,0.01889885775744915
18971838899875,-1.9560627937316895,-9.372102737426758,-1.9632453918457031,-0.005589802749454975,-0.02262539230287075,0.01943122036755085
18971840137225,-1.9297266006469727,-9.391256332397461,-1.9488801956176758,-0.0066545275039970875,-0.01943122036755085,0.0196974016726017
18971841374587,-1.923741102218628,-9.408015251159668,-1.96683669090271,-0.005057440605014563,-0.01756795309484005,0.02076212503015995
18971842611925,-1.9333178997039795,-9.369708061218262,-1.9560627937316895,-0.0042588976211845875,-0.0191650390625,0.02076212503015995
18971843849262,-1.9524714946746826,-9.3828763961792,-1.945288896560669,-0.006122165359556675,-0.02182685025036335,0.01996358297765255
18971845086600,-1.9548656940460205,-9.378087997436523,-1.9285295009613037,-0.00452507846057415,-0.0220930315554142,0.0191650390625
18971846323950,-1.9177556037902832,-9.384073257446289,-1.9776105880737305,-0.0077192517928779125,-0.0167694091796875,0.02315775491297245
18971847561287,-1.9381062984466553,-9.368511199951172,-1.9572598934173584,-0.005855984054505825,-0.01756795309484005,0.0234239362180233
18971848798637,-1.96683669090271,-9.339780807495117,-1.9512743949890137,-0.008517795242369175,-0.0210283063352108,0.0210283063352108
18971850035987,-1.965639591217041,-9.355342864990234,-1.942894697189331,-0.01410759799182415,-0.01703559048473835,0.02315775491297245
18971851273337,-1.968033790588379,-9.38048267364502,-1.9776105880737305,-0.008251613937318325,-0.0173017717897892,0.02661811001598835
18971852510662,-1.9596540927886963,-9.369708061218262,-1.9740192890167236,-0.0063883461989462376,-0.01597086526453495,0.0215606689453125
18971853748012,-1.964442491531372,-9.390059471130371,-1.9488801956176758,-0.0053236219100654125,-0.0173017717897892,0.02129448764026165
18971854985350,-1.987187385559082,-9.399636268615723,-1.9548656940460205,-0.004791259765625,-0.0181003138422966,0.02315775491297245
18971856222700,-1.9967641830444336,-9.370905876159668,-1.9955670833587646,-0.008783976547420025,-0.01836649514734745,0.02422248013317585
18971857460037,-1.96683669090271,-9.364919662475586,-1.985990285873413,-0.00984870083630085,-0.014373779296875,0.0234239362180233
18971858697375,-1.964442491531372,-9.39365005493164,-1.9536685943603516,-0.007985432632267475,-0.01224433071911335,0.0244886614382267
18971859934725,-2.03507137298584,-9.3828763961792,-1.9823989868164062,-0.010913425125181675,-0.01357523538172245,0.02502102218568325
18971861172075,-2.030282974243164,-9.394847869873047,-2.0027496814727783,-0.0114457868039608,-0.0119781494140625,0.02848137728869915
18971862409412,-2.0254945755004883,-9.41400146484375,-1.9704279899597168,-0.013042873702943325,-0.01117960549890995,0.02874755859375
18971863646762,-2.01232647895813,-9.441534042358398,-2.033874273300171,-0.01357523538172245,-0.00958251953125,0.02555338479578495
18971864884100,-2.031480073928833,-9.41639518737793,-1.987187385559082,-0.0119781494140625,-0.00931633822619915,0.02794901467859745
18971866121450,-2.005143880844116,-9.430760383605957,-1.9692308902740479,-0.01117960549890995,-0.01117960549890995,0.02741665206849575
18971867358787,-1.9979612827301025,-9.427168846130371,-1.9931728839874268,-0.01171196810901165,-0.010913425125181675,0.02369011752307415
18971868596137,-2.0159177780151367,-9.459490776062012,-1.9321208000183105,-0.01463996060192585,-0.00931633822619915,0.0234239362180233
18971869833487,-2.0039467811584473,-9.446322441101074,-1.9776105880737305,-0.01783413253724575,-0.01117960549890995,0.02502102218568325
18971871070825,-1.985990285873413,-9.44871711730957,-1.9081788063049316,-0.02022976242005825,-0.0071868896484375,0.0282151959836483
18971872308175,-2.0003554821014404,-9.39245319366455,-1.96683669090271,-0.0167694091796875,-0.003460354171693325,0.0252872034907341
18971873545525,-2.029085874557495,-9.394847869873047,-1.9476830959320068,-0.012776692397892475,-0.006122165359556675,0.0228915736079216
18971874782862,-1.9823989868164062,-9.394847869873047,-1.9716250896453857,-0.015172322280704975,-0.005589802749454975,0.02981228195130825
18971876020212,-1.9943699836730957,-9.435548782348633,-1.9500772953033447,-0.0244886614382267,-0.005057440605014563,0.02555338479578495
18971877257537,-1.98958158493042,-9.3828763961792,-1.9560627937316895,-0.0204959437251091,-0.003460354171693325,0.0247548408806324
18971878494887,-1.968033790588379,-9.44991397857666,-1.9716250896453857,-0.01650322787463665,-0.0039927163161337376,0.0271504707634449
18971879732237,-1.9716250896453857,-9.441534042358398,-1.9608511924743652,-0.01889885775744915,-0.007985432632267475,0.0263519287109375
18971880969575,-1.9955670833587646,-9.436745643615723,-2.0003554821014404,-0.02076212503015995,-0.0071868896484375,0.02741665206849575
18971882206925,-1.9608511924743652,-9.418789863586426,-1.9704279899597168,-0.0252872034907341,-0.00452507846057415,0.02741665206849575
18971883444275,-1.9728221893310547,-9.400833129882812,-1.920149803161621,-0.02076212503015995,-0.0039927163161337376,0.02901373989880085
18971884681612,-1.988384485244751,-9.41519832611084,-1.9548656940460205,-0.0228915736079216,-0.005855984054505825,0.02794901467859745
18971885918962,-1.9979612827301025,-9.363722801208496,-1.9776105880737305,-0.0322079136967659,-0.0053236219100654125,0.02874755859375
18971887156300,-1.9943699836730957,-9.396044731140137,-1.9919757843017578,-0.02848137728869915,-0.0002661811013240367,0.02981228195130825
18971888393650,-2.007538080215454,-9.366117477416992,-1.9716250896453857,-0.02315775491297245,0.0002661811013240367,0.0295461006462574
18971889630987,-2.0195090770721436,-9.296685218811035,-1.9560627937316895,-0.02741665206849575,-0.0023956298828125,0.0268842913210392
18971890868337,-1.9620482921600342,-9.32661247253418,-1.9823989868164062,-0.0282151959836483,-0.0037265352439135313,0.0300784632563591
18971892105675,-2.013523578643799,-9.338583946228027,-1.9728221893310547,-0.0220930315554142,-0.0037265352439135313,0.0359344482421875
18971893343025,-1.944091796875,-9.372102737426758,-1.985990285873413,-0.02315775491297245,-0.005589802749454975,0.0340711809694767
18971894580362,-1.9572598934173584,-9.349357604980469,-1.9835960865020752,-0.0282151959836483,-0.0039927163161337376,0.0282151959836483
18971895817700,-1.9524714946746826,-9.32661247253418,-1.9835960865020752,-0.0276828333735466,-0.0066545275039970875,0.0319417305290699
18971897055062,-1.9776105880737305,-9.320627212524414,-1.9967641830444336,-0.0258195661008358,-0.0039927163161337376,0.0343373604118824
18971898292400,-1.968033790588379,-9.32421875,-1.9728221893310547,-0.0228915736079216,-0.0002661811013240367,0.0340711809694767
18971899529762,-1.9907786846160889,-9.330204010009766,-2.006340980529785,-0.0263519287109375,-0.0013309054775163531,0.0324740931391716
18971900767100,-1.9931728839874268,-9.344569206237793,-1.9740192890167236,-0.02661811001598835,-0.0015970865497365594,0.0300784632563591
18971902004425,-1.9560627937316895,-9.35893440246582,-1.9907786846160889,-0.02555338479578495,-0.0018632676219567657,0.0324740931391716
18971903241787,-1.9847931861877441,-9.370905876159668,-2.0159177780151367,-0.0271504707634449,0.0021294488105922937,0.0316755510866642
18971904479125,-1.987187385559082,-9.346963882446289,-2.0183119773864746,-0.02555338479578495,-0.0031941730994731188,0.0362006276845932
18971905716475,-1.9608511924743652,-9.39245319366455,-1.9931728839874268,-0.02661811001598835,0.0002661811013240367,0.0340711809694767
18971906953812,-1.9704279899597168,-9.369708061218262,-1.964442491531372,-0.0215606689453125,0.0031941730994731188,0.0327402763068676
18971908191150,-2.006340980529785,-9.3828763961792,-1.9991583824157715,-0.02315775491297245,0.0063883461989462376,0.0311431884765625
18971909428487,-1.964442491531372,-9.38048267364502,-2.013523578643799,-0.0322079136967659,0.005057440605014563,0.0343373604118824
18971910665837,-1.9728221893310547,-9.412803649902344,-1.9979612827301025,-0.0244886614382267,0.0026618109550327063,0.033272635191679
18971911903175,-1.9776105880737305,-9.384073257446289,-1.9943699836730957,-0.02129448764026165,-0.0010647244052961469,0.0330064557492733
18971913140537,-1.9955670833587646,-9.410409927368164,-2.0434510707855225,-0.0244886614382267,0.0007985432748682797,0.0351359061896801
18971914377887,-1.9584569931030273,-9.378087997436523,-1.9955670833587646,-0.02981228195130825,0.007985432632267475,0.0314093679189682
18971915615225,-1.9728221893310547,-9.346963882446289,-1.9788076877593994,-0.0327402763068676,0.00692070834338665,0.0292799212038517
18971916852562,-1.9321208000183105,-9.398438453674316,-1.9752163887023926,-0.0223592109978199,0.005589802749454975,0.0271504707634449
18971918089887,-1.9297266006469727,-9.394847869873047,-2.0266916751861572,-0.023956298828125,0.0071868896484375,0.0247548408806324
18971919327250,-1.942894697189331,-9.390059471130371,-1.9823989868164062,-0.0319417305290699,0.0066545275039970875,0.0292799212038517
18971920564575,-1.96683669090271,-9.362525939941406,-1.968033790588379,-0.02981228195130825,0.010647243820130825,0.0300784632563591
18971921801937,-1.9488801956176758,-9.334992408752441,-1.9967641830444336,-0.03087700717151165,0.0066545275039970875,0.0295461006462574
18971923039262,-1.9333178997039795,-9.301473617553711,-2.007538080215454,-0.0244886614382267,0.0026618109550327063,0.0322079136967659
18971924276612,-1.8974049091339111,-9.354146003723145,-2.0003554821014404,-0.0271504707634449,0.0026618109550327063,0.02741665206849575
18971925513975,-1.9321208000183105,-9.351752281188965,-1.9847931861877441,-0.0258195661008358,0.0071868896484375,0.0271504707634449
18971926751325,-1.9405004978179932,-9.337387084960938,-1.965639591217041,-0.0258195661008358,0.008783976547420025,0.02901373989880085
18971927988662,-1.8938136100769043,-9.361329078674316,-1.965639591217041,-0.0271504707634449,0.005855984054505825,0.02608574740588665
18971929226012,-1.9105730056762695,-9.363722801208496,-1.9740192890167236,-0.0234239362180233,0.00452507846057415,0.02315775491297245
18971930463362,-1.9297266006469727,-9.369708061218262,-1.987187385559082,-0.023956298828125,0.005057440605014563,0.0292799212038517
18971931700700,-1.9752163887023926,-9.348160743713379,-1.9931728839874268,-0.0223592109978199,0.0077192517928779125,0.02661811001598835
18971932938037,-1.9285295009613037,-9.376891136169434,-1.9752163887023926,-0.01996358297765255,0.00692070834338665,0.0311431884765625
18971934175387,-1.922544002532959,-9.384073257446289,-1.9919757843017578,-0.01943122036755085,0.005855984054505825,0.0204959437251091
18971935412737,-1.9596540927886963,-9.348160743713379,-1.9991583824157715,-0.02129448764026165,0.006122165359556675,0.0215606689453125
18971936650050,-1.8974049091339111,-9.344569206237793,-2.03507137298584,-0.02422248013317585,0.005589802749454975,0.0258195661008358
18971937887412,-1.900996208190918,-9.309853553771973,-2.0219032764434814,-0.02608574740588665,0.005057440605014563,0.0191650390625
18971939124762,-1.92134690284729,-9.29069995880127,-1.9620482921600342,-0.02661811001598835,0.00958251953125,0.01836649514734745
18971940362112,-1.9117701053619385,-9.314641952514648,-1.9955670833587646,-0.0210283063352108,0.0007985432748682797,0.02422248013317585
18971941599437,-1.8926165103912354,-9.301473617553711,-1.9788076877593994,-0.0191650390625,0.0029279920272529125,0.0220930315554142
18971942836800,-1.9620482921600342,-9.29069995880127,-1.9788076877593994,-0.02555338479578495,0.0021294488105922937,0.0204959437251091
18971944074137,-1.9261353015899658,-9.303868293762207,-1.968033790588379,-0.02022976242005825,0.006122165359556675,0.0234239362180233
18971945311462,-1.8878281116485596,-9.287108421325684,-1.9955670833587646,-0.0186326764523983,0.006122165359556675,0.0223592109978199
18971946548837,-1.8914194107055664,-9.271546363830566,-2.0219032764434814,-0.0204959437251091,0.0026618109550327063,0.0268842913210392
18971947786175,-1.8962078094482422,-9.261969566345215,-1.9788076877593994,-0.0186326764523983,0.0021294488105922937,0.0244886614382267
18971949023512,-1.8818424940109253,-9.242815971374512,-1.9764134883880615,-0.01410759799182415,0.0031941730994731188,0.02076212503015995
18971950260850,-1.902193307876587,-9.241618156433105,-2.006340980529785,-0.0167694091796875,0.0039927163161337376,0.01996358297765255
18971951498200,-1.9165585041046143,-9.249998092651367,-2.0195090770721436,-0.01836649514734745,0.0015970865497365594,0.02076212503015995
18971952735550,-1.8878281116485596,-9.23563289642334,-2.009932279586792,-0.01463996060192585,0.0037265352439135313,0.02794901467859745
18971953972887,-1.8818424940109253,-9.272743225097656,-2.006340980529785,-0.008783976547420025,0.0015970865497365594,0.0215606689453125
18971955210237,-1.8794482946395874,-9.29069995880127,-1.9788076877593994,-0.010647243820130825,0.0002661811013240367,0.0191650390625
18971956447562,-1.8878281116485596,-9.28950309753418,-1.9919757843017578,-0.012776692397892475,0.005057440605014563,0.02502102218568325
18971957684912,-1.9177556037902832,-9.306262016296387,-1.941697597503662,-0.0114457868039608,0.0023956298828125,0.0210283063352108
18971958922262,-1.9141643047332764,-9.32421875,-1.9632453918457031,-0.008783976547420025,-0.004791259765625,0.0263519287109375
18971960159625,-1.8626888990402222,-9.32541561126709,-2.0266916751861572,-0.0071868896484375,-0.0018632676219567657,0.02369011752307415
18971961396962,-1.9165585041046143,-9.36013126373291,-2.0027496814727783,-0.00984870083630085,-0.0010647244052961469,0.02262539230287075
18971962634300,-1.9105730056762695,-9.406818389892578,-1.9991583824157715,-0.0037265352439135313,-0.0010647244052961469,0.0220930315554142
18971963871637,-1.9345149993896484,-9.366117477416992,-1.9704279899597168,-0.00958251953125,-0.0015970865497365594,0.023956298828125
18971965108975,-1.9285295009613037,-9.338583946228027,-2.007538080215454,-0.01117960549890995,0.0007985432748682797,0.0210283063352108
18971966346325,-1.9273324012756348,-9.379284858703613,-1.9752163887023926,-0.008783976547420025,-0.0023956298828125,0.01703559048473835
18971967583662,-1.9321208000183105,-9.346963882446289,-1.9716250896453857,-0.0063883461989462376,-0.0039927163161337376,0.02129448764026165
18971968821012,-1.8962078094482422,-9.367314338684082,-1.9381062984466553,-0.0039927163161337376,0.0002661811013240367,0.02129448764026165
18971970058362,-1.8926165103912354,-9.329007148742676,-1.98958158493042,-0.00452507846057415,-0.0007985432748682797,0.02129448764026165
18971971295725,-1.8878281116485596,-9.367314338684082,-1.9596540927886963,-0.01410759799182415,-0.0007985432748682797,0.02076212503015995
18971972533037,-1.9189527034759521,-9.345766067504883,-1.9189527034759521,-0.00931633822619915,-0.0053236219100654125,0.02022976242005825
18971973770400,-1.9321208000183105,-9.283516883850098,-1.9357120990753174,-0.005057440605014563,-0.0031941730994731188,0.0215606689453125
18971975007737,-1.9177556037902832,-9.251195907592773,-1.9823989868164062,-0.005057440605014563,-0.0026618109550327063,0.0191650390625
18971976245087,-1.9357120990753174,-9.284714698791504,-1.9764134883880615,-0.006122165359556675,0.0013309054775163531,0.0210283063352108
18971977482437,-1.9297266006469727,-9.26675796508789,-1.9847931861877441,-0.0023956298828125,-0.0023956298828125,0.02369011752307415
18971978719775,-1.923741102218628,-9.285911560058594,-2.0003554821014404,-0.0031941730994731188,-0.008517795242369175,0.0186326764523983
18971979957112,-1.9608511924743652,-9.26915168762207,-1.9967641830444336,-0.0002661811013240367,-0.0002661811013240367,0.02129448764026165
18971981194462,-1.9321208000183105,-9.29069995880127,-1.9835960865020752,0.0002661811013240367,0.0031941730994731188,0.0244886614382267
18971982431812,-1.9261353015899658,-9.288305282592773,-1.9919757843017578,-0.0005323622026480734,0.0029279920272529125,0.0228915736079216
18971983669150,-1.9309237003326416,-9.321824073791504,-1.9632453918457031,-0.0005323622026480734,0.0031941730994731188,0.0173017717897892
18971984906487,-1.9608511924743652,-9.331400871276855,-1.942894697189331,-0.0023956298828125,-0.0013309054775163531,0.0234239362180233
18971986143837,-1.9788076877593994,-9.299079895019531,-2.0266916751861572,-0.0037265352439135313,-0.00452507846057415,0.0204959437251091
18971987381187,-1.9273324012756348,-9.349357604980469,-1.9907786846160889,-0.0007985432748682797,-0.005589802749454975,0.02182685025036335
18971988618537,-1.964442491531372,-9.278728485107422,-2.0027496814727783,0.0002661811013240367,-0.005589802749454975,0.023956298828125
18971989855875,-1.9584569931030273,-9.308656692504883,-2.0147206783294678,0.0005323622026480734,-0.00452507846057415,0.02369011752307415
18971991093225,-1.9728221893310547,-9.336189270019531,-1.9991583824157715,0.0013309054775163531,-0.0053236219100654125,0.02129448764026165
18971992330575,-1.9919757843017578,-9.331400871276855,-2.01232647895813,-0.0013309054775163531,-0.0021294488105922937,0.02182685025036335
18971993567912,-1.9620482921600342,-9.351752281188965,-2.032677173614502,-0.0031941730994731188,-0.0021294488105922937,0.0247548408806324
18971994805250,-1.9057846069335938,-9.370905876159668,-2.005143880844116,-0.0007985432748682797,0.0005323622026480734,0.01943122036755085
18971996042600,-1.942894697189331,-9.370905876159668,-2.011129379272461,0.0015970865497365594,-0.0007985432748682797,0.0157046839594841
18971997279950,-1.9572598934173584,-9.361329078674316,-1.9716250896453857,-0.0015970865497365594,-0.0039927163161337376,0.01756795309484005
18971998517300,-1.9512743949890137,-9.361329078674316,-2.0219032764434814,-0.0021294488105922937,-0.00452507846057415,0.01943122036755085
18971999754637,-1.9812018871307373,-9.369708061218262,-2.032677173614502,-0.0042588976211845875,-0.0026618109550327063,0.0196974016726017
18972000991987,-1.9476830959320068,-9.366117477416992,-1.9776105880737305,-0.0039927163161337376,-0.0037265352439135313,0.0181003138422966
18972002229337,-1.9943699836730957,-9.374496459960938,-1.9692308902740479,0.0015970865497365594,-0.003460354171693325,0.02022976242005825
18972003466662,-2.01232647895813,-9.424775123596191,-2.011129379272461,-0.0018632676219567657,-0.0010647244052961469,0.0234239362180233
18972004704012,-1.9704279899597168,-9.38167953491211,-2.0027496814727783,-0.0029279920272529125,0.0002661811013240367,0.0223592109978199
18972005941362,-1.9608511924743652,-9.402029991149902,-1.9979612827301025,-0.0002661811013240367,-0.0029279920272529125,0.0220930315554142
18972007178700,-1.9536685943603516,-9.376891136169434,-2.006340980529785,-0.0029279920272529125,-0.0005323622026480734,0.02129448764026165
18972008416025,-1.9728221893310547,-9.424775123596191,-2.005143880844116,-0.0026618109550327063,0.0,0.0228915736079216
18972009653387,-1.9249382019042969,-9.409213066101074,-2.005143880844116,0.0002661811013240367,0.0021294488105922937,0.02262539230287075
18972010890737,-1.9524714946746826,-9.41400146484375,-2.005143880844116,-0.0029279920272529125,0.0,0.0247548408806324
18972012128075,-1.9405004978179932,-9.402029991149902,-1.9955670833587646,-0.0053236219100654125,-0.0037265352439135313,0.0215606689453125
18972013365425,-1.9620482921600342,-9.431957244873047,-1.988384485244751,-0.00692070834338665,-0.0023956298828125,0.02022976242005825
18972014602762,-1.9716250896453857,-9.446322441101074,-2.0374655723571777,-0.0053236219100654125,-0.0018632676219567657,0.0215606689453125
18972015840100,-1.9536685943603516,-9.409213066101074,-2.005143880844116,-0.0063883461989462376,-0.0018632676219567657,0.0268842913210392
18972017077487,-1.9536685943603516,-9.47265911102295,-2.005143880844116,-0.005589802749454975,-0.0015970865497365594,0.02555338479578495
18972018314800,-1.9716250896453857,-9.452308654785156,-1.988384485244751,-0.0042588976211845875,0.0013309054775163531,0.02262539230287075
18972019552137,-1.96683669090271,-9.473855972290039,-1.9716250896453857,-0.0063883461989462376,0.0010647244052961469,0.0244886614382267
18972020789487,-1.9476830959320068,-9.467870712280273,-2.007538080215454,-0.010381062515079975,0.0,0.01756795309484005
18972022026825,-1.922544002532959,-9.394847869873047,-1.9847931861877441,-0.008517795242369175,-0.0015970865497365594,0.02315775491297245
18972023264187,-1.9596540927886963,-9.45111083984375,-1.9788076877593994,-0.010114881210029125,-0.0007985432748682797,0.0263519287109375
18972024501512,-1.9381062984466553,-9.461885452270508,-2.009932279586792,-0.01650322787463665,-0.0018632676219567657,0.0244886614382267
18972025738875,-1.9608511924743652,-9.479841232299805,-1.9943699836730957,-0.0138414166867733,-0.0039927163161337376,0.0311431884765625
18972026976200,-1.922544002532959,-9.478644371032715,-1.9931728839874268,-0.013042873702943325,-0.006122165359556675,0.03087700717151165
18972028213575,-1.9800047874450684,-9.465476036071777,-2.0147206783294678,-0.015438503585755825,-0.0021294488105922937,0.0252872034907341
18972029450912,-1.9776105880737305,-9.398438453674316,-2.005143880844116,-0.01703559048473835,-0.005589802749454975,0.0252872034907341
18972030688237,-1.942894697189331,-9.41400146484375,-2.0003554821014404,-0.014373779296875,-0.003460354171693325,0.0282151959836483
18972031925600,-1.9716250896453857,-9.406818389892578,-2.0266916751861572,-0.015438503585755825,-0.0029279920272529125,0.0343373604118824
18972033162937,-1.968033790588379,-9.391256332397461,-2.0195090770721436,-0.02076212503015995,-0.0015970865497365594,0.02848137728869915
18972034400275,-1.9177556037902832,-9.400833129882812,-2.0446481704711914,-0.01836649514734745,-0.0039927163161337376,0.0244886614382267
18972035637625,-1.9285295009613037,-9.368511199951172,-1.9823989868164062,-0.01783413253724575,-0.0018632676219567657,0.0295461006462574
18972036874962,-1.8914194107055664,-9.375694274902344,-2.0254945755004883,-0.02022976242005825,-0.0021294488105922937,0.0322079136967659
18972038112300,-1.9405004978179932,-9.369708061218262,-2.030282974243164,-0.015172322280704975,-0.0029279920272529125,0.0311431884765625
18972039349650,-1.9261353015899658,-9.35773754119873,-2.011129379272461,-0.015172322280704975,-0.00452507846057415,0.02981228195130825
18972040587000,-1.8902223110198975,-9.334992408752441,-2.0195090770721436,-0.0138414166867733,-0.0039927163161337376,0.03034464456140995
18972041824350,-1.9596540927886963,-9.348160743713379,-1.9764134883880615,-0.01703559048473835,-0.003460354171693325,0.0295461006462574
18972043061687,-1.9141643047332764,-9.331400871276855,-2.013523578643799,-0.0181003138422966,-0.0063883461989462376,0.02874755859375
18972044299037,-1.9177556037902832,-9.352949142456055,-2.0195090770721436,-0.0173017717897892,-0.003460354171693325,0.02741665206849575
18972045536362,-1.942894697189331,-9.338583946228027,-1.988384485244751,-0.01703559048473835,-0.0021294488105922937,0.038330078125
18972046773725,-1.9369091987609863,-9.308656692504883,-2.0015525817871094,-0.01597086526453495,-0.004791259765625,0.0343373604118824
18972048011062,-1.9584569931030273,-9.344569206237793,-1.9967641830444336,-0.0173017717897892,-0.01171196810901165,0.0319417305290699
18972049248412,-1.9321208000183105,-9.330204010009766,-2.032677173614502,-0.0173017717897892,-0.0090501569211483,0.0362006276845932
18972050485762,-1.9608511924743652,-9.283516883850098,-2.0254945755004883,-0.01171196810901165,-0.00984870083630085,0.0377977155148983
18972051723087,-1.9297266006469727,-9.32421875,-2.0458452701568604,-0.01597086526453495,-0.005855984054505825,0.0319417305290699
18972052960462,-1.9500772953033447,-9.294291496276855,-1.9740192890167236,-0.01996358297765255,-0.00984870083630085,0.0311431884765625
18972054197775,-1.9776105880737305,-9.29189682006836,-1.9907786846160889,-0.0167694091796875,-0.006122165359556675,0.02874755859375
18972055435137,-1.922544002532959,-9.264363288879395,-1.9931728839874268,-0.0138414166867733,-0.010381062515079975,0.0300784632563591
18972056672475,-1.9740192890167236,-9.297882080078125,-1.9919757843017578,-0.014906140975654125,-0.012510511092841625,0.033272635191679
18972057909825,-1.945288896560669,-9.294291496276855,-1.987187385559082,-0.01463996060192585,-0.005057440605014563,0.0354020856320858
18972059147162,-2.0003554821014404,-9.296685218811035,-1.9955670833587646,-0.0157046839594841,-0.008251613937318325,0.0367329902946949
18972060384500,-1.987187385559082,-9.295488357543945,-2.009932279586792,-0.013309055007994175,-0.0114457868039608,0.0404595248401165
18972061621862,-1.9812018871307373,-9.321824073791504,-2.009932279586792,-0.015172322280704975,-0.00931633822619915,0.0362006276845932
18972062859200,-1.9823989868164062,-9.264363288879395,-2.0183119773864746,-0.0138414166867733,-0.01171196810901165,0.0367329902946949
18972064096550,-1.988384485244751,-9.329007148742676,-2.0231003761291504,-0.00931633822619915,-0.01117960549890995,0.0330064557492733
18972065333900,-1.9321208000183105,-9.321824073791504,-1.98958158493042,-0.015172322280704975,-0.007453070487827063,0.0327402763068676
18972066571225,-1.9812018871307373,-9.327810287475586,-2.0147206783294678,-0.01943122036755085,-0.00452507846057415,0.03087700717151165
18972067808587,-1.9512743949890137,-9.338583946228027,-1.9967641830444336,-0.01357523538172245,-0.0039927163161337376,0.0295461006462574
18972069045937,-1.964442491531372,-9.350554466247559,-1.9943699836730957,-0.01783413253724575,-0.006122165359556675,0.02981228195130825
18972070283250,-1.9476830959320068,-9.344569206237793,-1.9979612827301025,-0.015438503585755825,-0.0071868896484375,0.0362006276845932
18972071520612,-2.0614075660705566,-9.35773754119873,-2.0039467811584473,-0.01597086526453495,-0.00931633822619915,0.0306108258664608
18972072757962,-2.0231003761291504,-9.368511199951172,-2.0266916751861572,-0.01836649514734745,-0.00692070834338665,0.03087700717151165
18972073995325,-1.9823989868164062,-9.344569206237793,-1.9931728839874268,-0.0173017717897892,-0.0077192517928779125,0.02741665206849575
18972075232662,-2.0398597717285156,-9.39245319366455,-1.98958158493042,-0.01597086526453495,-0.0063883461989462376,0.02981228195130825
18972076469987,-2.008735179901123,-9.361329078674316,-1.9776105880737305,-0.0210283063352108,-0.0026618109550327063,0.02555338479578495
18972077707337,-2.013523578643799,-9.339780807495117,-1.9560627937316895,-0.01756795309484005,-0.005057440605014563,0.0322079136967659
18972078944687,-2.01232647895813,-9.375694274902344,-1.9919757843017578,-0.0181003138422966,-0.0077192517928779125,0.0258195661008358
18972080182025,-2.007538080215454,-9.370905876159668,-2.033874273300171,-0.0210283063352108,-0.003460354171693325,0.0220930315554142
18972081419375,-1.9800047874450684,-9.373299598693848,-2.0171148777008057,-0.02022976242005825,-0.010913425125181675,0.0263519287109375
18972082656712,-2.013523578643799,-9.379284858703613,-2.0231003761291504,-0.01996358297765255,-0.0053236219100654125,0.02315775491297245
18972083894075,-2.011129379272461,-9.38167953491211,-2.0195090770721436,-0.02262539230287075,-0.004791259765625,0.01889885775744915
18972085131400,-1.9979612827301025,-9.419986724853516,-2.0374655723571777,-0.0210283063352108,-0.0053236219100654125,0.02555338479578495
18972086368750,-2.0266916751861572,-9.423578262329102,-2.013523578643799,-0.02182685025036335,-0.006122165359556675,0.0220930315554142
18972087606087,-2.0147206783294678,-9.446322441101074,-2.0254945755004883,-0.02794901467859745,-0.005855984054505825,0.0234239362180233
18972088843437,-1.9823989868164062,-9.41400146484375,-2.0159177780151367,-0.02422248013317585,-0.005589802749454975,0.0234239362180233
18972090080787,-2.007538080215454,-9.419986724853516,-2.0422539710998535,-0.0244886614382267,-0.0039927163161337376,0.02022976242005825
18972091318125,-2.0422539710998535,-9.411606788635254,-2.031480073928833,-0.02502102218568325,-0.0023956298828125,0.01836649514734745
18972092555462,-2.0434510707855225,-9.403226852416992,-2.005143880844116,-0.02794901467859745,-0.0029279920272529125,0.0210283063352108
18972093792825,-2.0027496814727783,-9.423578262329102,-1.9823989868164062,-0.0268842913210392,-0.0013309054775163531,0.02369011752307415
18972095030175,-1.988384485244751,-9.418789863586426,-1.968033790588379,-0.02741665206849575,-0.0010647244052961469,0.01943122036755085
18972096267500,-2.0195090770721436,-9.397241592407227,-1.9847931861877441,-0.0258195661008358,-0.003460354171693325,0.0186326764523983
18972097504850,-2.0039467811584473,-9.35654067993164,-2.0027496814727783,-0.02502102218568325,-0.0063883461989462376,0.02022976242005825
18972098742200,-2.0171148777008057,-9.352949142456055,-2.0039467811584473,-0.02981228195130825,-0.0037265352439135313,0.02182685025036335
18972099979550,-1.9692308902740479,-9.319430351257324,-2.0039467811584473,-0.02422248013317585,-0.0053236219100654125,0.010913425125181675
18972101216875,-1.9847931861877441,-9.317035675048828,-2.0207061767578125,-0.02262539230287075,-0.0053236219100654125,0.0173017717897892
18972102454225,-1.9728221893310547,-9.275137901306152,-1.9991583824157715,-0.02555338479578495,-0.003460354171693325,0.01703559048473835
18972103691575,-1.968033790588379,-9.252392768859863,-2.0183119773864746,-0.0228915736079216,-0.005057440605014563,0.010381062515079975
18972104928925,-1.964442491531372,-9.300276756286621,-1.964442491531372,-0.0300784632563591,-0.0053236219100654125,0.010381062515079975
18972106166237,-1.9955670833587646,-9.2655611038208,-2.007538080215454,-0.02262539230287075,-0.0021294488105922937,0.0204959437251091
18972107403612,-1.9812018871307373,-9.223662376403809,-2.007538080215454,-0.0220930315554142,-0.00984870083630085,0.01836649514734745
18972108640937,-1.964442491531372,-9.252392768859863,-2.029085874557495,-0.02555338479578495,-0.004791259765625,0.01410759799182415
18972109878287,-2.007538080215454,-9.260772705078125,-2.005143880844116,-0.02661811001598835,-0.0023956298828125,0.010381062515079975
18972111115625,-1.988384485244751,-9.278728485107422,-2.0195090770721436,-0.02262539230287075,-0.00452507846057415,0.010114881210029125
18972112352962,-2.0159177780151367,-9.294291496276855,-2.029085874557495,-0.0196974016726017,-0.0077192517928779125,0.01597086526453495
18972113590325,-1.9955670833587646,-9.288305282592773,-2.0649988651275635,-0.01597086526453495,-0.0018632676219567657,0.01783413253724575
18972114827662,-2.030282974243164,-9.346963882446289,-2.0709846019744873,-0.0157046839594841,-0.0063883461989462376,0.01597086526453495
18972116065000,-2.009932279586792,-9.35654067993164,-2.1068975925445557,-0.015172322280704975,-0.005057440605014563,0.0196974016726017
18972117302350,-2.0195090770721436,-9.366117477416992,-2.0649988651275635,-0.01463996060192585,-0.0042588976211845875,0.014906140975654125
18972118539700,-1.9955670833587646,-9.351752281188965,-2.032677173614502,-0.01224433071911335,-0.00452507846057415,0.01650322787463665
18972119777062,-2.01232647895813,-9.330204010009766,-2.036268472671509,-0.010647243820130825,0.0007985432748682797,0.015172322280704975
18972121014412,-2.0171148777008057,-9.354146003723145,-2.0709846019744873,-0.013042873702943325,-0.0031941730994731188,0.01756795309484005
18972122251750,-2.0410568714141846,-9.433155059814453,-2.0374655723571777,-0.0138414166867733,-0.0077192517928779125,0.01889885775744915
18972123489087,-1.9800047874450684,-9.378087997436523,-2.0626046657562256,-0.01224433071911335,-0.0138414166867733,0.0210283063352108
18972124726437,-2.0266916751861572,-9.406818389892578,-1.9991583824157715,-0.01117960549890995,-0.0162370465695858,0.01650322787463665
18972125963775,-2.049436569213867,-9.403226852416992,-2.0266916751861572,-0.013042873702943325,-0.010114881210029125,0.0210283063352108
18972127201137,-2.049436569213867,-9.41759204864502,-2.0266916751861572,-0.01224433071911335,-0.005855984054505825,0.01943122036755085
18972128438462,-2.07936429977417,-9.399636268615723,-2.031480073928833,-0.01171196810901165,-0.010381062515079975,0.0223592109978199
18972129675825,-2.03507137298584,-9.386467933654785,-2.0614075660705566,-0.00984870083630085,-0.01224433071911335,0.0204959437251091
18972130913162,-1.985990285873413,-9.400833129882812,-2.027888774871826,-0.012510511092841625,-0.0053236219100654125,0.01996358297765255
18972132150500,-2.0470423698425293,-9.411606788635254,-2.0242974758148193,-0.01410759799182415,-0.0029279920272529125,0.013309055007994175
18972133387850,-2.033874273300171,-9.332598686218262,-2.0470423698425293,-0.012510511092841625,-0.005057440605014563,0.010913425125181675
18972134625200,-2.0039467811584473,-9.355342864990234,-2.032677173614502,-0.008517795242369175,-0.010114881210029125,0.01463996060192585
18972135862537,-2.0003554821014404,-9.36013126373291,-2.0254945755004883,-0.007453070487827063,-0.0090501569211483,0.02022976242005825
18972137099875,-2.0386626720428467,-9.348160743713379,-2.0434510707855225,-0.015172322280704975,-0.0023956298828125,0.01357523538172245
18972138337212,-2.0159177780151367,-9.391256332397461,-2.0614075660705566,-0.014373779296875,-0.0029279920272529125,0.01463996060192585
18972139574562,-2.031480073928833,-9.35773754119873,-2.0422539710998535,-0.01410759799182415,-0.0026618109550327063,0.0181003138422966
18972140811912,-2.055422067642212,-9.345766067504883,-2.0638017654418945,-0.0162370465695858,0.0013309054775163531,0.013309055007994175
18972142049250,-1.9967641830444336,-9.379284858703613,-2.051830768585205,-0.013042873702943325,-0.0018632676219567657,0.013309055007994175
18972143286600,-1.9835960865020752,-9.372102737426758,-2.0231003761291504,-0.015438503585755825,-0.0039927163161337376,0.0066545275039970875
18972144523950,-2.036268472671509,-9.38048267364502,-2.0458452701568604,-0.015172322280704975,0.0021294488105922937,0.008251613937318325
18972145761287,-1.9800047874450684,-9.396044731140137,-2.0829555988311768,-0.01410759799182415,-0.0026618109550327063,0.008251613937318325
18972146998612,-2.055422067642212,-9.390059471130371,-2.097320795059204,-0.01463996060192585,-0.0021294488105922937,0.0066545275039970875
18972148235975,-2.0458452701568604,-9.370905876159668,-2.118868589401245,-0.0167694091796875,-0.0002661811013240367,0.0037265352439135313
18972149473312,-2.006340980529785,-9.374496459960938,-2.10210919380188,-0.01650322787463665,-0.0026618109550327063,0.004791259765625
18972150710662,-2.051830768585205,-9.345766067504883,-2.120065689086914,-0.01650322787463665,-0.0010647244052961469,0.005057440605014563
18972151948000,-1.9931728839874268,-9.38048267364502,-2.0721817016601562,-0.0167694091796875,-0.0005323622026480734,0.0013309054775163531
18972153185350,-2.0195090770721436,-9.402029991149902,-2.1152772903442383,-0.0186326764523983,-0.0029279920272529125,-0.005589802749454975
18972154422687,-2.053027868270874,-9.370905876159668,-2.10210919380188,-0.0157046839594841,0.0023956298828125,-0.0023956298828125
18972155660050,-2.036268472671509,-9.370905876159668,-2.1080946922302246,-0.0186326764523983,0.005589802749454975,-0.0013309054775163531
18972156897387,-2.030282974243164,-9.362525939941406,-2.0937294960021973,-0.0173017717897892,0.0018632676219567657,-0.0031941730994731188
18972158134725,-2.0171148777008057,-9.351752281188965,-2.080561399459839,-0.0191650390625,0.0026618109550327063,-0.005855984054505825
18972159372075,-2.0434510707855225,-9.361329078674316,-2.100912094116211,-0.015438503585755825,0.0013309054775163531,-0.0015970865497365594
18972160609425,-2.0386626720428467,-9.333795547485352,-2.0649988651275635,-0.01597086526453495,0.007985432632267475,-0.0010647244052961469
18972161846775,-2.032677173614502,-9.342175483703613,-2.0937294960021973,-0.0186326764523983,0.005057440605014563,-0.00452507846057415
18972163084100,-2.03507137298584,-9.337387084960938,-2.1045033931732178,-0.0196974016726017,0.0023956298828125,-0.0023956298828125
18972164321462,-2.029085874557495,-9.346963882446289,-2.1104888916015625,-0.01836649514734745,0.0042588976211845875,-0.0071868896484375
18972165558800,-1.9847931861877441,-9.314641952514648,-2.0697875022888184,-0.01756795309484005,0.0037265352439135313,-0.004791259765625
18972166796150,-1.9979612827301025,-9.32302188873291,-2.074575901031494,-0.01943122036755085,0.0066545275039970875,-0.005589802749454975
18972168033487,-1.9572598934173584,-9.285911560058594,-2.097320795059204,-0.0196974016726017,0.00452507846057415,-0.004791259765625
18972169270825,-1.9632453918457031,-9.281123161315918,-2.121262788772583,-0.01597086526453495,0.0063883461989462376,-0.004791259765625
18972170508187,-1.92134690284729,-9.272743225097656,-2.1152772903442383,-0.010647243820130825,0.0007985432748682797,-0.0071868896484375
18972171745525,-1.9321208000183105,-9.270349502563477,-2.0673930644989014,-0.01171196810901165,0.00452507846057415,-0.0053236219100654125
18972172982850,-1.9285295009613037,-9.251195907592773,-2.0661959648132324,-0.0114457868039608,0.007985432632267475,-0.0031941730994731188
18972174220225,-1.9333178997039795,-9.261969566345215,-2.056619167327881,-0.012776692397892475,0.012776692397892475,-0.005589802749454975
18972175457562,-1.942894697189331,-9.253589630126953,-2.0147206783294678,-0.006122165359556675,0.008251613937318325,-0.003460354171693325
18972176694900,-1.9608511924743652,-9.229647636413574,-2.008735179901123,-0.004791259765625,0.0042588976211845875,-0.0063883461989462376
18972177932250,-1.9357120990753174,-9.252392768859863,-2.05781626701355,-0.0037265352439135313,0.0037265352439135313,-0.0063883461989462376
18972179169600,-1.9165585041046143,-9.258378028869629,-2.0614075660705566,0.0039927163161337376,0.003460354171693325,-0.004791259765625
18972180406950,-1.945288896560669,-9.28950309753418,-2.0673930644989014,-0.0042588976211845875,0.00958251953125,-0.006122165359556675
18972181644300,-1.9524714946746826,-9.282320022583008,-2.03507137298584,-0.0031941730994731188,0.0031941730994731188,-0.0013309054775163531
18972182881625,-1.9189527034759521,-9.288305282592773,-2.055422067642212,0.0037265352439135313,-0.0007985432748682797,-0.0015970865497365594
18972184118975,-1.9692308902740479,-9.294291496276855,-2.0649988651275635,-0.0002661811013240367,0.005057440605014563,-0.005589802749454975
18972185356312,-1.9967641830444336,-9.32421875,-2.056619167327881,-0.0037265352439135313,0.005057440605014563,-0.0026618109550327063
18972186593650,-2.0027496814727783,-9.321824073791504,-2.120065689086914,0.0010647244052961469,0.0071868896484375,0.0007985432748682797
18972187830987,-1.9812018871307373,-9.349357604980469,-2.080561399459839,0.0042588976211845875,0.0031941730994731188,0.0002661811013240367
18972189068350,-1.9812018871307373,-9.315838813781738,-2.0697875022888184,0.00931633822619915,0.0037265352439135313,-0.0005323622026480734
18972190305700,-1.9907786846160889,-9.32421875,-2.080561399459839,0.00692070834338665,0.00931633822619915,0.0002661811013240367
18972191543037,-1.9907786846160889,-9.297882080078125,-2.0721817016601562,0.00692070834338665,0.010381062515079975,0.008783976547420025
18972192780375,-1.9692308902740479,-9.315838813781738,-2.075773000717163,0.00958251953125,0.0053236219100654125,-0.0013309054775163531
18972194017737,-1.9752163887023926,-9.29069995880127,-2.0470423698425293,0.01357523538172245,0.005057440605014563,-0.0013309054775163531
18972195255087,-1.965639591217041,-9.261969566345215,-2.0195090770721436,0.013309055007994175,0.008783976547420025,0.0026618109550327063
18972196492437,-1.9632453918457031,-9.254786491394043,-2.0673930644989014,0.01597086526453495,0.010647243820130825,0.008517795242369175
18972197729787,-1.9512743949890137,-9.257181167602539,-2.055422067642212,0.0173017717897892,0.00931633822619915,0.0063883461989462376
18972198967125,-1.9488801956176758,-9.220070838928223,-2.0410568714141846,0.015438503585755825,0.0077192517928779125,0.00452507846057415
18972200204450,-1.965639591217041,-9.222464561462402,-2.032677173614502,0.01836649514734745,0.005589802749454975,0.00958251953125
18972201441800,-1.9153614044189453,-9.23443603515625,-2.032677173614502,0.02422248013317585,0.008517795242369175,0.012510511092841625
18972202679150,-1.9297266006469727,-9.218873977661133,-2.027888774871826,0.0196974016726017,0.0090501569211483,0.00931633822619915
18972203916487,-1.9405004978179932,-9.209297180175781,-2.032677173614502,0.02502102218568325,0.007453070487827063,0.012510511092841625
18972205153825,-1.9333178997039795,-9.224859237670898,-1.9788076877593994,0.0271504707634449,0.0066545275039970875,0.013309055007994175
18972206391175,-1.9177556037902832,-9.191340446472168,-1.9931728839874268,0.02741665206849575,0.0119781494140625,0.01224433071911335
18972207628512,-1.9381062984466553,-9.238027572631836,-2.0039467811584473,0.02794901467859745,0.008251613937318325,0.0119781494140625
18972208865875,-1.9249382019042969,-9.190143585205078,-2.0003554821014404,0.03087700717151165,0.005589802749454975,0.01783413253724575
18972210103212,-1.9560627937316895,-9.172186851501465,-2.0231003761291504,0.0338049978017807,0.006122165359556675,0.014906140975654125
18972211340550,-1.9476830959320068,-9.209297180175781,-1.9991583824157715,0.0348697230219841,0.0063883461989462376,0.015172322280704975
18972212577900,-1.9033904075622559,-9.244012832641602,-2.0147206783294678,0.033272635191679,0.008517795242369175,0.01783413253724575
18972213815250,-1.92134690284729,-9.216479301452637,-2.030282974243164,0.0330064557492733,0.005855984054505825,0.0114457868039608
18972215052587,-1.9512743949890137,-9.238027572631836,-2.0889410972595215,0.0369991734623909,0.0053236219100654125,0.012510511092841625
18972216289950,-1.9476830959320068,-9.226056098937988,-2.049436569213867,0.0351359061896801,0.0037265352439135313,0.015172322280704975
18972217527300,-1.9752163887023926,-9.261969566345215,-2.013523578643799,0.0375315360724926,0.0071868896484375,0.0186326764523983
18972218764637,-1.9357120990753174,-9.246407508850098,-2.05781626701355,0.0391286201775074,0.0090501569211483,0.01996358297765255
18972220002000,-1.9692308902740479,-9.254786491394043,-2.032677173614502,0.0399271659553051,0.010913425125181675,0.01597086526453495
18972221239337,-1.9907786846160889,-9.257181167602539,-2.013523578643799,0.0391286201775074,0.01171196810901165,0.0167694091796875
18972222476662,-1.9716250896453857,-9.279926300048828,-2.0590133666992188,0.0396609827876091,0.0119781494140625,0.0210283063352108
18972223714012,-1.9716250896453857,-9.26915168762207,-1.9907786846160889,0.0420566126704216,0.008517795242369175,0.0295461006462574
18972224951362,-1.9764134883880615,-9.275137901306152,-1.9907786846160889,0.0449846051633358,0.0090501569211483,0.0228915736079216
18972226188712,-2.0195090770721436,-9.264363288879395,-2.056619167327881,0.0500420443713665,0.01171196810901165,0.02422248013317585
18972227426062,-1.9572598934173584,-9.303868293762207,-2.054224967956543,0.0452507846057415,0.0114457868039608,0.0244886614382267
18972228663400,-1.9823989868164062,-9.337387084960938,-2.0207061767578125,0.0444522425532341,0.01171196810901165,0.02608574740588665
18972229900737,-2.0003554821014404,-9.320627212524414,-2.080561399459839,0.04791259765625,0.008251613937318325,0.0247548408806324
18972231138087,-2.011129379272461,-9.283516883850098,-2.054224967956543,0.0463155098259449,0.01117960549890995,0.02555338479578495
18972232375437,-1.9620482921600342,-9.309853553771973,-2.036268472671509,0.0391286201775074,0.0138414166867733,0.02848137728869915
18972233612775,-1.985990285873413,-9.279926300048828,-2.027888774871826,0.0409918874502182,0.01463996060192585,0.0282151959836483
18972234850125,-2.0171148777008057,-9.327810287475586,-2.0195090770721436,0.0449846051633358,0.01463996060192585,0.02901373989880085
18972236087462,-1.9704279899597168,-9.26795482635498,-2.0015525817871094,0.0463155098259449,0.010381062515079975,0.0306108258664608
18972237324800,-1.985990285873413,-9.311050415039062,-1.9931728839874268,0.0457831472158432,0.007985432632267475,0.0324740931391716
18972238562137,-1.9776105880737305,-9.307458877563477,-1.9967641830444336,0.0463155098259449,0.00692070834338665,0.033272635191679
18972239799487,-1.9823989868164062,-9.281123161315918,-2.0195090770721436,0.0463155098259449,0.00984870083630085,0.033538818359375
18972241036837,-1.9548656940460205,-9.32421875,-2.011129379272461,0.0449846051633358,0.01756795309484005,0.0343373604118824
18972242274200,-1.9967641830444336,-9.333795547485352,-2.0027496814727783,0.0420566126704216,0.013042873702943325,0.02901373989880085
18972243511537,-2.011129379272461,-9.344569206237793,-2.009932279586792,0.0412580706179142,0.012510511092841625,0.02874755859375
18972244748875,-2.006340980529785,-9.340977668762207,-2.009932279586792,0.0447184219956398,0.01597086526453495,0.0322079136967659
18972245986225,-2.013523578643799,-9.388861656188965,-2.030282974243164,0.0412580706179142,0.0090501569211483,0.0375315360724926
18972247223575,-2.0231003761291504,-9.351752281188965,-1.9776105880737305,0.0393948033452034,0.008783976547420025,0.0367329902946949
18972248460912,-2.006340980529785,-9.349357604980469,-2.0470423698425293,0.0399271659553051,0.0138414166867733,0.0351359061896801
18972249698275,-2.0470423698425293,-9.402029991149902,-2.054224967956543,0.0375315360724926,0.0119781494140625,0.0338049978017807
18972250935612,-2.0434510707855225,-9.39365005493164,-2.0195090770721436,0.0364668108522892,0.014373779296875,0.033538818359375
18972252172962,-2.076970100402832,-9.405621528625488,-2.0195090770721436,0.0377977155148983,0.0204959437251091,0.0362006276845932
18972253410287,-2.0590133666992188,-9.362525939941406,-2.008735179901123,0.0385962575674057,0.01224433071911335,0.0311431884765625
18972254647625,-2.0398597717285156,-9.425971984863281,-2.0147206783294678,0.0362006276845932,0.010913425125181675,0.0348697230219841
18972255885000,-2.0638017654418945,-9.405621528625488,-1.988384485244751,0.0330064557492733,0.012776692397892475,0.0367329902946949
18972257122325,-2.051830768585205,-9.384073257446289,-2.031480073928833,0.0271504707634449,0.0162370465695858,0.0324740931391716
18972258359675,-2.032677173614502,-9.41400146484375,-1.96683669090271,0.0276828333735466,0.0167694091796875,0.02794901467859745
18972259597012,-2.0626046657562256,-9.434351921081543,-2.027888774871826,0.03087700717151165,0.01889885775744915,0.0362006276845932
18972260834400,-2.0697875022888184,-9.39245319366455,-2.0207061767578125,0.02981228195130825,0.01943122036755085,0.0377977155148983
18972262071712,-2.005143880844116,-9.402029991149902,-1.9740192890167236,0.0282151959836483,0.012776692397892475,0.0356682650744915
18972263309037,-2.0219032764434814,-9.45111083984375,-2.006340980529785,0.03034464456140995,0.01756795309484005,0.0362006276845932
18972264546400,-2.056619167327881,-9.39365005493164,-1.9847931861877441,0.0354020856320858,0.02129448764026165,0.038063894957304
18972265783750,-2.0709846019744873,-9.410409927368164,-2.009932279586792,0.0252872034907341,0.0210283063352108,0.033538818359375
18972267021087,-2.056619167327881,-9.408015251159668,-2.0207061767578125,0.02315775491297245,0.01889885775744915,0.0338049978017807
18972268258437,-2.0446481704711914,-9.355342864990234,-2.006340980529785,0.02262539230287075,0.01836649514734745,0.0359344482421875
18972269495775,-2.05781626701355,-9.388861656188965,-1.9632453918457031,0.02182685025036335,0.01836649514734745,0.0415242500603199
18972270733112,-2.0242974758148193,-9.398438453674316,-1.9764134883880615,0.02076212503015995,0.01996358297765255,0.0354020856320858
18972271970462,-2.0590133666992188,-9.408015251159668,-1.9692308902740479,0.01996358297765255,0.01783413253724575,0.0340711809694767
18972273207800,-2.076970100402832,-9.366117477416992,-1.9991583824157715,0.0228915736079216,0.02022976242005825,0.0311431884765625
18972274445162,-2.0410568714141846,-9.307458877563477,-2.01232647895813,0.01996358297765255,0.02369011752307415,0.0327402763068676
18972275682500,-2.0590133666992188,-9.361329078674316,-1.9704279899597168,0.015172322280704975,0.02182685025036335,0.0348697230219841
18972276919850,-2.031480073928833,-9.35654067993164,-2.0015525817871094,0.02182685025036335,0.0162370465695858,0.0319417305290699
18972278157200,-2.0434510707855225,-9.372102737426758,-1.968033790588379,0.01783413253724575,0.015172322280704975,0.033272635191679
18972279394550,-2.03507137298584,-9.363722801208496,-1.9620482921600342,0.01597086526453495,0.02129448764026165,0.02848137728869915
18972280631887,-1.9907786846160889,-9.372102737426758,-1.987187385559082,0.01357523538172245,0.0181003138422966,0.02608574740588665
18972281869237,-2.0231003761291504,-9.391256332397461,-1.9907786846160889,0.00958251953125,0.0181003138422966,0.0282151959836483
18972283106575,-2.032677173614502,-9.378087997436523,-2.033874273300171,0.01836649514734745,0.01836649514734745,0.0311431884765625
18972284343925,-2.008735179901123,-9.352949142456055,-1.9967641830444336,0.0167694091796875,0.01996358297765255,0.0306108258664608
18972285581262,-2.0159177780151367,-9.369708061218262,-1.96683669090271,0.01224433071911335,0.01703559048473835,0.0300784632563591
18972286818612,-2.0159177780151367,-9.35773754119873,-1.9740192890167236,0.0162370465695858,0.02262539230287075,0.0258195661008358
18972288055950,-2.0219032764434814,-9.36013126373291,-1.9728221893310547,0.0196974016726017,0.01943122036755085,0.02981228195130825
18972289293287,-1.9704279899597168,-9.363722801208496,-2.032677173614502,0.0173017717897892,0.02369011752307415,0.02661811001598835
18972290530637,-1.988384485244751,-9.368511199951172,-1.9823989868164062,0.0167694091796875,0.0196974016726017,0.0247548408806324
18972291767975,-2.0015525817871094,-9.32661247253418,-1.946485996246338,0.01756795309484005,0.014906140975654125,0.03087700717151165
18972293005350,-1.944091796875,-9.330204010009766,-1.987187385559082,0.00984870083630085,0.0173017717897892,0.0295461006462574
18972294242662,-1.9919757843017578,-9.303868293762207,-1.9321208000183105,0.0114457868039608,0.0114457868039608,0.0252872034907341
18972295480037,-1.988384485244751,-9.305065155029297,-1.9776105880737305,0.01783413253724575,0.015438503585755825,0.02981228195130825
18972296717362,-1.9943699836730957,-9.32421875,-1.9560627937316895,0.0173017717897892,0.010114881210029125,0.02901373989880085
18972297954700,-1.964442491531372,-9.26795482635498,-1.9812018871307373,0.01650322787463665,0.01224433071911335,0.0292799212038517
18972299192062,-1.964442491531372,-9.315838813781738,-1.98958158493042,0.01357523538172245,0.01463996060192585,0.02794901467859745
18972300429400,-1.9608511924743652,-9.339780807495117,-2.0003554821014404,0.0167694091796875,0.01171196810901165,0.0327402763068676
18972301666762,-1.941697597503662,-9.297882080078125,-1.9955670833587646,0.01889885775744915,0.010913425125181675,0.0322079136967659
18972302904100,-1.9560627937316895,-9.314641952514648,-1.9488801956176758,0.0173017717897892,0.0119781494140625,0.02874755859375
18972304141450,-1.9907786846160889,-9.342175483703613,-1.965639591217041,0.01463996060192585,0.00958251953125,0.0258195661008358
18972305378775,-1.9847931861877441,-9.374496459960938,-1.9405004978179932,0.0162370465695858,0.00931633822619915,0.0268842913210392
18972306616137,-2.0219032764434814,-9.373299598693848,-1.9369091987609863,0.0191650390625,0.007453070487827063,0.0311431884765625
18972307853487,-2.0015525817871094,-9.362525939941406,-1.9847931861877441,0.0157046839594841,0.00931633822619915,0.02874755859375
18972309090812,-1.9393033981323242,-9.329007148742676,-1.9584569931030273,0.0167694091796875,0.00931633822619915,0.02981228195130825
18972310328162,-1.9955670833587646,-9.32302188873291,-1.9500772953033447,0.01943122036755085,0.005855984054505825,0.02741665206849575
18972311565512,-2.011129379272461,-9.346963882446289,-1.9823989868164062,0.0210283063352108,0.0066545275039970875,0.02608574740588665
18972312802862,-1.9632453918457031,-9.346963882446289,-2.0159177780151367,0.02182685025036335,0.0063883461989462376,0.02741665206849575
18972314040200,-1.9716250896453857,-9.336189270019531,-1.9476830959320068,0.02315775491297245,0.008517795242369175,0.02848137728869915
18972315277537,-2.032677173614502,-9.301473617553711,-1.9381062984466553,0.02076212503015995,0.0077192517928779125,0.02369011752307415
18972316514875,-2.009932279586792,-9.344569206237793,-1.946485996246338,0.0157046839594841,0.0039927163161337376,0.0215606689453125
18972317752250,-2.0039467811584473,-9.301473617553711,-1.9740192890167236,0.01756795309484005,0.0053236219100654125,0.0244886614382267
18972318989587,-2.009932279586792,-9.312247276306152,-2.0039467811584473,0.0196974016726017,0.0013309054775163531,0.0300784632563591
18972320226925,-1.988384485244751,-9.303868293762207,-1.9321208000183105,0.0204959437251091,0.0066545275039970875,0.02741665206849575
18972321464262,-2.0242974758148193,-9.287108421325684,-1.9835960865020752,0.0223592109978199,0.0037265352439135313,0.0276828333735466
18972322701625,-1.9788076877593994,-9.294291496276855,-1.9524714946746826,0.01943122036755085,0.0026618109550327063,0.0223592109978199
18972323938975,-1.9847931861877441,-9.348160743713379,-1.9967641830444336,0.02369011752307415,0.0013309054775163531,0.0252872034907341
18972325176287,-2.005143880844116,-9.29069995880127,-1.9500772953033447,0.02502102218568325,0.003460354171693325,0.0244886614382267
18972326413662,-2.013523578643799,-9.309853553771973,-1.9847931861877441,0.02874755859375,0.006122165359556675,0.02182685025036335
18972327651012,-1.9752163887023926,-9.308656692504883,-1.9740192890167236,0.0268842913210392,0.004791259765625,0.0220930315554142
18972328888325,-2.0374655723571777,-9.339780807495117,-1.9500772953033447,0.0268842913210392,0.0013309054775163531,0.023956298828125
18972330125675,-1.9812018871307373,-9.350554466247559,-2.01232647895813,0.0300784632563591,-0.0023956298828125,0.0196974016726017
18972331363037,-1.9931728839874268,-9.368511199951172,-1.964442491531372,0.02555338479578495,-0.0013309054775163531,0.01889885775744915
18972332600387,-2.0207061767578125,-9.408015251159668,-1.9776105880737305,0.02315775491297245,0.0010647244052961469,0.0204959437251091
18972333837725,-2.0266916751861572,-9.366117477416992,-1.9512743949890137,0.02661811001598835,0.0031941730994731188,0.0191650390625
18972335075075,-2.030282974243164,-9.406818389892578,-1.965639591217041,0.02608574740588665,-0.0007985432748682797,0.02022976242005825
18972336312400,-2.036268472671509,-9.374496459960938,-1.9369091987609863,0.0300784632563591,-0.0039927163161337376,0.0186326764523983
18972337549750,-2.0374655723571777,-9.427168846130371,-1.9476830959320068,0.0319417305290699,-0.0023956298828125,0.01463996060192585
18972338787112,-2.050633668899536,-9.367314338684082,-1.92134690284729,0.0244886614382267,-0.007453070487827063,0.0167694091796875
18972340024437,-2.0685904026031494,-9.378087997436523,-1.9500772953033447,0.0228915736079216,-0.006122165359556675,0.0186326764523983
18972341261787,-2.078167200088501,-9.390059471130371,-1.945288896560669,0.02182685025036335,-0.0031941730994731188,0.02022976242005825
18972342499150,-2.078167200088501,-9.374496459960938,-1.9596540927886963,0.0247548408806324,-0.005057440605014563,0.0181003138422966
18972343736475,-2.0219032764434814,-9.367314338684082,-1.9620482921600342,0.02369011752307415,-0.0071868896484375,0.01171196810901165
18972344973825,-2.0254945755004883,-9.355342864990234,-1.9512743949890137,0.0234239362180233,-0.00452507846057415,0.0173017717897892
18972346211175,-2.0889410972595215,-9.352949142456055,-1.9357120990753174,0.02661811001598835,-0.00452507846057415,0.02182685025036335
18972347448525,-2.0901381969451904,-9.384073257446289,-1.945288896560669,0.0271504707634449,-0.0023956298828125,0.0173017717897892
18972348685875,-2.055422067642212,-9.364919662475586,-1.9249382019042969,0.0292799212038517,-0.0053236219100654125,0.01597086526453495
18972349923200,-2.0458452701568604,-9.350554466247559,-1.9476830959320068,0.0258195661008358,-0.0066545275039970875,0.01756795309484005
18972351160550,-2.0614075660705566,-9.329007148742676,-1.942894697189331,0.0252872034907341,-0.005057440605014563,0.01597086526453495
18972352397900,-2.05781626701355,-9.385271072387695,-1.9536685943603516,0.0292799212038517,-0.0015970865497365594,0.01650322787463665
18972353635250,-2.029085874557495,-9.402029991149902,-1.9189527034759521,0.0316755510866642,0.0023956298828125,0.01597086526453495
18972354872587,-2.0685904026031494,-9.428366661071777,-1.9955670833587646,0.02901373989880085,-0.0015970865497365594,0.01410759799182415
18972356109937,-2.078167200088501,-9.44871711730957,-1.9979612827301025,0.0292799212038517,-0.007985432632267475,0.00984870083630085
18972357347275,-2.1045033931732178,-9.44991397857666,-1.9764134883880615,0.0295461006462574,-0.00452507846057415,0.01117960549890995
18972358584612,-2.076970100402832,-9.410409927368164,-1.9704279899597168,0.0268842913210392,0.0042588976211845875,0.010647243820130825
18972359821975,-2.098517894744873,-9.429563522338867,-1.9823989868164062,0.02661811001598835,0.0021294488105922937,0.008517795242369175
18972361059300,-2.0661959648132324,-9.47265911102295,-1.9620482921600342,0.02661811001598835,-0.0037265352439135313,0.00984870083630085
18972362296675,-2.0410568714141846,-9.41519832611084,-1.9572598934173584,0.0276828333735466,-0.0023956298828125,0.010913425125181675
18972363534000,-2.080561399459839,-9.430760383605957,-1.9536685943603516,0.02741665206849575,-0.0026618109550327063,0.010381062515079975
18972364771362,-2.076970100402832,-9.435548782348633,-1.92134690284729,0.02262539230287075,-0.0021294488105922937,0.010913425125181675
18972366008712,-2.096123695373535,-9.41519832611084,-1.9572598934173584,0.0258195661008358,-0.0026618109550327063,0.005855984054505825
18972367246037,-2.103306293487549,-9.408015251159668,-1.9740192890167236,0.0295461006462574,-0.0002661811013240367,0.00452507846057415
18972368483387,-2.0877439975738525,-9.39365005493164,-1.9309237003326416,0.0252872034907341,0.0005323622026480734,-0.0010647244052961469
18972369720737,-2.050633668899536,-9.339780807495117,-1.9177556037902832,0.02129448764026165,-0.0002661811013240367,-0.003460354171693325
18972370958087,-2.098517894744873,-9.343372344970703,-1.96683669090271,0.02608574740588665,-0.0002661811013240367,-0.0013309054775163531
18972372195425,-2.0638017654418945,-9.333795547485352,-1.9117701053619385,0.02555338479578495,0.0002661811013240367,0.0015970865497365594
18972373432775,-2.098517894744873,-9.336189270019531,-1.9273324012756348,0.0258195661008358,0.0037265352439135313,0.0007985432748682797
18972374670112,-2.099714994430542,-9.366117477416992,-1.9069817066192627,0.02369011752307415,0.005589802749454975,-0.0018632676219567657
18972375907462,-2.1284453868865967,-9.287108421325684,-1.9285295009613037,0.0204959437251091,0.010381062515079975,-0.00452507846057415
18972377144812,-2.0614075660705566,-9.351752281188965,-1.9093759059906006,0.02129448764026165,0.0071868896484375,-0.006122165359556675
18972378382162,-2.0374655723571777,-9.296685218811035,-1.9596540927886963,0.0215606689453125,0.00984870083630085,-0.0042588976211845875
18972379619500,-2.03507137298584,-9.319430351257324,-1.9476830959320068,0.0247548408806324,0.0023956298828125,-0.0063883461989462376
18972380856837,-1.9979612827301025,-9.321824073791504,-1.9500772953033447,0.023956298828125,0.0018632676219567657,-0.007453070487827063
18972382094187,-2.011129379272461,-9.306262016296387,-1.9153614044189453,0.0258195661008358,0.0021294488105922937,-0.00692070834338665
18972383331512,-2.0374655723571777,-9.318233489990234,-1.9285295009613037,0.0244886614382267,-0.0018632676219567657,-0.007453070487827063
18972384568862,-2.05781626701355,-9.345766067504883,-1.9812018871307373,0.0268842913210392,0.003460354171693325,-0.008517795242369175
18972385806200,-2.033874273300171,-9.336189270019531,-1.944091796875,0.0252872034907341,0.005855984054505825,-0.007985432632267475
18972387043575,-2.009932279586792,-9.338583946228027,-1.9297266006469727,0.02901373989880085,0.0023956298828125,-0.006122165359556675
18972388280925,-2.051830768585205,-9.376891136169434,-1.9357120990753174,0.02661811001598835,0.0015970865497365594,-0.00958251953125
18972389518250,-2.0853497982025146,-9.339780807495117,-1.9333178997039795,0.0252872034907341,0.008517795242369175,-0.01650322787463665
18972390755600,-2.054224967956543,-9.35773754119873,-1.8938136100769043,0.02874755859375,-0.0002661811013240367,-0.005855984054505825
18972391992950,-2.0219032764434814,-9.332598686218262,-1.9381062984466553,0.02369011752307415,0.0018632676219567657,-0.0063883461989462376
18972393230300,-2.0398597717285156,-9.337387084960938,-1.9321208000183105,0.02794901467859745,0.0037265352439135313,-0.0029279920272529125
18972394467625,-2.056619167327881,-9.35654067993164,-1.92134690284729,0.02661811001598835,0.005057440605014563,-0.00931633822619915
18972395704975,-2.0434510707855225,-9.334992408752441,-1.9369091987609863,0.0258195661008358,0.0029279920272529125,-0.007985432632267475
18972396942325,-2.027888774871826,-9.32421875,-1.9381062984466553,0.02076212503015995,0.005057440605014563,-0.00452507846057415
18972398179675,-2.0673930644989014,-9.363722801208496,-1.92134690284729,0.0271504707634449,0.004791259765625,-0.00692070834338665
18972399417012,-2.0434510707855225,-9.36013126373291,-1.9273324012756348,0.03034464456140995,0.0042588976211845875,-0.006122165359556675
18972400654375,-2.0661959648132324,-9.376891136169434,-1.9476830959320068,0.0271504707634449,0.0031941730994731188,-0.0071868896484375
18972401891687,-2.0685904026031494,-9.387664794921875,-1.9333178997039795,0.02315775491297245,0.00452507846057415,-0.0042588976211845875
18972403129050,-2.0410568714141846,-9.38048267364502,-1.9369091987609863,0.02555338479578495,0.0090501569211483,-0.0029279920272529125
18972404366412,-2.013523578643799,-9.38048267364502,-1.9357120990753174,0.0316755510866642,0.005855984054505825,-0.0071868896484375
18972405603750,-2.030282974243164,-9.352949142456055,-1.9393033981323242,0.0258195661008358,0.0077192517928779125,-0.0026618109550327063
18972406841100,-2.0015525817871094,-9.375694274902344,-1.9764134883880615,0.02661811001598835,0.0077192517928779125,-0.0063883461989462376
18972408078425,-2.008735179901123,-9.369708061218262,-1.9476830959320068,0.0220930315554142,0.00931633822619915,-0.0162370465695858
18972409315787,-2.036268472671509,-9.338583946228027,-1.968033790588379,0.02182685025036335,0.0039927163161337376,-0.007985432632267475
18972410553125,-2.0219032764434814,-9.391256332397461,-1.92134690284729,0.02901373989880085,0.0023956298828125,-0.0063883461989462376
18972411790475,-1.9847931861877441,-9.367314338684082,-1.9596540927886963,0.0252872034907341,0.00984870083630085,-0.0063883461989462376
18972413027837,-2.01232647895813,-9.346963882446289,-1.9548656940460205,0.02422248013317585,0.0066545275039970875,-0.0018632676219567657
18972414265150,-2.0434510707855225,-9.32661247253418,-1.9345149993896484,0.01836649514734745,0.00692070834338665,0.0
18972415502512,-2.036268472671509,-9.372102737426758,-1.9788076877593994,0.02076212503015995,0.007985432632267475,-0.005589802749454975
18972416739850,-2.030282974243164,-9.368511199951172,-1.96683669090271,0.023956298828125,0.0063883461989462376,-0.0071868896484375
18972417977187,-1.9967641830444336,-9.320627212524414,-1.9596540927886963,0.01943122036755085,0.008783976547420025,-0.003460354171693325
18972419214550,-2.0183119773864746,-9.363722801208496,-1.9321208000183105,0.01943122036755085,0.0042588976211845875,-0.0066545275039970875
18972420451875,-2.0422539710998535,-9.318233489990234,-1.9297266006469727,0.0228915736079216,0.00984870083630085,-0.0031941730994731188
18972421689225,-2.0709846019744873,-9.307458877563477,-1.9835960865020752,0.0181003138422966,0.0063883461989462376,-0.0053236219100654125
18972422926575,-1.9979612827301025,-9.368511199951172,-1.9728221893310547,0.0204959437251091,0.007453070487827063,0.0018632676219567657
18972424163925,-2.0183119773864746,-9.352949142456055,-1.9847931861877441,0.0223592109978199,0.01597086526453495,0.0037265352439135313
18972425401262,-2.0673930644989014,-9.362525939941406,-1.9716250896453857,0.0186326764523983,0.015172322280704975,-0.0018632676219567657
18972426638625,-2.011129379272461,-9.387664794921875,-1.9369091987609863,0.0196974016726017,0.01171196810901165,-0.0053236219100654125
18972427875962,-2.053027868270874,-9.376891136169434,-1.9512743949890137,0.0181003138422966,0.010647243820130825,-0.005589802749454975
18972429113300,-2.0877439975738525,-9.3828763961792,-1.9608511924743652,0.01597086526453495,0.008517795242369175,-0.0026618109550327063
18972430350650,-2.0853497982025146,-9.394847869873047,-1.9776105880737305,0.01783413253724575,0.0114457868039608,0.0007985432748682797
18972431588000,-2.0446481704711914,-9.391256332397461,-1.9584569931030273,0.01650322787463665,0.015172322280704975,-0.0021294488105922937
18972432825350,-2.0865468978881836,-9.437943458557129,-1.9716250896453857,0.012776692397892475,0.01410759799182415,0.0026618109550327063
18972434062687,-2.051830768585205,-9.459490776062012,-1.9488801956176758,0.010913425125181675,0.015438503585755825,0.0007985432748682797
18972435300037,-2.080561399459839,-9.44752025604248,-1.9333178997039795,0.010913425125181675,0.01463996060192585,0.0018632676219567657
18972436537375,-2.0219032764434814,-9.427168846130371,-1.9728221893310547,0.010913425125181675,0.01836649514734745,0.0031941730994731188
