timestamp_ns,accel_x,accel_y,accel_z,gyro_x,gyro_y,gyro_z
18640322966212,0.888248860836029,-9.854534149169922,0.4644751250743866,0.0077192517928779125,0.005057440605014563,0.01171196810901165
18640324203287,0.9026140570640564,-9.861717224121094,0.46806642413139343,0.0066545275039970875,0.0015970865497365594,0.00958251953125
18640325440375,0.8643068075180054,-9.831789016723633,0.45010992884635925,0.00984870083630085,0.0010647244052961469,0.012776692397892475
18640326677425,0.8427590131759644,-9.853337287902832,0.48602294921875,0.0119781494140625,0.007985432632267475,0.008783976547420025
18640327914487,0.8954314589500427,-9.84495735168457,0.4644751250743866,0.00692070834338665,0.00692070834338665,0.00692070834338665
18640329151562,0.8906430602073669,-9.865307807922363,0.47884035110473633,0.0042588976211845875,0.008783976547420025,0.0042588976211845875
18640330388612,0.8655039072036743,-9.858125686645508,0.48722004890441895,0.007453070487827063,0.0053236219100654125,0.0090501569211483
18640331625700,0.8595184087753296,-9.84256362915039,0.48602294921875,0.01171196810901165,0.006122165359556675,0.010647243820130825
18640332862762,0.8643068075180054,-9.888052940368652,0.456095427274704,0.0071868896484375,0.00958251953125,0.0071868896484375
18640334099825,0.888248860836029,-9.813833236694336,0.42616790533065796,0.0071868896484375,0.010647243820130825,0.004791259765625
18640335336900,0.8930372595787048,-9.836577415466309,0.4644751250743866,0.0026618109550327063,0.00984870083630085,0.00931633822619915
18640336573975,0.8810662031173706,-9.873687744140625,0.40940847992897034,0.0,0.0037265352439135313,0.005855984054505825
18640337811037,0.8678981065750122,-9.86770248413086,0.5159504413604736,0.0013309054775163531,0.005589802749454975,0.0066545275039970875
18640339048112,0.8547300100326538,-9.813833236694336,0.42377370595932007,0.0053236219100654125,0.00692070834338665,0.00958251953125
18640340285187,0.8547300100326538,-9.81143856048584,0.44771572947502136,0.0005323622026480734,0.00452507846057415,0.00931633822619915
18640341522250,0.8355764150619507,-9.871294021606445,0.4944026470184326,0.003460354171693325,0.0031941730994731188,0.01117960549890995
18640342759312,0.8487445116043091,-9.874884605407715,0.4345476031303406,0.0026618109550327063,0.0005323622026480734,0.007453070487827063
18640343996387,0.8212112188339233,-9.836577415466309,0.44532153010368347,0.0013309054775163531,0.004791259765625,0.0114457868039608
18640345233450,0.8595184087753296,-9.84495735168457,0.4082113802433014,0.0029279920272529125,0.003460354171693325,0.015438503585755825
18640346470512,0.8607155084609985,-9.864110946655273,0.46088382601737976,-0.0005323622026480734,0.007985432632267475,0.010114881210029125
18640347707600,0.872686505317688,-9.874884605407715,0.5147533416748047,0.0002661811013240367,0.007985432632267475,0.013309055007994175
18640348944650,0.8774749040603638,-9.889249801635742,0.45250412821769714,0.003460354171693325,0.006122165359556675,0.010381062515079975
18640350181725,0.8990227580070496,-9.870096206665039,0.4273650050163269,-0.0023956298828125,0.005589802749454975,0.0063883461989462376
18640351418800,0.9026140570640564,-9.862914085388184,0.45010992884635925,-0.00452507846057415,0.0037265352439135313,0.005057440605014563
18640352655887,0.8954314589500427,-9.890447616577148,0.45848962664604187,-0.0005323622026480734,0.0026618109550327063,0.012510511092841625
18640353892937,0.8403648138046265,-9.886856079101562,0.46567222476005554,0.0,0.0013309054775163531,0.00692070834338665
18640355130025,0.8954314589500427,-9.874884605407715,0.4465186297893524,0.0,0.0023956298828125,0.0053236219100654125
18640356367087,0.8643068075180054,-9.906009674072266,0.47165775299072266,0.0029279920272529125,0.0039927163161337376,0.0090501569211483
18640357604150,0.8870517611503601,-9.824606895446777,0.4776432514190674,0.0005323622026480734,0.0071868896484375,0.010647243820130825
18640358841212,0.8487445116043091,-9.871294021606445,0.4752490520477295,0.0021294488105922937,0.0053236219100654125,0.010913425125181675
18640360078287,0.8942343592643738,-9.847352027893066,0.44173023104667664,-0.0015970865497365594,0.0037265352439135313,0.010381062515079975
18640361315350,0.8523358106613159,-9.882067680358887,0.4441244304180145,-0.0005323622026480734,-0.0023956298828125,0.010381062515079975
18640362552425,0.8415619134902954,-9.837775230407715,0.45010992884635925,-0.0013309054775163531,0.0010647244052961469,0.013309055007994175
18640363789500,0.8547300100326538,-9.817423820495605,0.47644615173339844,-0.0021294488105922937,0.003460354171693325,0.005589802749454975
18640365026575,0.9157821536064148,-9.849745750427246,0.45250412821769714,-0.0071868896484375,0.0031941730994731188,0.00958251953125
18640366263612,0.9074024558067322,-9.861717224121094,0.43694180250167847,-0.0039927163161337376,0.005057440605014563,0.007985432632267475
18640367500700,0.889445960521698,-9.84376049041748,0.46567222476005554,-0.0077192517928779125,0.010647243820130825,0.008517795242369175
18640368737762,0.912190854549408,-9.829395294189453,0.5039794445037842,-0.005855984054505825,0.0042588976211845875,0.0071868896484375
18640369974850,0.8942343592643738,-9.882067680358887,0.43335050344467163,-0.004791259765625,0.0010647244052961469,0.0021294488105922937
18640371211925,0.8786720037460327,-9.860519409179688,0.4465186297893524,-0.0002661811013240367,0.0037265352439135313,0.00958251953125
18640372448975,0.8942343592643738,-9.852140426635742,0.4321534037590027,-0.0010647244052961469,0.003460354171693325,0.010381062515079975
18640373686050,0.912190854549408,-9.860519409179688,0.46806642413139343,-0.0010647244052961469,0.0026618109550327063,0.00984870083630085
18640374923112,0.9038111567497253,-9.803058624267578,0.5063736438751221,-0.0018632676219567657,0.005855984054505825,0.0090501569211483
18640376160187,0.8738836050033569,-9.828198432922363,0.4572925269603729,-0.003460354171693325,0.0039927163161337376,0.003460354171693325
18640377397250,0.8786720037460327,-9.840168952941895,0.4321534037590027,-0.0053236219100654125,0.0026618109550327063,0.0066545275039970875
18640378634337,0.8906430602073669,-9.849745750427246,0.4812345504760742,-0.0039927163161337376,0.005057440605014563,0.006122165359556675
18640379871387,0.8990227580070496,-9.862914085388184,0.5003881454467773,-0.0031941730994731188,0.00452507846057415,0.0077192517928779125
18640381108450,0.8954314589500427,-9.876082420349121,0.4596867263317108,-0.005589802749454975,0.00931633822619915,0.006122165359556675
18640382345525,0.8762778043746948,-9.838972091674805,0.47644615173339844,-0.008783976547420025,0.00452507846057415,0.00452507846057415
18640383582600,0.8702923059463501,-9.865307807922363,0.47644615173339844,-0.0042588976211845875,0.0039927163161337376,0.0039927163161337376
18640384819675,0.8523358106613159,-9.897629737854004,0.5171476006507874,-0.005589802749454975,0.005855984054505825,0.007453070487827063
18640386056737,0.9097966551780701,-9.823410034179688,0.4644751250743866,-0.0053236219100654125,0.0029279920272529125,0.0066545275039970875
18640387293837,0.9085995554924011,-9.86889934539795,0.5123591423034668,-0.0066545275039970875,0.005855984054505825,0.005855984054505825
18640388530875,0.9205705523490906,-9.855731010437012,0.49559974670410156,-0.00958251953125,0.003460354171693325,0.00958251953125
18640389767950,0.8738836050033569,-9.854534149169922,0.48961424827575684,-0.012776692397892475,0.0029279920272529125,0.004791259765625
18640391005012,0.889445960521698,-9.854534149169922,0.46327802538871765,-0.00692070834338665,0.006122165359556675,0.006122165359556675
18640392242087,0.8858546614646912,-9.876082420349121,0.4728548526763916,-0.0063883461989462376,0.00984870083630085,0.0005323622026480734
18640393479175,0.8738836050033569,-9.864110946655273,0.45010992884635925,-0.007985432632267475,0.0,0.0042588976211845875
18640394716225,0.8619126081466675,-9.850942611694336,0.45010992884635925,-0.00452507846057415,0.0013309054775163531,0.0071868896484375
18640395953300,0.8559271097183228,-9.841365814208984,0.49799394607543945,-0.005057440605014563,0.0042588976211845875,0.008517795242369175
18640397190362,0.888248860836029,-9.827000617980957,0.43694180250167847,-0.005855984054505825,0.00452507846057415,0.004791259765625
18640398427425,0.889445960521698,-9.817423820495605,0.46327802538871765,-0.005057440605014563,-0.0010647244052961469,0.0037265352439135313
18640399664525,0.9193734526634216,-9.837775230407715,0.48243165016174316,-0.00931633822619915,0.0053236219100654125,0.0031941730994731188
18640400901575,0.8870517611503601,-9.831789016723633,0.47644615173339844,-0.0066545275039970875,0.0037265352439135313,0.0031941730994731188
18640402138662,0.8762778043746948,-9.816226959228516,0.4489128291606903,-0.007985432632267475,0.0042588976211845875,0.0026618109550327063
18640403375700,0.9205705523490906,-9.829395294189453,0.4692635238170624,-0.003460354171693325,0.0031941730994731188,0.005057440605014563
18640404612800,0.9181763529777527,-9.81143856048584,0.44532153010368347,-0.0029279920272529125,0.0063883461989462376,0.008517795242369175
18640405849862,0.889445960521698,-9.823410034179688,0.4967968463897705,0.0005323622026480734,0.003460354171693325,0.005057440605014563
18640407086925,0.8774749040603638,-9.840168952941895,0.4967968463897705,-0.006122165359556675,0.0037265352439135313,0.0002661811013240367
18640408324000,0.8439561128616333,-9.813833236694336,0.4776432514190674,-0.005589802749454975,0.0053236219100654125,0.0005323622026480734
18640409561075,0.871489405632019,-9.782708168029785,0.46806642413139343,-0.0018632676219567657,0.0039927163161337376,0.0021294488105922937
18640410798150,0.8810662031173706,-9.822212219238281,0.4812345504760742,0.0013309054775163531,0.0026618109550327063,0.007453070487827063
18640412035200,0.912190854549408,-9.815030097961426,0.5171476006507874,-0.0039927163161337376,0.005589802749454975,0.0071868896484375
18640413272287,0.8858546614646912,-9.805453300476074,0.47884035110473633,-0.0042588976211845875,0.003460354171693325,0.003460354171693325
18640414509337,0.93254154920578,-9.798270225524902,0.46567222476005554,-0.0021294488105922937,0.0021294488105922937,0.0013309054775163531
18640415746412,0.8834604620933533,-9.787496566772461,0.52552729845047,-0.0026618109550327063,0.0042588976211845875,0.0018632676219567657
18640416983475,0.8750807046890259,-9.815030097961426,0.4812345504760742,-0.005057440605014563,0.0023956298828125,0.0018632676219567657
18640418220537,0.9038111567497253,-9.84256362915039,0.4596867263317108,0.0,0.005057440605014563,0.0026618109550327063
18640419457625,0.9085995554924011,-9.789891242980957,0.5051765441894531,0.0,0.005057440605014563,0.003460354171693325
18640420694700,0.9014169573783875,-9.793481826782227,0.48243165016174316,0.0002661811013240367,0.007453070487827063,0.0023956298828125
18640421931750,0.8954314589500427,-9.813833236694336,0.4465186297893524,-0.0002661811013240367,0.0077192517928779125,0.008251613937318325
18640423168837,0.9085995554924011,-9.786299705505371,0.4752490520477295,-0.0002661811013240367,0.0007985432748682797,0.0
18640424405900,0.849941611289978,-9.832986831665039,0.4405331015586853,-0.0037265352439135313,0.005855984054505825,-0.0031941730994731188
18640425642950,0.8690952062606812,-9.785102844238281,0.43933600187301636,-0.006122165359556675,0.005589802749454975,0.0077192517928779125
18640426880025,0.849941611289978,-9.819818496704102,0.42856210470199585,0.0,0.00692070834338665,0.0018632676219567657
18640428117112,0.8834604620933533,-9.84495735168457,0.4836287498474121,-0.0026618109550327063,0.0071868896484375,0.00452507846057415
18640429354162,0.8786720037460327,-9.836577415466309,0.4752490520477295,-0.0007985432748682797,0.00692070834338665,0.0039927163161337376
18640430591250,0.8978256583213806,-9.798270225524902,0.4429273307323456,-0.0002661811013240367,0.008251613937318325,0.004791259765625
18640431828312,0.9157821536064148,-9.78869342803955,0.4776432514190674,-0.0013309054775163531,0.0037265352439135313,0.0015970865497365594
18640433065387,0.8834604620933533,-9.859322547912598,0.42856210470199585,-0.0063883461989462376,0.0063883461989462376,-0.0002661811013240367
18640434302462,0.9038111567497253,-9.832986831665039,0.4668693244457245,-0.0039927163161337376,0.0071868896484375,0.0037265352439135313
18640435539525,0.9074024558067322,-9.853337287902832,0.48243165016174316,-0.0018632676219567657,0.007985432632267475,-0.0005323622026480734
18640436776587,0.8990227580070496,-9.829395294189453,0.4704606235027313,-0.0039927163161337376,0.00692070834338665,-0.0013309054775163531
18640438013662,0.888248860836029,-9.847352027893066,0.5099649429321289,-0.0071868896484375,0.008251613937318325,0.0002661811013240367
18640439250737,0.9062053561210632,-9.793481826782227,0.5063736438751221,-0.0026618109550327063,0.0090501569211483,-0.0021294488105922937
18640440487800,0.8870517611503601,-9.80904483795166,0.49559974670410156,0.0005323622026480734,0.010381062515079975,0.0007985432748682797
18640441724875,0.8942343592643738,-9.840168952941895,0.5039794445037842,-0.0039927163161337376,0.012510511092841625,-0.0002661811013240367
18640442961937,0.9289502501487732,-9.841365814208984,0.4800374507904053,-0.00452507846057415,0.007985432632267475,0.0029279920272529125
18640444199012,0.9085995554924011,-9.829395294189453,0.49320554733276367,-0.0002661811013240367,0.0066545275039970875,0.0005323622026480734
18640445436075,0.8798691034317017,-9.856928825378418,0.45848962664604187,0.0010647244052961469,0.00692070834338665,0.0005323622026480734
18640446673150,0.9097966551780701,-9.827000617980957,0.45489832758903503,0.0002661811013240367,0.012510511092841625,0.0018632676219567657
18640447910212,0.9241618514060974,-9.801861763000488,0.4620809257030487,0.00452507846057415,0.010913425125181675,0.0018632676219567657
18640449147287,0.9205705523490906,-9.819818496704102,0.4944026470184326,-0.0005323622026480734,0.0090501569211483,0.0002661811013240367
18640450384350,0.888248860836029,-9.81263542175293,0.49320554733276367,0.0010647244052961469,0.010381062515079975,0.003460354171693325
18640451621425,0.9026140570640564,-9.827000617980957,0.47644615173339844,0.0018632676219567657,0.010913425125181675,0.0018632676219567657
18640452858487,0.8738836050033569,-9.848548889160156,0.4776432514190674,-0.0007985432748682797,0.0114457868039608,0.0026618109550327063
18640454095562,0.8559271097183228,-9.81143856048584,0.5063736438751221,-0.0039927163161337376,0.0119781494140625,0.0066545275039970875
18640455332637,0.8702923059463501,-9.794679641723633,0.4944026470184326,0.0002661811013240367,0.00958251953125,0.0053236219100654125
18640456569700,0.888248860836029,-9.824606895446777,0.4596867263317108,0.0005323622026480734,0.013042873702943325,0.0002661811013240367
18640457806762,0.9145850539207458,-9.813833236694336,0.4776432514190674,0.0,0.010114881210029125,0.004791259765625
18640459043862,0.8942343592643738,-9.836577415466309,0.4465186297893524,0.003460354171693325,0.013309055007994175,0.0007985432748682797
18640460280912,0.8798691034317017,-9.803058624267578,0.48602294921875,0.0029279920272529125,0.01996358297765255,0.0015970865497365594
18640461517987,0.889445960521698,-9.813833236694336,0.46806642413139343,0.0013309054775163531,0.01224433071911335,0.0007985432748682797
18640462755050,0.889445960521698,-9.818621635437012,0.42616790533065796,0.0015970865497365594,0.008517795242369175,0.0
18640463992125,0.9169792532920837,-9.819818496704102,0.48722004890441895,0.0002661811013240367,0.01171196810901165,0.0031941730994731188
18640465229162,0.9133879542350769,-9.805453300476074,0.5063736438751221,0.003460354171693325,0.013042873702943325,0.003460354171693325
18640466466262,0.8762778043746948,-9.81143856048584,0.4572925269603729,0.0013309054775163531,0.01224433071911335,0.005057440605014563
18640467703337,0.9002198576927185,-9.840168952941895,0.46088382601737976,0.0039927163161337376,0.0114457868039608,0.008517795242369175
18640468940387,0.8619126081466675,-9.847352027893066,0.48243165016174316,0.0,0.010913425125181675,0.0010647244052961469
18640470177462,0.889445960521698,-9.862914085388184,0.4991910457611084,0.0015970865497365594,0.01171196810901165,0.0010647244052961469
18640471414525,0.8690952062606812,-9.789891242980957,0.46567222476005554,0.0010647244052961469,0.01224433071911335,0.005855984054505825
18640472651612,0.9038111567497253,-9.818621635437012,0.456095427274704,0.0023956298828125,0.014906140975654125,0.0023956298828125
18640473888675,0.8702923059463501,-9.792284965515137,0.49559974670410156,0.0026618109550327063,0.0138414166867733,0.0026618109550327063
18640475125737,0.8475474119186401,-9.803058624267578,0.4465186297893524,0.010381062515079975,0.010913425125181675,0.007453070487827063
18640476362837,0.8858546614646912,-9.821015357971191,0.4668693244457245,0.0066545275039970875,0.0162370465695858,0.005589802749454975
18640477599875,0.8822633624076843,-9.787496566772461,0.4692635238170624,0.0029279920272529125,0.01650322787463665,0.0090501569211483
18640478836962,0.9002198576927185,-9.829395294189453,0.46327802538871765,0.00452507846057415,0.008251613937318325,0.0031941730994731188
18640480074037,0.888248860836029,-9.830592155456543,0.49799394607543945,0.0018632676219567657,0.01171196810901165,0.007985432632267475
18640481311087,0.9193734526634216,-9.829395294189453,0.5386953949928284,-0.0010647244052961469,0.02076212503015995,0.008517795242369175
18640482548162,0.888248860836029,-9.856928825378418,0.47405195236206055,0.003460354171693325,0.01889885775744915,0.0066545275039970875
18640483785212,0.8966285586357117,-9.856928825378418,0.456095427274704,0.003460354171693325,0.01597086526453495,0.007453070487827063
18640485022312,0.8463503122329712,-9.828198432922363,0.47405195236206055,0.0026618109550327063,0.015438503585755825,0.003460354171693325
18640486259375,0.8834604620933533,-9.84495735168457,0.47405195236206055,-0.0015970865497365594,0.0167694091796875,0.00692070834338665
18640487496437,0.8822633624076843,-9.848548889160156,0.47644615173339844,-0.0037265352439135313,0.0191650390625,0.0063883461989462376
18640488733500,0.9193734526634216,-9.861717224121094,0.4668693244457245,-0.0013309054775163531,0.012776692397892475,0.010381062515079975
18640489970587,0.9169792532920837,-9.80904483795166,0.4967968463897705,0.0066545275039970875,0.015438503585755825,0.014906140975654125
18640491207650,0.9074024558067322,-9.801861763000488,0.4704606235027313,0.004791259765625,0.01597086526453495,0.00931633822619915
18640492444725,0.9181763529777527,-9.873687744140625,0.4537012279033661,0.0015970865497365594,0.01889885775744915,0.010647243820130825
18640493681800,0.8810662031173706,-9.830592155456543,0.4776432514190674,0.0010647244052961469,0.01889885775744915,0.008251613937318325
18640494918837,0.8918401598930359,-9.819818496704102,0.4429273307323456,-0.0010647244052961469,0.0173017717897892,0.010381062515079975
18640496155950,0.9265560507774353,-9.786299705505371,0.4596867263317108,0.0023956298828125,0.0204959437251091,0.0063883461989462376
18640497392987,0.9516952037811279,-9.822212219238281,0.4920084476470947,-0.0002661811013240367,0.0210283063352108,0.00452507846057415
18640498630100,0.9409212470054626,-9.822212219238281,0.4345476031303406,-0.0039927163161337376,0.0186326764523983,0.007985432632267475
18640499867137,0.910993754863739,-9.792284965515137,0.42377370595932007,0.00452507846057415,0.01597086526453495,0.007985432632267475
18640501104212,0.910993754863739,-9.836577415466309,0.46806642413139343,0.0013309054775163531,0.0157046839594841,0.00984870083630085
18640502341275,0.912190854549408,-9.870096206665039,0.5003881454467773,0.0010647244052961469,0.0167694091796875,0.012776692397892475
18640503578350,0.8738836050033569,-9.837775230407715,0.44771572947502136,0.0021294488105922937,0.01836649514734745,0.015172322280704975
18640504815412,0.8978256583213806,-9.799468040466309,0.45848962664604187,0.0015970865497365594,0.0173017717897892,0.013042873702943325
18640506052500,0.8846575617790222,-9.806650161743164,0.424970805644989,-0.0042588976211845875,0.01836649514734745,0.008251613937318325
18640507289537,0.8655039072036743,-9.819818496704102,0.4692635238170624,0.0002661811013240367,0.014906140975654125,0.012776692397892475
18640508526625,0.9157821536064148,-9.834183692932129,0.45489832758903503,0.003460354171693325,0.01463996060192585,0.01783413253724575
18640509763700,0.9026140570640564,-9.836577415466309,0.48722004890441895,0.004791259765625,0.01943122036755085,0.010913425125181675
18640511000762,0.9181763529777527,-9.835380554199219,0.46567222476005554,0.0026618109550327063,0.01943122036755085,0.008517795242369175
18640512237812,0.8774749040603638,-9.848548889160156,0.47884035110473633,-0.0023956298828125,0.0167694091796875,0.0114457868039608
18640513474912,0.9277531504631042,-9.852140426635742,0.4967968463897705,-0.0026618109550327063,0.01943122036755085,0.01410759799182415
18640514711962,0.9074024558067322,-9.81143856048584,0.41299980878829956,0.0023956298828125,0.0186326764523983,0.015438503585755825
18640515949050,0.9217676520347595,-9.798270225524902,0.4429273307323456,0.0013309054775163531,0.0196974016726017,0.0114457868039608
18640517186112,0.9097966551780701,-9.815030097961426,0.4776432514190674,0.00692070834338665,0.015172322280704975,0.01597086526453495
18640518423175,0.9026140570640564,-9.81024169921875,0.47644615173339844,0.005589802749454975,0.01703559048473835,0.008517795242369175
18640519660237,0.9205705523490906,-9.829395294189453,0.4465186297893524,0.0029279920272529125,0.0157046839594841,0.00692070834338665
18640520897337,0.8846575617790222,-9.827000617980957,0.4429273307323456,0.0021294488105922937,0.01836649514734745,0.01357523538172245
18640522134400,0.9181763529777527,-9.797073364257812,0.4429273307323456,0.0090501569211483,0.01703559048473835,0.0138414166867733
18640523371462,0.9193734526634216,-9.821015357971191,0.4429273307323456,0.007985432632267475,0.01463996060192585,0.01117960549890995
18640524608525,0.8906430602073669,-9.861717224121094,0.48602294921875,0.0005323622026480734,0.01996358297765255,0.012776692397892475
18640525845600,0.8930372595787048,-9.835380554199219,0.4441244304180145,0.005057440605014563,0.0167694091796875,0.01703559048473835
18640527082662,0.9193734526634216,-9.813833236694336,0.45250412821769714,0.007985432632267475,0.01410759799182415,0.010913425125181675
18640528319725,0.9265560507774353,-9.836577415466309,0.4692635238170624,0.0015970865497365594,0.0181003138422966,0.00958251953125
18640529556800,0.9014169573783875,-9.824606895446777,0.4836287498474121,0.0037265352439135313,0.0157046839594841,0.01463996060192585
18640530793862,0.9074024558067322,-9.850942611694336,0.4465186297893524,0.007985432632267475,0.015172322280704975,0.0167694091796875
18640532030950,0.9002198576927185,-9.870096206665039,0.46567222476005554,0.004791259765625,0.0191650390625,0.01410759799182415
18640533268012,0.889445960521698,-9.829395294189453,0.46327802538871765,0.0039927163161337376,0.0157046839594841,0.013042873702943325
18640534505075,0.9229647517204285,-9.835380554199219,0.4728548526763916,0.0042588976211845875,0.01463996060192585,0.015172322280704975
18640535742175,0.9265560507774353,-9.816226959228516,0.47884035110473633,0.004791259765625,0.014906140975654125,0.01410759799182415
18640536979212,0.8966285586357117,-9.847352027893066,0.4357447028160095,0.00692070834338665,0.01463996060192585,0.01597086526453495
18640538216300,0.9002198576927185,-9.84376049041748,0.46567222476005554,0.0077192517928779125,0.015172322280704975,0.01597086526453495
18640539453375,0.9002198576927185,-9.793481826782227,0.4967968463897705,0.010647243820130825,0.01357523538172245,0.01224433071911335
18640540690437,0.9457097053527832,-9.801861763000488,0.48722004890441895,0.005057440605014563,0.015438503585755825,0.008783976547420025
18640541927500,0.9301473498344421,-9.853337287902832,0.5183447003364563,0.0018632676219567657,0.01650322787463665,0.012776692397892475
18640543164575,0.912190854549408,-9.858125686645508,0.45489832758903503,0.0023956298828125,0.013309055007994175,0.015172322280704975
18640544401650,0.9145850539207458,-9.854534149169922,0.48602294921875,0.005057440605014563,0.01597086526453495,0.013042873702943325
18640545638725,0.9301473498344421,-9.855731010437012,0.42856210470199585,0.0077192517928779125,0.01597086526453495,0.012776692397892475
18640546875787,0.9097966551780701,-9.848548889160156,0.4537012279033661,0.003460354171693325,0.014373779296875,0.008251613937318325
18640548112862,0.933738648891449,-9.828198432922363,0.4991910457611084,0.005589802749454975,0.013042873702943325,0.0173017717897892
18640549349925,0.9433155059814453,-9.865307807922363,0.4537012279033661,0.0031941730994731188,0.0119781494140625,0.015438503585755825
18640550586987,0.9181763529777527,-9.872490882873535,0.44173023104667664,0.0039927163161337376,0.01463996060192585,0.014906140975654125
18640551824037,0.9169792532920837,-9.908403396606445,0.4884171485900879,0.00452507846057415,0.01357523538172245,0.00958251953125
18640553061125,0.9074024558067322,-9.888052940368652,0.4812345504760742,0.0015970865497365594,0.013309055007994175,0.005589802749454975
18640554298200,0.933738648891449,-9.910798072814941,0.4752490520477295,0.004791259765625,0.01224433071911335,0.015172322280704975
18640555535287,0.9469068050384521,-9.898826599121094,0.4668693244457245,0.0039927163161337376,0.010114881210029125,0.01703559048473835
18640556772337,0.9528923034667969,-9.87967300415039,0.5003881454467773,0.0023956298828125,0.005855984054505825,0.01650322787463665
18640558009412,0.9241618514060974,-9.90361499786377,0.4513070285320282,0.0053236219100654125,0.010114881210029125,0.01410759799182415
18640559246475,0.9038111567497253,-9.849745750427246,0.4596867263317108,-0.0007985432748682797,0.01463996060192585,0.012776692397892475
18640560483562,0.9038111567497253,-9.917980194091797,0.4728548526763916,0.0005323622026480734,0.0138414166867733,0.01171196810901165
18640561720612,0.9385270476341248,-9.919178009033203,0.47884035110473633,0.0015970865497365594,0.010647243820130825,0.0186326764523983
18640562957687,0.9241618514060974,-9.8784761428833,0.4812345504760742,0.0053236219100654125,0.005057440605014563,0.01889885775744915
18640564194762,0.8990227580070496,-9.848548889160156,0.40462008118629456,0.00692070834338665,0.0029279920272529125,0.01783413253724575
18640565431825,0.9181763529777527,-9.841365814208984,0.4704606235027313,0.005855984054505825,0.007453070487827063,0.013309055007994175
18640566668912,0.889445960521698,-9.834183692932129,0.4800374507904053,0.0013309054775163531,0.00958251953125,0.0173017717897892
18640567905987,0.9050082564353943,-9.908403396606445,0.4620809257030487,0.0031941730994731188,0.01224433071911335,0.01703559048473835
18640569143037,0.9421183466911316,-9.859322547912598,0.4405331015586853,0.00452507846057415,0.010114881210029125,0.0157046839594841
18640570380125,0.9385270476341248,-9.821015357971191,0.456095427274704,0.0037265352439135313,0.008783976547420025,0.0181003138422966
18640571617187,0.9361328482627869,-9.84615421295166,0.5003881454467773,-0.0010647244052961469,0.0053236219100654125,0.01597086526453495
18640572854250,0.9576807022094727,-9.880870819091797,0.4752490520477295,0.0013309054775163531,0.003460354171693325,0.015172322280704975
18640574091337,0.9026140570640564,-9.813833236694336,0.4800374507904053,0.0029279920272529125,0.0071868896484375,0.0157046839594841
18640575328412,0.9373299479484558,-9.84256362915039,0.5003881454467773,-0.0002661811013240367,0.0066545275039970875,0.0167694091796875
18640576565475,0.9217676520347595,-9.872490882873535,0.50876784324646,0.006122165359556675,0.0037265352439135313,0.0223592109978199
18640577802525,0.9265560507774353,-9.859322547912598,0.5027823448181152,0.0053236219100654125,0.008517795242369175,0.0223592109978199
18640579039600,0.9181763529777527,-9.827000617980957,0.5171476006507874,0.0018632676219567657,0.00984870083630085,0.01996358297765255
18640580276675,0.9241618514060974,-9.848548889160156,0.4920084476470947,0.0029279920272529125,0.010913425125181675,0.01703559048473835
18640581513737,0.9421183466911316,-9.84376049041748,0.4967968463897705,-0.0010647244052961469,0.0042588976211845875,0.01943122036755085
18640582750837,0.9193734526634216,-9.872490882873535,0.5303156971931458,0.0029279920272529125,0.0042588976211845875,0.0252872034907341
18640583987912,0.8978256583213806,-9.803058624267578,0.49799394607543945,0.00452507846057415,-0.0029279920272529125,0.0228915736079216
18640585224962,0.9265560507774353,-9.794679641723633,0.5003881454467773,0.0010647244052961469,-0.0015970865497365594,0.0234239362180233
18640586462025,0.8918401598930359,-9.859322547912598,0.4920084476470947,0.00452507846057415,0.005057440605014563,0.0220930315554142
18640587699112,0.93254154920578,-9.87967300415039,0.5123591423034668,0.0015970865497365594,0.005855984054505825,0.02129448764026165
18640588936162,0.9157821536064148,-9.803058624267578,0.5135562419891357,0.003460354171693325,0.0031941730994731188,0.0186326764523983
18640590173262,0.9588778018951416,-9.835380554199219,0.5327098965644836,0.0005323622026480734,0.0018632676219567657,0.02129448764026165
18640591410312,0.9349357485771179,-9.834183692932129,0.4572925269603729,0.0015970865497365594,0.005057440605014563,0.02076212503015995
18640592647387,0.9445126056671143,-9.84376049041748,0.4692635238170624,0.0007985432748682797,0.0042588976211845875,0.01597086526453495
18640593884450,0.9241618514060974,-9.786299705505371,0.5303156971931458,0.0018632676219567657,-0.0002661811013240367,0.01943122036755085
18640595121525,0.9301473498344421,-9.828198432922363,0.5159504413604736,0.0023956298828125,-0.0015970865497365594,0.01996358297765255
18640596358587,0.9457097053527832,-9.838972091674805,0.47884035110473633,-0.0015970865497365594,0.005057440605014563,0.01889885775744915
18640597595675,0.8990227580070496,-9.877279281616211,0.4513070285320282,0.0007985432748682797,0.0053236219100654125,0.0210283063352108
18640598832737,0.8942343592643738,-9.862914085388184,0.5051765441894531,0.0013309054775163531,-0.0026618109550327063,0.0252872034907341
18640600069800,0.9313444495201111,-9.86650562286377,0.4944026470184326,0.003460354171693325,-0.005855984054505825,0.0247548408806324
18640601306875,0.9157821536064148,-9.84495735168457,0.4213795065879822,0.0010647244052961469,-0.0010647244052961469,0.0196974016726017
18640602543937,0.9133879542350769,-9.835380554199219,0.43933600187301636,0.0007985432748682797,-0.0013309054775163531,0.02129448764026165
18640603781025,0.9014169573783875,-9.813833236694336,0.5063736438751221,0.005057440605014563,-0.004791259765625,0.02555338479578495
18640605018075,0.9169792532920837,-9.828198432922363,0.5339069962501526,0.0002661811013240367,-0.0026618109550327063,0.02369011752307415
18640606255150,0.9181763529777527,-9.856928825378418,0.45848962664604187,-0.0029279920272529125,0.0031941730994731188,0.015438503585755825
18640607492212,0.9026140570640564,-9.861717224121094,0.47165775299072266,-0.0013309054775163531,-0.0010647244052961469,0.0196974016726017
18640608729312,0.9074024558067322,-9.822212219238281,0.47884035110473633,0.0007985432748682797,-0.0042588976211845875,0.01836649514734745
18640609966350,0.910993754863739,-9.840168952941895,0.47165775299072266,-0.0010647244052961469,-0.0002661811013240367,0.0247548408806324
18640611203450,0.9241618514060974,-9.840168952941895,0.395043283700943,-0.0013309054775163531,0.0002661811013240367,0.0228915736079216
18640612440512,0.9241618514060974,-9.819818496704102,0.45848962664604187,0.0013309054775163531,-0.0005323622026480734,0.02555338479578495
18640613677575,0.933738648891449,-9.800664901733398,0.5135562419891357,-0.0021294488105922937,0.0002661811013240367,0.0228915736079216
18640614914637,0.8822633624076843,-9.803058624267578,0.4704606235027313,-0.0039927163161337376,-0.0005323622026480734,0.01889885775744915
18640616151712,0.8750807046890259,-9.829395294189453,0.4644751250743866,-0.0029279920272529125,-0.0077192517928779125,0.01836649514734745
18640617388787,0.8906430602073669,-9.813833236694336,0.456095427274704,-0.0029279920272529125,-0.0042588976211845875,0.01836649514734745
18640618625862,0.8619126081466675,-9.801861763000488,0.4944026470184326,-0.0031941730994731188,0.0018632676219567657,0.0186326764523983
18640619862925,0.8918401598930359,-9.824606895446777,0.4668693244457245,-0.0005323622026480734,-0.0005323622026480734,0.0196974016726017
18640621099987,0.8475474119186401,-9.837775230407715,0.4441244304180145,-0.0018632676219567657,-0.0066545275039970875,0.02182685025036335
18640622337062,0.8547300100326538,-9.862914085388184,0.45010992884635925,-0.0029279920272529125,-0.00452507846057415,0.01996358297765255
18640623574125,0.9026140570640564,-9.791088104248047,0.47405195236206055,-0.0021294488105922937,-0.005855984054505825,0.0220930315554142
18640624811200,0.8918401598930359,-9.817423820495605,0.43335050344467163,-0.005057440605014563,-0.0037265352439135313,0.0204959437251091
18640626048250,0.8918401598930359,-9.806650161743164,0.4165911078453064,-0.005855984054505825,-0.006122165359556675,0.01889885775744915
18640627285350,0.8954314589500427,-9.818621635437012,0.46806642413139343,-0.0037265352439135313,-0.00958251953125,0.015172322280704975
18640628522425,0.9133879542350769,-9.799468040466309,0.4812345504760742,-0.0029279920272529125,-0.0053236219100654125,0.015438503585755825
18640629759487,0.8930372595787048,-9.81143856048584,0.46567222476005554,-0.0029279920272529125,-0.006122165359556675,0.01410759799182415
18640630996562,0.8858546614646912,-9.801861763000488,0.47405195236206055,-0.006122165359556675,-0.0090501569211483,0.02022976242005825
18640632233625,0.8583213090896606,-9.838972091674805,0.48602294921875,-0.005589802749454975,-0.006122165359556675,0.0186326764523983
18640633470675,0.8990227580070496,-9.836577415466309,0.4596867263317108,-0.0021294488105922937,-0.007985432632267475,0.0138414166867733
18640634707762,0.8403648138046265,-9.827000617980957,0.46088382601737976,-0.005057440605014563,-0.005589802749454975,0.0162370465695858
18640635944837,0.8990227580070496,-9.883264541625977,0.4776432514190674,-0.00692070834338665,-0.0066545275039970875,0.0181003138422966
18640637181887,0.8487445116043091,-9.858125686645508,0.4465186297893524,-0.0015970865497365594,-0.0114457868039608,0.01836649514734745
18640638418962,0.8595184087753296,-9.850942611694336,0.48482584953308105,-0.0013309054775163531,-0.0039927163161337376,0.01597086526453495
18640639656050,0.8810662031173706,-9.835380554199219,0.4884171485900879,-0.0010647244052961469,-0.004791259765625,0.01357523538172245
18640640893112,0.8595184087753296,-9.849745750427246,0.4489128291606903,0.0010647244052961469,-0.010114881210029125,0.0173017717897892
18640642130175,0.8738836050033569,-9.821015357971191,0.4920084476470947,-0.0015970865497365594,-0.008517795242369175,0.01836649514734745
18640643367237,0.8798691034317017,-9.815030097961426,0.4991910457611084,-0.005589802749454975,-0.005589802749454975,0.013042873702943325
18640644604325,0.8678981065750122,-9.795876502990723,0.48482584953308105,0.0010647244052961469,-0.00692070834338665,0.012776692397892475
18640645841400,0.8762778043746948,-9.795876502990723,0.49799394607543945,-0.0013309054775163531,-0.0053236219100654125,0.0186326764523983
18640647078475,0.9050082564353943,-9.86650562286377,0.48602294921875,-0.0031941730994731188,-0.005057440605014563,0.01996358297765255
18640648315525,0.8738836050033569,-9.86889934539795,0.4884171485900879,-0.0005323622026480734,-0.01171196810901165,0.0157046839594841
18640649552600,0.8822633624076843,-9.855731010437012,0.5063736438751221,-0.0007985432748682797,-0.01410759799182415,0.014373779296875
18640650789675,0.8858546614646912,-9.861717224121094,0.4644751250743866,0.00452507846057415,-0.013042873702943325,0.01783413253724575
18640652026750,0.8631097078323364,-9.836577415466309,0.4836287498474121,-0.0002661811013240367,-0.006122165359556675,0.01597086526453495
18640653263825,0.8846575617790222,-9.86889934539795,0.5099649429321289,-0.005057440605014563,-0.0071868896484375,0.01703559048473835
18640654500900,0.8690952062606812,-9.883264541625977,0.47884035110473633,-0.0039927163161337376,-0.010647243820130825,0.0173017717897892
18640655737950,0.8523358106613159,-9.850942611694336,0.4537012279033661,-0.0023956298828125,-0.00692070834338665,0.00931633822619915
18640656975037,0.8643068075180054,-9.797073364257812,0.4812345504760742,-0.0029279920272529125,-0.008251613937318325,0.015438503585755825
18640658212087,0.872686505317688,-9.840168952941895,0.5051765441894531,-0.005057440605014563,-0.004791259765625,0.01410759799182415
18640659449175,0.8535329103469849,-9.803058624267578,0.45489832758903503,-0.005855984054505825,-0.0066545275039970875,0.013309055007994175
18640660686237,0.8415619134902954,-9.78869342803955,0.4991910457611084,-0.008783976547420025,-0.0071868896484375,0.00984870083630085
18640661923325,0.8738836050033569,-9.806650161743164,0.5003881454467773,-0.0031941730994731188,-0.0063883461989462376,0.010381062515079975
18640663160362,0.8547300100326538,-9.837775230407715,0.4884171485900879,0.0,-0.0071868896484375,0.010647243820130825
18640664397450,0.8391677141189575,-9.822212219238281,0.4345476031303406,-0.0029279920272529125,-0.005855984054505825,0.014373779296875
18640665634525,0.8200140595436096,-9.792284965515137,0.4668693244457245,-0.0037265352439135313,-0.007453070487827063,0.008517795242369175
18640666871600,0.8595184087753296,-9.815030097961426,0.48482584953308105,-0.00452507846057415,-0.0042588976211845875,0.010913425125181675
18640668108675,0.8643068075180054,-9.84495735168457,0.49559974670410156,-0.0063883461989462376,-0.004791259765625,0.008783976547420025
18640669345737,0.8271967172622681,-9.825803756713867,0.48243165016174316,-0.0015970865497365594,-0.0066545275039970875,0.01357523538172245
18640670582812,0.8822633624076843,-9.862914085388184,0.4668693244457245,0.0026618109550327063,-0.0066545275039970875,0.010913425125181675
18640671819875,0.9050082564353943,-9.827000617980957,0.50876784324646,-0.0023956298828125,-0.00692070834338665,0.0071868896484375
18640673056937,0.8451532125473022,-9.800664901733398,0.45010992884635925,-0.0037265352439135313,-0.004791259765625,0.008251613937318325
18640674294000,0.8259996175765991,-9.803058624267578,0.46567222476005554,-0.0018632676219567657,0.0,0.010913425125181675
18640675531075,0.8403648138046265,-9.799468040466309,0.48602294921875,-0.0010647244052961469,-0.00692070834338665,0.008251613937318325
18640676768162,0.8535329103469849,-9.8784761428833,0.43933600187301636,-0.005057440605014563,-0.0042588976211845875,0.0066545275039970875
18640678005225,0.812831461429596,-9.816226959228516,0.4692635238170624,-0.0039927163161337376,-0.0018632676219567657,0.010913425125181675
18640679242312,0.8463503122329712,-9.795876502990723,0.45848962664604187,0.0005323622026480734,-0.00692070834338665,0.0114457868039608
18640680479375,0.8403648138046265,-9.813833236694336,0.46327802538871765,-0.0010647244052961469,-0.007985432632267475,0.00692070834338665
18640681716437,0.872686505317688,-9.825803756713867,0.48602294921875,-0.005057440605014563,-0.0026618109550327063,0.0063883461989462376
18640682953500,0.828393816947937,-9.855731010437012,0.48722004890441895,-0.0042588976211845875,-0.0031941730994731188,0.0039927163161337376
18640684190575,0.8535329103469849,-9.84495735168457,0.4884171485900879,-0.0021294488105922937,-0.0053236219100654125,0.0063883461989462376
18640685427662,0.8774749040603638,-9.889249801635742,0.4692635238170624,-0.005057440605014563,-0.0031941730994731188,0.006122165359556675
18640686664725,0.829590916633606,-9.838972091674805,0.4884171485900879,-0.0029279920272529125,0.0018632676219567657,0.0021294488105922937
18640687901787,0.828393816947937,-9.870096206665039,0.45250412821769714,-0.0037265352439135313,0.0010647244052961469,0.00692070834338665
18640689138862,0.8667010068893433,-9.850942611694336,0.48722004890441895,-0.0042588976211845875,-0.0029279920272529125,0.0063883461989462376
18640690375937,0.8678981065750122,-9.834183692932129,0.4920084476470947,-0.0026618109550327063,-0.003460354171693325,0.006122165359556675
18640691613012,0.8343793153762817,-9.81263542175293,0.48722004890441895,-0.0007985432748682797,-0.0023956298828125,0.0077192517928779125
18640692850062,0.8655039072036743,-9.817423820495605,0.5351040959358215,-0.0026618109550327063,-0.0002661811013240367,0.0037265352439135313
18640694087137,0.851138710975647,-9.782708168029785,0.5303156971931458,-0.006122165359556675,0.0,0.0071868896484375
18640695324212,0.8475474119186401,-9.81024169921875,0.48602294921875,-0.006122165359556675,0.0026618109550327063,0.0039927163161337376
18640696561275,0.8391677141189575,-9.787496566772461,0.4800374507904053,-0.0018632676219567657,-0.0002661811013240367,0.005057440605014563
18640697798350,0.8750807046890259,-9.850942611694336,0.456095427274704,-0.0021294488105922937,-0.004791259765625,0.00452507846057415
18640699035437,0.8236054182052612,-9.854534149169922,0.4489128291606903,-0.0026618109550327063,-0.005589802749454975,0.00692070834338665
18640700272487,0.829590916633606,-9.830592155456543,0.45010992884635925,-0.00452507846057415,-0.0042588976211845875,0.0029279920272529125
18640701509575,0.8559271097183228,-9.81143856048584,0.5135562419891357,-0.005057440605014563,0.0002661811013240367,0.005057440605014563
18640702746625,0.8870517611503601,-9.803058624267578,0.46567222476005554,-0.0039927163161337376,0.00452507846057415,0.005057440605014563
18640703983712,0.8547300100326538,-9.841365814208984,0.4908113479614258,-0.0077192517928779125,0.0031941730994731188,0.010913425125181675
18640705220775,0.8535329103469849,-9.816226959228516,0.46327802538871765,-0.0018632676219567657,0.0026618109550327063,0.007985432632267475
18640706457850,0.851138710975647,-9.819818496704102,0.47884035110473633,-0.0005323622026480734,0.0005323622026480734,0.0015970865497365594
18640707694912,0.8523358106613159,-9.80904483795166,0.4908113479614258,0.0,0.0010647244052961469,0.0037265352439135313
18640708932000,0.829590916633606,-9.840168952941895,0.46806642413139343,-0.003460354171693325,0.0023956298828125,0.0031941730994731188
18640710169062,0.8750807046890259,-9.805453300476074,0.44173023104667664,-0.005057440605014563,0.0018632676219567657,0.0066545275039970875
18640711406137,0.8188169598579407,-9.798270225524902,0.42616790533065796,-0.0031941730994731188,0.0029279920272529125,0.0007985432748682797
18640712643212,0.8762778043746948,-9.806650161743164,0.44173023104667664,-0.0005323622026480734,0.003460354171693325,0.0013309054775163531
18640713880275,0.8583213090896606,-9.855731010437012,0.4776432514190674,0.0013309054775163531,0.0013309054775163531,0.004791259765625
18640715117350,0.8403648138046265,-9.824606895446777,0.5195418000221252,-0.0010647244052961469,0.005589802749454975,0.0090501569211483
18640716354412,0.8571242094039917,-9.834183692932129,0.46806642413139343,-0.0053236219100654125,0.003460354171693325,-0.0005323622026480734
18640717591475,0.8463503122329712,-9.84615421295166,0.47884035110473633,-0.006122165359556675,0.007985432632267475,-0.0010647244052961469
18640718828562,0.829590916633606,-9.828198432922363,0.46806642413139343,-0.00692070834338665,0.0077192517928779125,0.0018632676219567657
18640720065637,0.8655039072036743,-9.821015357971191,0.48602294921875,-0.0023956298828125,0.00452507846057415,0.003460354171693325
18640721302712,0.828393816947937,-9.861717224121094,0.4537012279033661,0.0005323622026480734,0.0021294488105922937,0.005589802749454975
18640722539775,0.8774749040603638,-9.852140426635742,0.4812345504760742,0.0007985432748682797,0.0021294488105922937,0.0042588976211845875
18640723776837,0.8523358106613159,-9.835380554199219,0.50876784324646,0.0002661811013240367,0.004791259765625,0.0063883461989462376
18640725013912,0.8224083185195923,-9.829395294189453,0.4944026470184326,-0.0026618109550327063,0.005589802749454975,0.00452507846057415
18640726250987,0.889445960521698,-9.803058624267578,0.4465186297893524,-0.004791259765625,0.010913425125181675,0.0010647244052961469
18640727488050,0.8655039072036743,-9.853337287902832,0.4836287498474121,-0.0007985432748682797,0.008517795242369175,0.008783976547420025
18640728725137,0.8906430602073669,-9.84376049041748,0.4620809257030487,-0.0007985432748682797,0.00452507846057415,0.0053236219100654125
18640729962200,0.8044517636299133,-9.786299705505371,0.46327802538871765,-0.0018632676219567657,0.00984870083630085,0.007985432632267475
18640731199250,0.871489405632019,-9.858125686645508,0.5327098965644836,-0.0042588976211845875,0.008251613937318325,0.0066545275039970875
18640732436350,0.8331822156906128,-9.847352027893066,0.4596867263317108,-0.004791259765625,0.00958251953125,0.00692070834338665
18640733673412,0.8607155084609985,-9.835380554199219,0.47165775299072266,0.0002661811013240367,0.008783976547420025,0.005057440605014563
18640734910462,0.872686505317688,-9.834183692932129,0.507570743560791,-0.0029279920272529125,0.0090501569211483,0.0018632676219567657
18640736147537,0.8786720037460327,-9.855731010437012,0.45489832758903503,-0.0026618109550327063,0.00931633822619915,0.00692070834338665
18640737384625,0.8619126081466675,-9.783905029296875,0.46567222476005554,-0.0031941730994731188,0.006122165359556675,0.007985432632267475
18640738621687,0.8439561128616333,-9.837775230407715,0.4908113479614258,-0.007453070487827063,0.0077192517928779125,0.005855984054505825
18640739858762,0.8475474119186401,-9.873687744140625,0.4704606235027313,-0.0029279920272529125,0.0066545275039970875,0.0071868896484375
18640741095825,0.8978256583213806,-9.849745750427246,0.4572925269603729,-0.010381062515079975,0.010647243820130825,0.00958251953125
18640742332900,0.8774749040603638,-9.835380554199219,0.47165775299072266,-0.008783976547420025,0.0119781494140625,0.005589802749454975
18640743569950,0.8762778043746948,-9.823410034179688,0.4800374507904053,-0.005589802749454975,0.014373779296875,0.0071868896484375
18640744807037,0.8319851160049438,-9.84615421295166,0.4920084476470947,-0.0042588976211845875,0.01889885775744915,0.0077192517928779125
18640746044112,0.8583213090896606,-9.885659217834473,0.46806642413139343,-0.005057440605014563,0.015172322280704975,0.007453070487827063
18640747281200,0.8343793153762817,-9.836577415466309,0.46567222476005554,-0.0042588976211845875,0.01756795309484005,0.004791259765625
18640748518262,0.849941611289978,-9.877279281616211,0.43933600187301636,-0.0077192517928779125,0.0138414166867733,0.006122165359556675
18640749755325,0.8942343592643738,-9.84495735168457,0.4908113479614258,-0.0066545275039970875,0.013309055007994175,0.00984870083630085
18640750992387,0.8355764150619507,-9.81143856048584,0.48602294921875,0.0,0.010913425125181675,0.013309055007994175
18640752229450,0.8942343592643738,-9.848548889160156,0.45010992884635925,-0.0002661811013240367,0.01224433071911335,0.00931633822619915
18640753466537,0.851138710975647,-9.829395294189453,0.42856210470199585,-0.0023956298828125,0.01357523538172245,0.0090501569211483
18640754703612,0.8607155084609985,-9.795876502990723,0.4668693244457245,-0.008517795242369175,0.0077192517928779125,0.0077192517928779125
18640755940662,0.8834604620933533,-9.821015357971191,0.4752490520477295,-0.006122165359556675,0.013042873702943325,0.010114881210029125
18640757177737,0.851138710975647,-9.768342971801758,0.4836287498474121,-0.003460354171693325,0.010913425125181675,0.0119781494140625
18640758414812,0.8463503122329712,-9.871294021606445,0.47644615173339844,-0.003460354171693325,0.012776692397892475,0.0077192517928779125
18640759651900,0.8643068075180054,-9.838972091674805,0.5039794445037842,-0.00452507846057415,0.0223592109978199,0.00452507846057415
18640760888962,0.8619126081466675,-9.818621635437012,0.4836287498474121,-0.0071868896484375,0.0162370465695858,0.00931633822619915
18640762126025,0.8643068075180054,-9.78869342803955,0.4381389021873474,-0.003460354171693325,0.0157046839594841,0.0037265352439135313
18640763363112,0.8607155084609985,-9.834183692932129,0.45489832758903503,0.0,0.01597086526453495,0.005057440605014563
18640764600162,0.8954314589500427,-9.84495735168457,0.4513070285320282,0.0015970865497365594,0.013309055007994175,0.010114881210029125
18640765837250,0.910993754863739,-9.830592155456543,0.44771572947502136,-0.0015970865497365594,0.00931633822619915,0.0119781494140625
18640767074300,0.9014169573783875,-9.832986831665039,0.4692635238170624,-0.00958251953125,0.013309055007994175,0.01224433071911335
18640768311375,0.872686505317688,-9.823410034179688,0.4668693244457245,-0.0037265352439135313,0.01889885775744915,0.01224433071911335
18640769548462,0.8523358106613159,-9.841365814208984,0.46088382601737976,-0.0021294488105922937,0.01410759799182415,0.01171196810901165
18640770785525,0.9205705523490906,-9.860519409179688,0.4800374507904053,-0.0021294488105922937,0.01410759799182415,0.013309055007994175
18640772022550,0.9085995554924011,-9.87967300415039,0.48602294921875,-0.003460354171693325,0.01463996060192585,0.01171196810901165
18640773259662,0.8619126081466675,-9.819818496704102,0.4572925269603729,0.0010647244052961469,0.01597086526453495,0.014373779296875
18640774496725,0.8906430602073669,-9.81263542175293,0.45250412821769714,-0.0042588976211845875,0.012776692397892475,0.0114457868039608
18640775733787,0.888248860836029,-9.825803756713867,0.4620809257030487,-0.005589802749454975,0.015438503585755825,0.00931633822619915
18640776970875,0.8918401598930359,-9.819818496704102,0.43335050344467163,-0.005057440605014563,0.01463996060192585,0.010913425125181675
18640778207950,0.8942343592643738,-9.848548889160156,0.46088382601737976,-0.00692070834338665,0.0157046839594841,0.01117960549890995
18640779445025,0.871489405632019,-9.828198432922363,0.46327802538871765,-0.0037265352439135313,0.013309055007994175,0.0167694091796875
18640780682087,0.9085995554924011,-9.81024169921875,0.46806642413139343,-0.0023956298828125,0.01463996060192585,0.0157046839594841
18640781919137,0.9062053561210632,-9.830592155456543,0.5015852451324463,-0.0026618109550327063,0.0173017717897892,0.010381062515079975
18640783156237,0.8810662031173706,-9.864110946655273,0.5039794445037842,-0.008517795242369175,0.01783413253724575,0.0077192517928779125
18640784393300,0.8762778043746948,-9.832986831665039,0.4572925269603729,-0.0053236219100654125,0.0138414166867733,0.00692070834338665
18640785630375,0.8762778043746948,-9.825803756713867,0.45489832758903503,-0.00452507846057415,0.015172322280704975,0.008517795242369175
18640786867450,0.8942343592643738,-9.838972091674805,0.4513070285320282,0.0,0.0181003138422966,0.00692070834338665
18640788104500,0.9169792532920837,-9.806650161743164,0.4441244304180145,-0.0021294488105922937,0.01410759799182415,0.012510511092841625
18640789341575,0.9014169573783875,-9.823410034179688,0.45250412821769714,-0.0015970865497365594,0.012776692397892475,0.014373779296875
18640790578650,0.9241618514060974,-9.831789016723633,0.4429273307323456,-0.0029279920272529125,0.0119781494140625,0.0090501569211483
18640791815712,0.9133879542350769,-9.798270225524902,0.5051765441894531,-0.0066545275039970875,0.010381062515079975,0.0119781494140625
18640793052787,0.8942343592643738,-9.825803756713867,0.5039794445037842,-0.0066545275039970875,0.01224433071911335,0.013042873702943325
18640794289850,0.9385270476341248,-9.818621635437012,0.48243165016174316,-0.005589802749454975,0.0090501569211483,0.010381062515079975
18640795526937,0.9157821536064148,-9.818621635437012,0.47165775299072266,-0.0029279920272529125,0.0114457868039608,0.008783976547420025
18640796764000,0.8990227580070496,-9.774328231811523,0.48961424827575684,-0.0013309054775163531,0.013309055007994175,0.01117960549890995
18640798001062,0.8942343592643738,-9.81143856048584,0.45250412821769714,0.0005323622026480734,0.01171196810901165,0.014906140975654125
18640799238125,0.9097966551780701,-9.787496566772461,0.4800374507904053,0.0002661811013240367,0.01463996060192585,0.008251613937318325
18640800475200,0.9313444495201111,-9.836577415466309,0.46567222476005554,-0.0013309054775163531,0.010114881210029125,0.00984870083630085
18640801712275,0.9205705523490906,-9.859322547912598,0.4692635238170624,-0.0042588976211845875,0.007453070487827063,0.01357523538172245
18640802949350,0.9672574996948242,-9.786299705505371,0.4991910457611084,0.0007985432748682797,0.012510511092841625,0.013042873702943325
18640804186437,0.9097966551780701,-9.84615421295166,0.42018240690231323,0.0007985432748682797,0.00958251953125,0.0031941730994731188
18640805423487,0.9373299479484558,-9.798270225524902,0.4465186297893524,0.0021294488105922937,0.012510511092841625,0.008517795242369175
18640806660562,0.9349357485771179,-9.804256439208984,0.4836287498474121,0.0018632676219567657,0.01357523538172245,0.012776692397892475
18640807897625,0.9217676520347595,-9.768342971801758,0.4620809257030487,0.0018632676219567657,0.004791259765625,0.0114457868039608
18640809134700,0.9181763529777527,-9.781511306762695,0.44532153010368347,0.0029279920272529125,0.00958251953125,0.012510511092841625
18640810371787,0.8906430602073669,-9.80904483795166,0.44771572947502136,0.005855984054505825,0.0119781494140625,0.0114457868039608
18640811608862,0.9038111567497253,-9.806650161743164,0.4836287498474121,0.0042588976211845875,0.00984870083630085,0.014906140975654125
18640812845912,0.912190854549408,-9.771934509277344,0.4967968463897705,0.0023956298828125,0.00958251953125,0.0119781494140625
18640814083000,0.9241618514060974,-9.807847023010254,0.48602294921875,0.0,0.0090501569211483,0.00984870083630085
18640815320075,0.8942343592643738,-9.791088104248047,0.4572925269603729,0.0010647244052961469,0.00692070834338665,0.008251613937318325
18640816557137,0.9062053561210632,-9.807847023010254,0.5027823448181152,0.0026618109550327063,0.008517795242369175,0.008783976547420025
18640817794200,0.8858546614646912,-9.817423820495605,0.4465186297893524,0.0029279920272529125,0.00984870083630085,0.0114457868039608
18640819031275,0.8930372595787048,-9.797073364257812,0.4800374507904053,0.0071868896484375,0.010647243820130825,0.0114457868039608
18640820268350,0.9516952037811279,-9.805453300476074,0.46806642413139343,0.0039927163161337376,0.006122165359556675,0.00958251953125
18640821505425,0.9157821536064148,-9.825803756713867,0.46088382601737976,0.0018632676219567657,0.008783976547420025,0.00984870083630085
18640822742487,0.9229647517204285,-9.792284965515137,0.46088382601737976,0.004791259765625,0.007453070487827063,0.01357523538172245
18640823979562,0.9301473498344421,-9.813833236694336,0.46567222476005554,0.007985432632267475,0.005057440605014563,0.01117960549890995
18640825216625,0.9193734526634216,-9.804256439208984,0.45010992884635925,0.008783976547420025,0.00452507846057415,0.01171196810901165
18640826453712,0.9385270476341248,-9.81143856048584,0.4141969084739685,0.0015970865497365594,0.0015970865497365594,0.005589802749454975
18640827690762,0.9313444495201111,-9.823410034179688,0.4513070285320282,0.0010647244052961469,0.0042588976211845875,0.007453070487827063
18640828927837,0.9313444495201111,-9.81263542175293,0.4465186297893524,0.0029279920272529125,0.008251613937318325,0.01357523538172245
18640830164912,0.950498104095459,-9.793481826782227,0.47405195236206055,0.0029279920272529125,0.0031941730994731188,0.01171196810901165
18640831401975,0.9481039047241211,-9.773131370544434,0.47884035110473633,-0.0002661811013240367,-0.0002661811013240367,0.00931633822619915
18640832639050,0.912190854549408,-9.80904483795166,0.42616790533065796,0.0031941730994731188,0.005589802749454975,0.00931633822619915
18640833876112,0.9074024558067322,-9.837775230407715,0.49320554733276367,0.008251613937318325,0.0015970865497365594,0.01224433071911335
18640835113200,0.8750807046890259,-9.871294021606445,0.5195418000221252,0.012510511092841625,0.0,0.008251613937318325
18640836350275,0.9038111567497253,-9.81263542175293,0.4884171485900879,0.005855984054505825,-0.0002661811013240367,0.006122165359556675
18640837587337,0.889445960521698,-9.78869342803955,0.45250412821769714,0.008783976547420025,-0.0013309054775163531,0.01224433071911335
18640838824412,0.910993754863739,-9.794679641723633,0.4728548526763916,0.0042588976211845875,-0.0023956298828125,0.015172322280704975
18640840061475,0.9193734526634216,-9.853337287902832,0.4668693244457245,0.0063883461989462376,0.0010647244052961469,0.008783976547420025
18640841298537,0.9277531504631042,-9.84495735168457,0.4944026470184326,0.010381062515079975,-0.0026618109550327063,0.014373779296875
18640842535612,0.9421183466911316,-9.818621635437012,0.4644751250743866,0.00958251953125,0.0018632676219567657,0.01756795309484005
18640843772687,0.8966285586357117,-9.853337287902832,0.46806642413139343,0.00452507846057415,-0.0007985432748682797,0.0138414166867733
18640845009762,0.9277531504631042,-9.831789016723633,0.4967968463897705,0.0042588976211845875,-0.0005323622026480734,0.01171196810901165
18640846246837,0.9002198576927185,-9.838972091674805,0.48243165016174316,0.00958251953125,0.0018632676219567657,0.01117960549890995
18640847483900,0.9277531504631042,-9.870096206665039,0.5027823448181152,0.007453070487827063,-0.0023956298828125,0.010647243820130825
18640848720987,0.9038111567497253,-9.850942611694336,0.46327802538871765,0.0063883461989462376,-0.0063883461989462376,0.010647243820130825
18640849958037,0.8942343592643738,-9.835380554199219,0.47405195236206055,0.007985432632267475,-0.004791259765625,0.010114881210029125
18640851195112,0.8966285586357117,-9.819818496704102,0.4572925269603729,0.0042588976211845875,-0.0026618109550327063,0.00958251953125
18640852432175,0.9361328482627869,-9.827000617980957,0.4620809257030487,0.006122165359556675,-0.0010647244052961469,0.0090501569211483
18640853669262,0.933738648891449,-9.84615421295166,0.45010992884635925,0.0077192517928779125,-0.0077192517928779125,0.0077192517928779125
18640854906325,0.9002198576927185,-9.831789016723633,0.45489832758903503,0.01357523538172245,-0.007453070487827063,0.00692070834338665
18640856143400,0.9193734526634216,-9.819818496704102,0.4800374507904053,0.008783976547420025,-0.004791259765625,0.008251613937318325
18640857380475,0.9229647517204285,-9.825803756713867,0.47405195236206055,0.0063883461989462376,-0.007453070487827063,0.01650322787463665
18640858617562,0.9145850539207458,-9.858125686645508,0.4908113479614258,0.008517795242369175,-0.010913425125181675,0.01410759799182415
18640859854600,0.8990227580070496,-9.827000617980957,0.5039794445037842,0.008517795242369175,-0.01224433071911335,0.0119781494140625
18640861091675,0.9157821536064148,-9.827000617980957,0.4812345504760742,0.008783976547420025,-0.0090501569211483,0.007453070487827063
18640862328750,0.9313444495201111,-9.828198432922363,0.46327802538871765,0.015172322280704975,-0.00692070834338665,0.0138414166867733
18640863565812,0.9528923034667969,-9.827000617980957,0.47405195236206055,0.00931633822619915,-0.0077192517928779125,0.01171196810901165
18640864802887,0.9433155059814453,-9.840168952941895,0.507570743560791,0.008783976547420025,-0.0119781494140625,0.00984870083630085
18640866039975,0.9289502501487732,-9.821015357971191,0.50876784324646,0.012510511092841625,-0.010381062515079975,0.008251613937318325
18640867277025,0.9074024558067322,-9.827000617980957,0.45250412821769714,0.010913425125181675,-0.006122165359556675,0.013042873702943325
18640868514125,0.9277531504631042,-9.849745750427246,0.47405195236206055,0.0053236219100654125,-0.00958251953125,0.00984870083630085
18640869751175,0.9205705523490906,-9.831789016723633,0.50876784324646,0.008517795242369175,-0.010913425125181675,0.01171196810901165
18640870988250,0.9217676520347595,-9.859322547912598,0.5231330990791321,0.012510511092841625,-0.012510511092841625,0.013042873702943325
18640872225325,0.8966285586357117,-9.819818496704102,0.4165911078453064,0.0077192517928779125,-0.01224433071911335,0.013042873702943325
18640873462400,0.8834604620933533,-9.825803756713867,0.47405195236206055,0.008783976547420025,-0.008783976547420025,0.01171196810901165
18640874699462,0.8846575617790222,-9.830592155456543,0.48602294921875,0.0138414166867733,-0.00984870083630085,0.0071868896484375
18640875936525,0.9181763529777527,-9.828198432922363,0.4572925269603729,0.0114457868039608,-0.0119781494140625,0.00931633822619915
18640877173612,0.9397241473197937,-9.824606895446777,0.45250412821769714,0.00984870083630085,-0.013042873702943325,0.01783413253724575
18640878410675,0.9193734526634216,-9.800664901733398,0.4836287498474121,0.0090501569211483,-0.010647243820130825,0.0114457868039608
18640879647750,0.9038111567497253,-9.818621635437012,0.48482584953308105,0.007985432632267475,-0.0138414166867733,0.0071868896484375
18640880884825,0.9229647517204285,-9.850942611694336,0.4345476031303406,0.01171196810901165,-0.01703559048473835,0.010913425125181675
18640882121900,0.8906430602073669,-9.806650161743164,0.43095630407333374,0.008251613937318325,-0.0173017717897892,0.01224433071911335
18640883358950,0.8978256583213806,-9.797073364257812,0.4620809257030487,0.00692070834338665,-0.015172322280704975,0.01410759799182415
18640884596025,0.9050082564353943,-9.787496566772461,0.4141969084739685,0.010913425125181675,-0.01410759799182415,0.007985432632267475
18640885833100,0.8798691034317017,-9.803058624267578,0.47165775299072266,0.01171196810901165,-0.00984870083630085,0.010381062515079975
18640887070175,0.9145850539207458,-9.80904483795166,0.48482584953308105,0.010381062515079975,-0.013042873702943325,0.0157046839594841
18640888307250,0.9265560507774353,-9.805453300476074,0.4596867263317108,0.0077192517928779125,-0.015438503585755825,0.01171196810901165
18640889544312,0.872686505317688,-9.797073364257812,0.46567222476005554,0.0037265352439135313,-0.01756795309484005,0.01117960549890995
18640890781387,0.8427590131759644,-9.805453300476074,0.48482584953308105,0.00692070834338665,-0.01171196810901165,0.013309055007994175
18640892018450,0.9349357485771179,-9.81024169921875,0.5027823448181152,0.0114457868039608,-0.0162370465695858,0.01357523538172245
18640893255512,0.8810662031173706,-9.81143856048584,0.4513070285320282,0.006122165359556675,-0.01836649514734745,0.0162370465695858
18640894492600,0.8583213090896606,-9.816226959228516,0.4345476031303406,0.0015970865497365594,-0.0186326764523983,0.013042873702943325
18640895729675,0.9181763529777527,-9.840168952941895,0.47884035110473633,0.0053236219100654125,-0.012776692397892475,0.012510511092841625
18640896966750,0.9145850539207458,-9.829395294189453,0.4297592043876648,0.007985432632267475,-0.01836649514734745,0.008783976547420025
18640898203812,0.912190854549408,-9.823410034179688,0.46327802538871765,0.0053236219100654125,-0.01783413253724575,0.01171196810901165
18640899440875,0.8942343592643738,-9.828198432922363,0.5027823448181152,0.008783976547420025,-0.0167694091796875,0.008251613937318325
18640900677962,0.9169792532920837,-9.819818496704102,0.44771572947502136,0.010647243820130825,-0.0228915736079216,0.01224433071911335
18640901915025,0.8990227580070496,-9.828198432922363,0.4596867263317108,0.01117960549890995,-0.0186326764523983,0.010913425125181675
18640903152112,0.889445960521698,-9.821015357971191,0.49799394607543945,0.007985432632267475,-0.013309055007994175,0.008783976547420025
18640904389162,0.9014169573783875,-9.854534149169922,0.4596867263317108,0.00958251953125,-0.01836649514734745,0.008783976547420025
18640905626250,0.8523358106613159,-9.865307807922363,0.48482584953308105,0.0077192517928779125,-0.01756795309484005,0.008783976547420025
18640906863300,0.889445960521698,-9.860519409179688,0.48243165016174316,0.013042873702943325,-0.0196974016726017,0.013042873702943325
18640908100387,0.8810662031173706,-9.829395294189453,0.48602294921875,0.008251613937318325,-0.02555338479578495,0.012776692397892475
18640909337462,0.8762778043746948,-9.798270225524902,0.52552729845047,0.0039927163161337376,-0.0191650390625,0.008517795242369175
18640910574537,0.9014169573783875,-9.822212219238281,0.5291185975074768,0.00984870083630085,-0.0196974016726017,0.0090501569211483
18640911811587,0.8559271097183228,-9.819818496704102,0.5171476006507874,0.01117960549890995,-0.0204959437251091,0.014373779296875
18640913048662,0.8822633624076843,-9.836577415466309,0.4884171485900879,0.010647243820130825,-0.01783413253724575,0.0114457868039608
18640914285725,0.8990227580070496,-9.874884605407715,0.4752490520477295,0.00984870083630085,-0.01836649514734745,0.0066545275039970875
18640915522812,0.8786720037460327,-9.84256362915039,0.4967968463897705,0.0090501569211483,-0.01783413253724575,0.00958251953125
18640916759887,0.8415619134902954,-9.830592155456543,0.4644751250743866,0.0077192517928779125,-0.01889885775744915,0.01224433071911335
18640917996962,0.871489405632019,-9.849745750427246,0.5123591423034668,0.0042588976211845875,-0.0220930315554142,0.01171196810901165
18640919234025,0.8439561128616333,-9.848548889160156,0.5051765441894531,0.006122165359556675,-0.02262539230287075,0.007453070487827063
18640920471087,0.8990227580070496,-9.84376049041748,0.4836287498474121,0.003460354171693325,-0.01783413253724575,0.00958251953125
18640921708162,0.8583213090896606,-9.850942611694336,0.5339069962501526,0.0077192517928779125,-0.01943122036755085,0.00958251953125
18640922945225,0.8643068075180054,-9.821015357971191,0.47884035110473633,0.004791259765625,-0.0191650390625,0.00958251953125
18640924182300,0.8810662031173706,-9.84256362915039,0.45010992884635925,0.0066545275039970875,-0.01836649514734745,0.015438503585755825
18640925419362,0.8451532125473022,-9.81263542175293,0.4441244304180145,0.0090501569211483,-0.0186326764523983,0.014906140975654125
18640926656437,0.871489405632019,-9.818621635437012,0.5015852451324463,0.0063883461989462376,-0.0138414166867733,0.013309055007994175
18640927893512,0.8738836050033569,-9.837775230407715,0.4537012279033661,0.0018632676219567657,-0.0173017717897892,0.01224433071911335
18640929130575,0.8427590131759644,-9.888052940368652,0.4944026470184326,0.003460354171693325,-0.01996358297765255,0.01171196810901165
18640930367662,0.8439561128616333,-9.819818496704102,0.5039794445037842,0.007453070487827063,-0.02315775491297245,0.015438503585755825
18640931604725,0.8188169598579407,-9.861717224121094,0.45489832758903503,0.005057440605014563,-0.0196974016726017,0.014373779296875
18640932841800,0.8858546614646912,-9.834183692932129,0.48243165016174316,0.0042588976211845875,-0.01943122036755085,0.0119781494140625
18640934078875,0.8834604620933533,-9.838972091674805,0.4752490520477295,0.007453070487827063,-0.0167694091796875,0.01410759799182415
18640935315962,0.8822633624076843,-9.830592155456543,0.456095427274704,0.005589802749454975,-0.02076212503015995,0.014373779296875
18640936553025,0.8475474119186401,-9.813833236694336,0.44532153010368347,0.0010647244052961469,-0.0191650390625,0.012510511092841625
18640937790087,0.8427590131759644,-9.860519409179688,0.45848962664604187,0.0026618109550327063,-0.014373779296875,0.00931633822619915
18640939027162,0.8619126081466675,-9.853337287902832,0.4967968463897705,0.005589802749454975,-0.01889885775744915,0.012776692397892475
18640940264225,0.8583213090896606,-9.836577415466309,0.4920084476470947,0.0031941730994731188,-0.01836649514734745,0.0090501569211483
18640941501300,0.8798691034317017,-9.841365814208984,0.4991910457611084,0.00452507846057415,-0.012776692397892475,0.010913425125181675
18640942738362,0.8918401598930359,-9.830592155456543,0.4944026470184326,0.0039927163161337376,-0.01357523538172245,0.0119781494140625
18640943975450,0.811634361743927,-9.803058624267578,0.4884171485900879,0.00452507846057415,-0.01943122036755085,0.0114457868039608
18640945212512,0.8475474119186401,-9.816226959228516,0.4944026470184326,0.008783976547420025,-0.02022976242005825,0.00931633822619915
18640946449587,0.8786720037460327,-9.813833236694336,0.48961424827575684,0.005855984054505825,-0.0162370465695858,0.01463996060192585
18640947686662,0.8870517611503601,-9.813833236694336,0.5351040959358215,0.0026618109550327063,-0.01756795309484005,0.01224433071911335
18640948923737,0.828393816947937,-9.818621635437012,0.4991910457611084,0.0029279920272529125,-0.01410759799182415,0.01171196810901165
18640950160800,0.829590916633606,-9.800664901733398,0.5051765441894531,0.006122165359556675,-0.0173017717897892,0.01224433071911335
18640951397862,0.8571242094039917,-9.835380554199219,0.5159504413604736,0.00452507846057415,-0.01889885775744915,0.010913425125181675
18640952634937,0.8738836050033569,-9.791088104248047,0.5327098965644836,0.00692070834338665,-0.01783413253724575,0.007985432632267475
18640953872000,0.8678981065750122,-9.780314445495605,0.4967968463897705,0.0071868896484375,-0.0167694091796875,0.0119781494140625
18640955109087,0.8391677141189575,-9.80904483795166,0.4668693244457245,0.0002661811013240367,-0.0162370465695858,0.0114457868039608
18640956346150,0.8403648138046265,-9.816226959228516,0.4620809257030487,0.005057440605014563,-0.014373779296875,0.008517795242369175
18640957583225,0.8379706144332886,-9.806650161743164,0.5111620426177979,0.004791259765625,-0.015172322280704975,0.0090501569211483
18640958820287,0.8475474119186401,-9.828198432922363,0.45489832758903503,0.0042588976211845875,-0.01224433071911335,0.008783976547420025
18640960057362,0.8523358106613159,-9.81263542175293,0.4572925269603729,0.0023956298828125,-0.010913425125181675,0.0090501569211483
18640961294425,0.8439561128616333,-9.804256439208984,0.4596867263317108,0.008251613937318325,-0.010913425125181675,0.008251613937318325
18640962531512,0.8619126081466675,-9.798270225524902,0.48243165016174316,0.00692070834338665,-0.015438503585755825,0.0007985432748682797
18640963768587,0.8762778043746948,-9.795876502990723,0.45489832758903503,0.00692070834338665,-0.0138414166867733,0.004791259765625
18640965005625,0.8870517611503601,-9.781511306762695,0.4944026470184326,0.0077192517928779125,-0.01410759799182415,0.008517795242369175
18640966242725,0.8750807046890259,-9.804256439208984,0.4800374507904053,0.005589802749454975,-0.012776692397892475,0.0066545275039970875
18640967479812,0.8667010068893433,-9.818621635437012,0.45250412821769714,0.010381062515079975,-0.012776692397892475,0.012510511092841625
18640968716862,0.8343793153762817,-9.792284965515137,0.4345476031303406,0.01224433071911335,-0.013042873702943325,0.013042873702943325
18640969953937,0.8619126081466675,-9.795876502990723,0.5207388997077942,0.007453070487827063,-0.013309055007994175,0.0114457868039608
18640971191000,0.8619126081466675,-9.819818496704102,0.48722004890441895,0.010381062515079975,-0.01357523538172245,0.010913425125181675
18640972428100,0.8056488633155823,-9.819818496704102,0.4465186297893524,0.0039927163161337376,-0.00958251953125,0.00931633822619915
18640973665150,0.7936778664588928,-9.819818496704102,0.45489832758903503,0.010381062515079975,-0.0071868896484375,0.008251613937318325
18640974902237,0.8475474119186401,-9.821015357971191,0.4620809257030487,0.013309055007994175,-0.00931633822619915,0.007985432632267475
18640976139287,0.8259996175765991,-9.81024169921875,0.47884035110473633,0.010647243820130825,-0.0077192517928779125,0.0053236219100654125
18640977376362,0.8056488633155823,-9.816226959228516,0.5027823448181152,0.013042873702943325,-0.008251613937318325,0.014906140975654125
18640978613425,0.8236054182052612,-9.855731010437012,0.4836287498474121,0.007985432632267475,-0.010114881210029125,0.014373779296875
18640979850500,0.8248025178909302,-9.835380554199219,0.4884171485900879,0.005855984054505825,-0.004791259765625,0.01117960549890995
18640981087575,0.8367735147476196,-9.841365814208984,0.48482584953308105,0.01117960549890995,-0.01117960549890995,0.010647243820130825
18640982324650,0.8092401623725891,-9.823410034179688,0.4991910457611084,0.01224433071911335,-0.008251613937318325,0.007985432632267475
18640983561700,0.8200140595436096,-9.853337287902832,0.4704606235027313,0.0090501569211483,-0.005589802749454975,0.0090501569211483
18640984798775,0.8080430626869202,-9.882067680358887,0.4812345504760742,0.010647243820130825,-0.01224433071911335,0.007985432632267475
18640986035850,0.8367735147476196,-9.84256362915039,0.5159504413604736,0.0090501569211483,-0.0053236219100654125,0.0066545275039970875
18640987272937,0.8379706144332886,-9.830592155456543,0.48482584953308105,0.010647243820130825,0.0023956298828125,0.010913425125181675
18640988510000,0.8259996175765991,-9.852140426635742,0.45489832758903503,0.005589802749454975,-0.00692070834338665,0.0015970865497365594
18640989747087,0.851138710975647,-9.888052940368652,0.4668693244457245,0.00452507846057415,-0.0066545275039970875,0.0053236219100654125
18640990984162,0.8463503122329712,-9.864110946655273,0.4800374507904053,0.0090501569211483,-0.0053236219100654125,0.006122165359556675
18640992221237,0.8200140595436096,-9.850942611694336,0.4668693244457245,0.0119781494140625,-0.0066545275039970875,0.0026618109550327063
18640993458287,0.8008604645729065,-9.831789016723633,0.45489832758903503,0.01171196810901165,-0.0090501569211483,0.00692070834338665
18640994695375,0.8403648138046265,-9.882067680358887,0.47165775299072266,0.008783976547420025,-0.005855984054505825,0.008517795242369175
18640995932437,0.8655039072036743,-9.876082420349121,0.4596867263317108,0.008251613937318325,-0.006122165359556675,0.00692070834338665
18640997169500,0.8343793153762817,-9.84495735168457,0.4381389021873474,0.0063883461989462376,-0.0063883461989462376,0.0119781494140625
18640998406575,0.7972691655158997,-9.831789016723633,0.46567222476005554,0.00984870083630085,-0.0023956298828125,0.0167694091796875
18640999643662,0.8463503122329712,-9.847352027893066,0.48722004890441895,0.010647243820130825,-0.0021294488105922937,0.007985432632267475
18641000880712,0.8343793153762817,-9.856928825378418,0.4776432514190674,0.008251613937318325,-0.0037265352439135313,0.0053236219100654125
18641002117787,0.8571242094039917,-9.829395294189453,0.47165775299072266,0.005589802749454975,0.0007985432748682797,0.00958251953125
18641003354875,0.871489405632019,-9.80904483795166,0.5015852451324463,0.010647243820130825,0.0023956298828125,0.00931633822619915
18641004591925,0.8595184087753296,-9.80904483795166,0.4752490520477295,0.005589802749454975,0.0015970865497365594,0.004791259765625
18641005829000,0.8667010068893433,-9.823410034179688,0.4944026470184326,0.005589802749454975,0.0037265352439135313,0.0053236219100654125
18641007066075,0.8259996175765991,-9.803058624267578,0.4644751250743866,0.0071868896484375,0.0005323622026480734,0.0119781494140625
18641008303137,0.8164227604866028,-9.797073364257812,0.50876784324646,0.0077192517928779125,-0.0005323622026480734,0.010647243820130825
18641009540225,0.8271967172622681,-9.789891242980957,0.45250412821769714,0.00958251953125,-0.004791259765625,0.0119781494140625
18641010777287,0.8307880163192749,-9.795876502990723,0.4836287498474121,0.0090501569211483,0.0015970865497365594,0.00452507846057415
18641012014350,0.811634361743927,-9.825803756713867,0.4884171485900879,0.012510511092841625,0.0029279920272529125,0.005589802749454975
18641013251425,0.8367735147476196,-9.816226959228516,0.49799394607543945,0.010913425125181675,0.0031941730994731188,0.004791259765625
18641014488500,0.8068459630012512,-9.795876502990723,0.48722004890441895,0.00958251953125,0.0023956298828125,0.005589802749454975
18641015725575,0.8140285611152649,-9.770737648010254,0.48961424827575684,0.01171196810901165,-0.0002661811013240367,0.006122165359556675
18641016962637,0.8259996175765991,-9.78869342803955,0.4812345504760742,0.01171196810901165,-0.0002661811013240367,0.007985432632267475
18641018199712,0.8140285611152649,-9.789891242980957,0.45250412821769714,0.008783976547420025,0.0029279920272529125,0.005855984054505825
18641019436787,0.8547300100326538,-9.803058624267578,0.4836287498474121,0.00958251953125,0.0023956298828125,0.0026618109550327063
18641020673875,0.828393816947937,-9.783905029296875,0.5147533416748047,0.008517795242369175,0.0018632676219567657,0.005589802749454975
18641021910925,0.811634361743927,-9.824606895446777,0.47644615173339844,0.008251613937318325,0.0021294488105922937,0.005589802749454975
18641023148000,0.8379706144332886,-9.813833236694336,0.47884035110473633,0.00958251953125,0.0031941730994731188,0.007985432632267475
18641024385062,0.8535329103469849,-9.785102844238281,0.4884171485900879,0.010381062515079975,0.0039927163161337376,0.0023956298828125
18641025622125,0.8547300100326538,-9.797073364257812,0.4572925269603729,0.01463996060192585,0.0063883461989462376,0.0005323622026480734
18641026859212,0.8259996175765991,-9.77552604675293,0.4991910457611084,0.02182685025036335,0.00692070834338665,0.0071868896484375
18641028096300,0.8427590131759644,-9.783905029296875,0.5147533416748047,0.01756795309484005,0.005855984054505825,0.00452507846057415
18641029333362,0.8523358106613159,-9.794679641723633,0.4884171485900879,0.012776692397892475,0.005057440605014563,0.0039927163161337376
18641030570425,0.8415619134902954,-9.791088104248047,0.50876784324646,0.01357523538172245,0.0071868896484375,0.005589802749454975
18641031807512,0.8631097078323364,-9.835380554199219,0.4944026470184326,0.0138414166867733,0.00958251953125,0.00931633822619915
18641033044562,0.8607155084609985,-9.849745750427246,0.48482584953308105,0.0181003138422966,0.0114457868039608,0.0077192517928779125
18641034281637,0.8331822156906128,-9.822212219238281,0.4572925269603729,0.0157046839594841,0.0053236219100654125,0.0090501569211483
18641035518712,0.8834604620933533,-9.81143856048584,0.4776432514190674,0.01756795309484005,0.005057440605014563,0.010913425125181675
18641036755775,0.8367735147476196,-9.832986831665039,0.44532153010368347,0.012510511092841625,0.01117960549890995,0.0071868896484375
18641037992862,0.8547300100326538,-9.823410034179688,0.4704606235027313,0.00958251953125,0.013309055007994175,0.008783976547420025
18641039229900,0.8607155084609985,-9.847352027893066,0.48243165016174316,0.01650322787463665,0.00958251953125,0.008251613937318325
18641040466987,0.8343793153762817,-9.84495735168457,0.46088382601737976,0.0181003138422966,0.00692070834338665,0.005589802749454975
18641041704062,0.828393816947937,-9.838972091674805,0.4776432514190674,0.01783413253724575,0.007453070487827063,0.010381062515079975
18641042941125,0.8631097078323364,-9.836577415466309,0.4884171485900879,0.01783413253724575,0.008783976547420025,0.008783976547420025
18641044178225,0.851138710975647,-9.830592155456543,0.5267243981361389,0.0162370465695858,0.00958251953125,0.006122165359556675
18641045415275,0.8092401623725891,-9.798270225524902,0.4489128291606903,0.01597086526453495,0.00931633822619915,0.007453070487827063
18641046652337,0.8307880163192749,-9.829395294189453,0.4644751250743866,0.01889885775744915,0.005589802749454975,0.0090501569211483
18641047889412,0.8427590131759644,-9.822212219238281,0.48722004890441895,0.01836649514734745,0.006122165359556675,0.0090501569211483
18641049126487,0.8535329103469849,-9.816226959228516,0.5003881454467773,0.01783413253724575,0.0053236219100654125,0.010913425125181675
18641050363550,0.8439561128616333,-9.81263542175293,0.4489128291606903,0.014906140975654125,0.008251613937318325,0.00958251953125
18641051600625,0.8439561128616333,-9.831789016723633,0.43095630407333374,0.0157046839594841,0.0173017717897892,0.005057440605014563
18641052837700,0.8619126081466675,-9.818621635437012,0.4644751250743866,0.01996358297765255,0.01463996060192585,0.005589802749454975
18641054074775,0.8667010068893433,-9.81024169921875,0.4944026470184326,0.0196974016726017,0.01357523538172245,0.003460354171693325
18641055311862,0.889445960521698,-9.771934509277344,0.4668693244457245,0.0181003138422966,0.0119781494140625,0.0013309054775163531
18641056548912,0.8750807046890259,-9.821015357971191,0.48602294921875,0.0204959437251091,0.013042873702943325,0.003460354171693325
18641057786000,0.8379706144332886,-9.823410034179688,0.48482584953308105,0.012776692397892475,0.0167694091796875,0.0053236219100654125
18641059023075,0.8810662031173706,-9.828198432922363,0.4620809257030487,0.0162370465695858,0.0114457868039608,0.0071868896484375
18641060260137,0.8331822156906128,-9.84256362915039,0.49799394607543945,0.0157046839594841,0.010381062515079975,0.0053236219100654125
18641061497200,0.8451532125473022,-9.827000617980957,0.4776432514190674,0.01597086526453495,0.014373779296875,0.0018632676219567657
18641062734262,0.8236054182052612,-9.859322547912598,0.47165775299072266,0.01410759799182415,0.015438503585755825,0.0021294488105922937
18641063971337,0.8224083185195923,-9.838972091674805,0.4644751250743866,0.012510511092841625,0.01357523538172245,0.005589802749454975
18641065208400,0.8379706144332886,-9.832986831665039,0.5159504413604736,0.0167694091796875,0.013042873702943325,0.0031941730994731188
18641066445487,0.8559271097183228,-9.815030097961426,0.4345476031303406,0.0186326764523983,0.01650322787463665,-0.0007985432748682797
18641067682562,0.8834604620933533,-9.849745750427246,0.4836287498474121,0.0173017717897892,0.0157046839594841,0.0005323622026480734
18641068919612,0.8559271097183228,-9.860519409179688,0.47884035110473633,0.01410759799182415,0.0162370465695858,-0.0002661811013240367
18641070156712,0.8798691034317017,-9.852140426635742,0.4752490520477295,0.01117960549890995,0.0138414166867733,-0.0021294488105922937
18641071393787,0.8870517611503601,-9.847352027893066,0.4345476031303406,0.01410759799182415,0.01597086526453495,-0.0010647244052961469
18641072630862,0.8307880163192749,-9.835380554199219,0.45848962664604187,0.0162370465695858,0.0167694091796875,-0.0005323622026480734
18641073867912,0.8451532125473022,-9.838972091674805,0.5351040959358215,0.01703559048473835,0.013042873702943325,0.0002661811013240367
18641075105000,0.8355764150619507,-9.87967300415039,0.5015852451324463,0.01836649514734745,0.015438503585755825,-0.0029279920272529125
18641076342062,0.8655039072036743,-9.838972091674805,0.4920084476470947,0.012510511092841625,0.0157046839594841,-0.0015970865497365594
18641077579137,0.8667010068893433,-9.890447616577148,0.46567222476005554,0.012776692397892475,0.0138414166867733,-0.0010647244052961469
18641078816200,0.849941611289978,-9.847352027893066,0.5015852451324463,0.012510511092841625,0.01836649514734745,-0.0015970865497365594
18641080053275,0.828393816947937,-9.874884605407715,0.46088382601737976,0.013042873702943325,0.01463996060192585,0.0002661811013240367
18641081290362,0.8379706144332886,-9.829395294189453,0.4537012279033661,0.01171196810901165,0.0138414166867733,-0.005057440605014563
18641082527425,0.8391677141189575,-9.914389610290527,0.5363011956214905,0.01357523538172245,0.015438503585755825,-0.0053236219100654125
18641083764487,0.8631097078323364,-9.850942611694336,0.46327802538871765,0.015172322280704975,0.01357523538172245,0.0010647244052961469
18641085001562,0.9050082564353943,-9.895236015319824,0.5374982953071594,0.015438503585755825,0.013042873702943325,-0.0031941730994731188
18641086238625,0.8559271097183228,-9.888052940368652,0.524330198764801,0.01224433071911335,0.0186326764523983,-0.004791259765625
18641087475700,0.8403648138046265,-9.883264541625977,0.5518634915351868,0.008517795242369175,0.0162370465695858,-0.0031941730994731188
18641088712787,0.9074024558067322,-9.891644477844238,0.5039794445037842,0.012776692397892475,0.0162370465695858,-0.0002661811013240367
18641089949837,0.9074024558067322,-9.889249801635742,0.5446808934211731,0.01224433071911335,0.012776692397892475,-0.0018632676219567657
18641091186912,0.8990227580070496,-9.849745750427246,0.49799394607543945,0.006122165359556675,0.013042873702943325,-0.007453070487827063
18641092423987,0.8822633624076843,-9.889249801635742,0.4465186297893524,0.010913425125181675,0.01171196810901165,-0.005589802749454975
18641093661075,0.8942343592643738,-9.928754806518555,0.4920084476470947,0.012776692397892475,0.015438503585755825,-0.004791259765625
18641094898137,0.9145850539207458,-9.86650562286377,0.49799394607543945,0.0077192517928779125,0.013309055007994175,-0.0053236219100654125
18641096135200,0.8918401598930359,-9.909601211547852,0.5351040959358215,0.0010647244052961469,0.0167694091796875,-0.008783976547420025
18641097372262,0.871489405632019,-9.914389610290527,0.48722004890441895,0.0114457868039608,0.0186326764523983,-0.005855984054505825
18641098609350,0.8750807046890259,-9.916783332824707,0.524330198764801,0.008517795242369175,0.02262539230287075,-0.0071868896484375
18641099846425,0.8690952062606812,-9.890447616577148,0.5147533416748047,0.00692070834338665,0.0162370465695858,-0.01224433071911335
18641101083500,0.8858546614646912,-9.86889934539795,0.5015852451324463,0.0039927163161337376,0.01224433071911335,-0.010114881210029125
18641102320562,0.8810662031173706,-9.86889934539795,0.4908113479614258,0.0013309054775163531,0.01357523538172245,-0.005589802749454975
18641103557637,0.8978256583213806,-9.913191795349121,0.4908113479614258,0.0039927163161337376,0.01597086526453495,-0.005589802749454975
18641104794712,0.8834604620933533,-9.922768592834473,0.4776432514190674,0.005057440605014563,0.01117960549890995,-0.00692070834338665
18641106031762,0.889445960521698,-9.860519409179688,0.524330198764801,0.0053236219100654125,0.012776692397892475,-0.01410759799182415
18641107268837,0.8583213090896606,-9.870096206665039,0.5339069962501526,-0.0002661811013240367,0.01650322787463665,-0.00931633822619915
18641108505925,0.8990227580070496,-9.841365814208984,0.5303156971931458,0.0010647244052961469,0.012510511092841625,-0.0023956298828125
18641109742987,0.9133879542350769,-9.855731010437012,0.5267243981361389,-0.0015970865497365594,0.01836649514734745,-0.0090501569211483
18641110980075,0.8846575617790222,-9.882067680358887,0.49559974670410156,0.0037265352439135313,0.015172322280704975,-0.01410759799182415
18641112217125,0.8786720037460327,-9.84376049041748,0.45010992884635925,-0.0013309054775163531,0.01783413253724575,-0.0119781494140625
18641113454212,0.872686505317688,-9.84376049041748,0.48961424827575684,-0.0010647244052961469,0.0181003138422966,-0.008783976547420025
18641114691275,0.8774749040603638,-9.850942611694336,0.524330198764801,0.0037265352439135313,0.01463996060192585,-0.012510511092841625
18641115928337,0.8690952062606812,-9.823410034179688,0.5363011956214905,-0.0010647244052961469,0.01597086526453495,-0.013309055007994175
18641117165425,0.9169792532920837,-9.853337287902832,0.5207388997077942,0.005057440605014563,0.014373779296875,-0.010913425125181675
18641118402487,0.8571242094039917,-9.816226959228516,0.49799394607543945,0.003460354171693325,0.014373779296875,-0.00931633822619915
18641119639537,0.8846575617790222,-9.824606895446777,0.45848962664604187,-0.0010647244052961469,0.010647243820130825,-0.00984870083630085
18641120876637,0.8762778043746948,-9.829395294189453,0.47884035110473633,0.0005323622026480734,0.0119781494140625,-0.01117960549890995
18641122113725,0.8870517611503601,-9.84495735168457,0.47405195236206055,-0.0026618109550327063,0.014373779296875,-0.010381062515079975
18641123350775,0.9014169573783875,-9.854534149169922,0.5231330990791321,-0.0013309054775163531,0.012510511092841625,-0.010381062515079975
18641124587850,0.8547300100326538,-9.835380554199219,0.5099649429321289,0.0010647244052961469,0.01224433071911335,-0.013042873702943325
18641125824912,0.9097966551780701,-9.852140426635742,0.47884035110473633,-0.003460354171693325,0.014373779296875,-0.012776692397892475
18641127061987,0.9253589510917664,-9.84615421295166,0.4920084476470947,0.0002661811013240367,0.010913425125181675,-0.010114881210029125
18641128299062,0.9074024558067322,-9.891644477844238,0.4776432514190674,0.0,0.01357523538172245,-0.010381062515079975
18641129536137,0.9133879542350769,-9.84615421295166,0.50876784324646,-0.003460354171693325,0.014373779296875,-0.01410759799182415
18641130773212,0.9014169573783875,-9.84256362915039,0.5051765441894531,-0.0037265352439135313,0.0114457868039608,-0.01357523538172245
18641132010275,0.8834604620933533,-9.84376049041748,0.47405195236206055,-0.0026618109550327063,0.010647243820130825,-0.01410759799182415
18641133247337,0.910993754863739,-9.852140426635742,0.5267243981361389,-0.0015970865497365594,0.013309055007994175,-0.01410759799182415
18641134484425,0.9253589510917664,-9.853337287902832,0.5219359993934631,0.0007985432748682797,0.02369011752307415,-0.015438503585755825
18641135721487,0.9014169573783875,-9.861717224121094,0.4812345504760742,-0.0037265352439135313,0.015172322280704975,-0.01410759799182415
18641136958562,0.9181763529777527,-9.888052940368652,0.4884171485900879,0.0,0.0077192517928779125,-0.0066545275039970875
18641138195625,0.9026140570640564,-9.838972091674805,0.5015852451324463,0.003460354171693325,0.010913425125181675,-0.005855984054505825
18641139432675,0.9241618514060974,-9.859322547912598,0.4704606235027313,-0.0013309054775163531,0.010913425125181675,-0.008517795242369175
18641140669787,0.9229647517204285,-9.84615421295166,0.43095630407333374,0.0015970865497365594,0.0138414166867733,-0.0119781494140625
18641141906837,0.888248860836029,-9.855731010437012,0.5267243981361389,0.0013309054775163531,0.010381062515079975,-0.012510511092841625
18641143143912,0.9253589510917664,-9.847352027893066,0.4513070285320282,0.0013309054775163531,0.0114457868039608,-0.01117960549890995
18641144381000,0.912190854549408,-9.798270225524902,0.4752490520477295,-0.0005323622026480734,0.010913425125181675,-0.010381062515079975
18641145618062,0.8918401598930359,-9.80904483795166,0.48961424827575684,-0.0026618109550327063,0.007453070487827063,-0.007453070487827063
18641146855137,0.9002198576927185,-9.817423820495605,0.45010992884635925,0.0005323622026480734,0.0071868896484375,-0.005057440605014563
18641148092200,0.9145850539207458,-9.880870819091797,0.456095427274704,0.0039927163161337376,0.007453070487827063,-0.00958251953125
18641149329275,0.8786720037460327,-9.785102844238281,0.44532153010368347,0.0021294488105922937,0.0071868896484375,-0.013042873702943325
18641150566350,0.912190854549408,-9.817423820495605,0.42856210470199585,-0.0010647244052961469,0.008783976547420025,-0.00931633822619915
18641151803425,0.8966285586357117,-9.827000617980957,0.48722004890441895,0.0013309054775163531,0.008517795242369175,-0.0138414166867733
18641153040487,0.8990227580070496,-9.81024169921875,0.4944026470184326,-0.0007985432748682797,0.00984870083630085,-0.014373779296875
18641154277562,0.9469068050384521,-9.768342971801758,0.4728548526763916,-0.00452507846057415,0.007985432632267475,-0.0071868896484375
18641155514637,0.9373299479484558,-9.782708168029785,0.50876784324646,0.0029279920272529125,0.010647243820130825,-0.00452507846057415
18641156751700,0.9301473498344421,-9.793481826782227,0.4800374507904053,0.0039927163161337376,0.013309055007994175,-0.00452507846057415
18641157988775,0.9349357485771179,-9.789891242980957,0.48243165016174316,0.0010647244052961469,0.0071868896484375,-0.005589802749454975
18641159225850,0.9409212470054626,-9.798270225524902,0.424970805644989,0.0002661811013240367,0.01224433071911335,-0.0138414166867733
18641160462925,0.9026140570640564,-9.801861763000488,0.4812345504760742,0.005589802749454975,0.01463996060192585,-0.0077192517928779125
18641161699987,0.9624691009521484,-9.765949249267578,0.4884171485900879,0.0021294488105922937,0.01117960549890995,-0.005855984054505825
18641162937062,0.9552865028381348,-9.801861763000488,0.4991910457611084,0.0042588976211845875,0.010647243820130825,-0.006122165359556675
18641164174150,0.9516952037811279,-9.815030097961426,0.47884035110473633,0.006122165359556675,0.007453070487827063,-0.005589802749454975
18641165411187,0.9445126056671143,-9.794679641723633,0.5027823448181152,0.0007985432748682797,0.00931633822619915,-0.008517795242369175
18641166648275,0.9169792532920837,-9.807847023010254,0.4991910457611084,0.008251613937318325,0.0090501569211483,-0.004791259765625
18641167885350,0.9253589510917664,-9.823410034179688,0.5039794445037842,0.00958251953125,0.007453070487827063,-0.0066545275039970875
18641169122412,0.9385270476341248,-9.792284965515137,0.4572925269603729,0.006122165359556675,0.0039927163161337376,-0.00452507846057415
18641170359500,0.8822633624076843,-9.795876502990723,0.4776432514190674,0.007453070487827063,0.00692070834338665,-0.005589802749454975
18641171596562,0.9253589510917664,-9.787496566772461,0.45848962664604187,0.012510511092841625,0.010114881210029125,-0.0026618109550327063
18641172833625,0.9002198576927185,-9.81143856048584,0.4836287498474121,0.010114881210029125,0.0114457868039608,-0.0063883461989462376
18641174070700,0.8930372595787048,-9.75278091430664,0.4345476031303406,0.00931633822619915,0.008251613937318325,-0.005855984054505825
18641175307775,0.9289502501487732,-9.792284965515137,0.48482584953308105,0.006122165359556675,0.0063883461989462376,-0.00452507846057415
18641176544837,0.9564836025238037,-9.77672290802002,0.5111620426177979,0.0026618109550327063,0.00452507846057415,-0.0039927163161337376
18641177781912,0.9397241473197937,-9.801861763000488,0.47644615173339844,0.010381062515079975,0.0063883461989462376,-0.005057440605014563
18641179019000,0.9193734526634216,-9.813833236694336,0.47405195236206055,0.010114881210029125,0.00452507846057415,-0.010647243820130825
18641180256062,0.9540894031524658,-9.799468040466309,0.4908113479614258,0.008251613937318325,0.00692070834338665,-0.0026618109550327063
18641181493137,0.9169792532920837,-9.81024169921875,0.4944026470184326,0.0090501569211483,0.010114881210029125,-0.0023956298828125
18641182730200,0.9397241473197937,-9.805453300476074,0.4920084476470947,0.00984870083630085,0.0042588976211845875,-0.0018632676219567657
18641183967287,0.9241618514060974,-9.746795654296875,0.4812345504760742,0.0114457868039608,0.0039927163161337376,-0.005589802749454975
18641185204362,0.9840168952941895,-9.815030097961426,0.5003881454467773,0.01410759799182415,0.0063883461989462376,-0.00984870083630085
18641186441412,0.9145850539207458,-9.758766174316406,0.4668693244457245,0.01117960549890995,0.003460354171693325,-0.0026618109550327063
18641187678487,0.9588778018951416,-9.767146110534668,0.4920084476470947,0.01597086526453495,0.0029279920272529125,0.0002661811013240367
18641188915575,0.9780313968658447,-9.769539833068848,0.4884171485900879,0.0114457868039608,0.0063883461989462376,-0.004791259765625
18641190152625,0.9349357485771179,-9.75397777557373,0.5159504413604736,0.01224433071911335,0.006122165359556675,-0.00958251953125
18641191389700,0.9481039047241211,-9.817423820495605,0.5003881454467773,0.012776692397892475,0.0063883461989462376,-0.005855984054505825
18641192626762,0.9636662006378174,-9.783905029296875,0.5027823448181152,0.0138414166867733,0.00452507846057415,-0.0066545275039970875
18641193863850,0.9469068050384521,-9.750386238098145,0.49799394607543945,0.0186326764523983,0.005057440605014563,-0.0031941730994731188
18641195100912,0.9516952037811279,-9.767146110534668,0.4644751250743866,0.0191650390625,0.006122165359556675,-0.0066545275039970875
18641196337987,0.9528923034667969,-9.792284965515137,0.4596867263317108,0.0173017717897892,0.00692070834338665,-0.005855984054505825
18641197575050,0.9373299479484558,-9.77791976928711,0.4513070285320282,0.01943122036755085,0.0029279920272529125,-0.0037265352439135313
18641198812150,0.9253589510917664,-9.77672290802002,0.5123591423034668,0.0204959437251091,0.0031941730994731188,-0.0018632676219567657
18641200049200,0.9205705523490906,-9.732430458068848,0.4944026470184326,0.01703559048473835,0.0021294488105922937,-0.0042588976211845875
18641201286275,0.9181763529777527,-9.747992515563965,0.47884035110473633,0.02182685025036335,-0.0023956298828125,-0.003460354171693325
18641202523325,0.9313444495201111,-9.762357711791992,0.4812345504760742,0.0210283063352108,-0.0013309054775163531,-0.0071868896484375
18641203760412,0.9301473498344421,-9.792284965515137,0.5003881454467773,0.0228915736079216,0.0018632676219567657,-0.0071868896484375
18641204997487,0.9361328482627869,-9.765949249267578,0.48961424827575684,0.0204959437251091,0.0023956298828125,-0.004791259765625
18641206234575,0.9457097053527832,-9.77552604675293,0.4908113479614258,0.02315775491297245,-0.0007985432748682797,-0.008251613937318325
18641207471637,0.933738648891449,-9.793481826782227,0.47884035110473633,0.0244886614382267,-0.0010647244052961469,-0.01117960549890995
18641208708712,0.9217676520347595,-9.77552604675293,0.5039794445037842,0.02076212503015995,0.0021294488105922937,-0.010381062515079975
18641209945787,0.9648633003234863,-9.789891242980957,0.5339069962501526,0.0196974016726017,0.007985432632267475,-0.0090501569211483
18641211182850,0.9421183466911316,-9.769539833068848,0.5147533416748047,0.02315775491297245,0.005057440605014563,-0.006122165359556675
18641212419925,0.9624691009521484,-9.77791976928711,0.4908113479614258,0.02262539230287075,0.0037265352439135313,-0.00984870083630085
18641213657012,0.9349357485771179,-9.77791976928711,0.4668693244457245,0.02315775491297245,0.003460354171693325,-0.0071868896484375
18641214894062,0.9564836025238037,-9.80904483795166,0.5123591423034668,0.02661811001598835,0.0015970865497365594,-0.0015970865497365594
18641216131137,0.9397241473197937,-9.821015357971191,0.4776432514190674,0.023956298828125,-0.0002661811013240367,-0.005057440605014563
18641217368212,0.9169792532920837,-9.77791976928711,0.47644615173339844,0.0268842913210392,-0.0007985432748682797,0.0
18641218605287,0.9636662006378174,-9.762357711791992,0.5063736438751221,0.02369011752307415,-0.0015970865497365594,0.0018632676219567657
18641219842350,0.9576807022094727,-9.805453300476074,0.5123591423034668,0.02369011752307415,0.0010647244052961469,-0.007985432632267475
18641221079425,0.9552865028381348,-9.816226959228516,0.49559974670410156,0.02901373989880085,-0.0042588976211845875,-0.007453070487827063
18641222316462,0.93254154920578,-9.787496566772461,0.5123591423034668,0.03087700717151165,-0.0021294488105922937,-0.0037265352439135313
18641223553562,0.9445126056671143,-9.77672290802002,0.5291185975074768,0.02874755859375,0.0007985432748682797,-0.0053236219100654125
18641224790637,0.9373299479484558,-9.78869342803955,0.507570743560791,0.0295461006462574,0.0013309054775163531,-0.005057440605014563
18641226027712,0.9277531504631042,-9.80904483795166,0.5398924946784973,0.0322079136967659,-0.005855984054505825,-0.007453070487827063
18641227264775,0.9241618514060974,-9.795876502990723,0.569819986820221,0.0324740931391716,-0.0015970865497365594,-0.0039927163161337376
18641228501850,0.9421183466911316,-9.789891242980957,0.4920084476470947,0.02981228195130825,0.0023956298828125,-0.00452507846057415
18641229738925,0.9756371974945068,-9.773131370544434,0.49320554733276367,0.0300784632563591,0.0023956298828125,-0.005057440605014563
18641230975987,0.9481039047241211,-9.759963035583496,0.5674257874488831,0.033272635191679,-0.0010647244052961469,-0.0063883461989462376
18641232213050,0.9217676520347595,-9.771934509277344,0.5135562419891357,0.0362006276845932,-0.0015970865497365594,-0.0066545275039970875
18641233450125,0.9816226959228516,-9.805453300476074,0.4908113479614258,0.0362006276845932,-0.0018632676219567657,-0.0029279920272529125
18641234687212,0.9313444495201111,-9.786299705505371,0.5374982953071594,0.02794901467859745,0.0,-0.0042588976211845875
18641235924287,0.9481039047241211,-9.780314445495605,0.5554547905921936,0.0319417305290699,-0.0029279920272529125,-0.0066545275039970875
18641237161362,0.9744400978088379,-9.757569313049316,0.507570743560791,0.0330064557492733,-0.0031941730994731188,-0.0119781494140625
18641238398425,0.9744400978088379,-9.789891242980957,0.5363011956214905,0.0364668108522892,-0.0005323622026480734,-0.0077192517928779125
18641239635487,0.9301473498344421,-9.81024169921875,0.5015852451324463,0.0351359061896801,0.0031941730994731188,-0.0071868896484375
18641240872550,0.910993754863739,-9.791088104248047,0.5099649429321289,0.0415242500603199,0.0007985432748682797,-0.0037265352439135313
18641242109637,0.9469068050384521,-9.831789016723633,0.5530605912208557,0.0364668108522892,-0.0023956298828125,-0.0039927163161337376
18641243346712,0.9672574996948242,-9.81263542175293,0.5410895943641663,0.0348697230219841,-0.0071868896484375,-0.005855984054505825
18641244583775,0.9469068050384521,-9.797073364257812,0.5267243981361389,0.042855154722929,-0.0063883461989462376,-0.010647243820130825
18641245820850,0.9229647517204285,-9.793481826782227,0.524330198764801,0.0396609827876091,-0.004791259765625,-0.0090501569211483
18641247057925,0.9600749015808105,-9.858125686645508,0.5267243981361389,0.0356682650744915,-0.005057440605014563,-0.0042588976211845875
18641248294987,0.9385270476341248,-9.828198432922363,0.5219359993934631,0.0369991734623909,-0.0090501569211483,-0.0026618109550327063
18641249532087,0.8990227580070496,-9.787496566772461,0.545877993106842,0.0364668108522892,-0.0071868896484375,-0.005589802749454975
18641250769112,0.9265560507774353,-9.806650161743164,0.5518634915351868,0.0391286201775074,-0.004791259765625,-0.0021294488105922937
18641252006200,0.9277531504631042,-9.86650562286377,0.5315127968788147,0.0396609827876091,-0.0031941730994731188,-0.0039927163161337376
18641253243287,0.9361328482627869,-9.86889934539795,0.5147533416748047,0.0409918874502182,-0.008251613937318325,-0.0042588976211845875
18641254480350,0.9361328482627869,-9.837775230407715,0.5363011956214905,0.0354020856320858,-0.00984870083630085,-0.010114881210029125
18641255717437,0.9301473498344421,-9.848548889160156,0.5554547905921936,0.0404595248401165,-0.012510511092841625,-0.005589802749454975
18641256954512,0.9648633003234863,-9.815030097961426,0.5614402890205383,0.038063894957304,-0.010913425125181675,-0.0063883461989462376
18641258191575,0.9564836025238037,-9.817423820495605,0.5398924946784973,0.042855154722929,-0.010913425125181675,-0.0029279920272529125
18641259428625,0.9373299479484558,-9.870096206665039,0.5374982953071594,0.038330078125,-0.0090501569211483,-0.0039927163161337376
18641260665725,0.9085995554924011,-9.852140426635742,0.5351040959358215,0.0396609827876091,-0.0039927163161337376,-0.00692070834338665
18641261902787,0.9624691009521484,-9.840168952941895,0.5650315880775452,0.0433875173330307,-0.008517795242369175,-0.003460354171693325
18641263139862,0.933738648891449,-9.882067680358887,0.5446808934211731,0.038063894957304,-0.0090501569211483,-0.00452507846057415
18641264376925,0.9277531504631042,-9.861717224121094,0.5482721924781799,0.0369991734623909,-0.00692070834338665,-0.01117960549890995
18641265614025,0.9205705523490906,-9.817423820495605,0.545877993106842,0.0356682650744915,-0.0015970865497365594,-0.0042588976211845875
18641266851087,0.9229647517204285,-9.84376049041748,0.5626373887062073,0.0385962575674057,-0.0053236219100654125,0.0005323622026480734
18641268088150,0.9062053561210632,-9.819818496704102,0.5339069962501526,0.0423227921128273,-0.0063883461989462376,-0.0015970865497365594
18641269325200,0.9457097053527832,-9.818621635437012,0.5793968439102173,0.0401933453977108,-0.00958251953125,0.0
18641270562287,0.9588778018951416,-9.874884605407715,0.5602431893348694,0.0412580706179142,-0.00931633822619915,-0.0015970865497365594
18641271799362,0.9181763529777527,-9.848548889160156,0.5339069962501526,0.0423227921128273,-0.005057440605014563,-0.0013309054775163531
18641273036425,0.9481039047241211,-9.838972091674805,0.5135562419891357,0.0401933453977108,-0.005589802749454975,-0.0037265352439135313
18641274273525,0.9193734526634216,-9.836577415466309,0.5602431893348694,0.0356682650744915,-0.005589802749454975,-0.0031941730994731188
18641275510600,0.93254154920578,-9.837775230407715,0.5147533416748047,0.0369991734623909,-0.014373779296875,-0.0005323622026480734
18641276747662,0.9385270476341248,-9.840168952941895,0.5530605912208557,0.038330078125,-0.012776692397892475,-0.004791259765625
18641277984725,0.9229647517204285,-9.86770248413086,0.5817910432815552,0.0415242500603199,-0.007985432632267475,-0.0021294488105922937
18641279221800,0.9085995554924011,-9.86650562286377,0.5554547905921936,0.0364668108522892,-0.007453070487827063,-0.003460354171693325
18641280458862,0.9229647517204285,-9.84615421295166,0.5662286877632141,0.0375315360724926,-0.007985432632267475,-0.0013309054775163531
18641281695950,0.9038111567497253,-9.86770248413086,0.5805939435958862,0.0364668108522892,-0.008517795242369175,0.0042588976211845875
18641282933000,0.9169792532920837,-9.860519409179688,0.5315127968788147,0.0359344482421875,-0.013309055007994175,0.003460354171693325
18641284170100,0.9720458984375,-9.872490882873535,0.5410895943641663,0.0359344482421875,-0.010913425125181675,-0.0037265352439135313
18641285407175,0.9241618514060974,-9.8784761428833,0.5817910432815552,0.0330064557492733,-0.0114457868039608,-0.0002661811013240367
18641286644237,0.9145850539207458,-9.872490882873535,0.5638344883918762,0.0346035435795784,-0.00958251953125,0.0005323622026480734
18641287881300,0.8942343592643738,-9.859322547912598,0.5410895943641663,0.0300784632563591,-0.01117960549890995,-0.0013309054775163531
18641289118375,0.9157821536064148,-9.837775230407715,0.5434837937355042,0.0324740931391716,-0.014373779296875,-0.0018632676219567657
18641290355437,0.9050082564353943,-9.882067680358887,0.5566518902778625,0.0388624407351017,-0.01224433071911335,-0.0010647244052961469
18641291592512,0.9133879542350769,-9.896432876586914,0.5542576909065247,0.0351359061896801,-0.0114457868039608,-0.0015970865497365594
18641292829612,0.9085995554924011,-9.858125686645508,0.585382342338562,0.02901373989880085,-0.01117960549890995,-0.0037265352439135313
18641294066675,0.9085995554924011,-9.852140426635742,0.5841852426528931,0.0348697230219841,-0.0157046839594841,-0.003460354171693325
18641295303737,0.93254154920578,-9.852140426635742,0.5746083855628967,0.0327402763068676,-0.0173017717897892,-0.0002661811013240367
18641296540812,0.9074024558067322,-9.884461402893066,0.5841852426528931,0.02901373989880085,-0.0119781494140625,-0.0007985432748682797
18641297777887,0.8918401598930359,-9.910798072814941,0.5590460896492004,0.03034464456140995,-0.008517795242369175,-0.0010647244052961469
18641299014950,0.9469068050384521,-9.909601211547852,0.5734112858772278,0.0348697230219841,-0.0138414166867733,0.0023956298828125
18641300252000,0.9253589510917664,-9.907206535339355,0.6129156351089478,0.0314093679189682,-0.01703559048473835,0.0053236219100654125
18641301489112,0.8966285586357117,-9.895236015319824,0.5949591398239136,0.0263519287109375,-0.015172322280704975,0.003460354171693325
18641302726175,0.9014169573783875,-9.910798072814941,0.5793968439102173,0.02182685025036335,-0.01171196810901165,0.0015970865497365594
18641303963262,0.8930372595787048,-9.877279281616211,0.5746083855628967,0.02369011752307415,-0.0138414166867733,-0.0010647244052961469
18641305200325,0.8774749040603638,-9.919178009033203,0.5781997442245483,0.0271504707634449,-0.0138414166867733,0.0002661811013240367
18641306437387,0.9145850539207458,-9.90122127532959,0.5662286877632141,0.02661811001598835,-0.012510511092841625,0.0
18641307674462,0.8774749040603638,-9.929951667785645,0.5602431893348694,0.02555338479578495,-0.0138414166867733,0.0018632676219567657
18641308911525,0.8870517611503601,-9.90361499786377,0.5841852426528931,0.02129448764026165,-0.007985432632267475,0.0031941730994731188
18641310148600,0.8954314589500427,-9.872490882873535,0.5159504413604736,0.02182685025036335,-0.0077192517928779125,0.0031941730994731188
18641311385675,0.871489405632019,-9.932345390319824,0.5315127968788147,0.02608574740588665,-0.01224433071911335,0.0021294488105922937
18641312622737,0.8978256583213806,-9.891644477844238,0.6165069341659546,0.02315775491297245,-0.013042873702943325,0.0026618109550327063
18641313859812,0.8990227580070496,-9.915586471557617,0.5913678407669067,0.02315775491297245,-0.012510511092841625,0.004791259765625
18641315096887,0.9038111567497253,-9.93474006652832,0.5219359993934631,0.0191650390625,-0.01117960549890995,0.0031941730994731188
18641316333950,0.8918401598930359,-9.860519409179688,0.586579442024231,0.0191650390625,-0.00984870083630085,-0.0010647244052961469
18641317571037,0.9074024558067322,-9.87967300415039,0.6105214357376099,0.0215606689453125,-0.00958251953125,0.0037265352439135313
18641318808112,0.8846575617790222,-9.872490882873535,0.5303156971931458,0.0167694091796875,-0.01117960549890995,0.005855984054505825
18641320045175,0.9038111567497253,-9.854534149169922,0.5602431893348694,0.01650322787463665,-0.0167694091796875,0.00692070834338665
18641321282237,0.8966285586357117,-9.847352027893066,0.5626373887062073,0.01410759799182415,-0.008783976547420025,0.0015970865497365594
18641322519312,0.8559271097183228,-9.856928825378418,0.5901707410812378,0.0157046839594841,-0.0066545275039970875,0.0013309054775163531
18641323756400,0.828393816947937,-9.870096206665039,0.5542576909065247,0.01836649514734745,-0.01224433071911335,0.0026618109550327063
18641324993462,0.910993754863739,-9.897629737854004,0.585382342338562,0.01756795309484005,-0.01224433071911335,0.0015970865497365594
18641326230550,0.8966285586357117,-9.885659217834473,0.5578489899635315,0.01943122036755085,-0.00931633822619915,0.0053236219100654125
18641327467600,0.8930372595787048,-9.892841339111328,0.5638344883918762,0.01943122036755085,-0.010381062515079975,0.003460354171693325
18641328704687,0.8319851160049438,-9.861717224121094,0.586579442024231,0.0181003138422966,-0.008783976547420025,0.0042588976211845875
18641329941750,0.9050082564353943,-9.885659217834473,0.5746083855628967,0.014906140975654125,-0.01117960549890995,0.0
18641331178825,0.9145850539207458,-9.897629737854004,0.5734112858772278,0.01597086526453495,-0.00984870083630085,0.0026618109550327063
18641332415900,0.9169792532920837,-9.864110946655273,0.5746083855628967,0.010381062515079975,-0.00958251953125,0.0015970865497365594
18641333652975,0.9074024558067322,-9.915586471557617,0.5327098965644836,0.01224433071911335,-0.0063883461989462376,0.004791259765625
18641334890050,0.9062053561210632,-9.885659217834473,0.5626373887062073,0.0167694091796875,-0.013042873702943325,0.007985432632267475
18641336127112,0.889445960521698,-9.886856079101562,0.5602431893348694,0.0114457868039608,-0.01117960549890995,0.005057440605014563
18641337364187,0.8631097078323364,-9.921571731567383,0.5494692921638489,0.012776692397892475,-0.0071868896484375,0.003460354171693325
18641338601262,0.888248860836029,-9.915586471557617,0.5734112858772278,0.010647243820130825,-0.0071868896484375,0.005057440605014563
18641339838337,0.9002198576927185,-9.911994934082031,0.5614402890205383,0.003460354171693325,-0.0138414166867733,0.004791259765625
18641341075400,0.8918401598930359,-9.908403396606445,0.5758054852485657,0.0063883461989462376,-0.010647243820130825,0.0063883461989462376
18641342312462,0.9145850539207458,-9.904812812805176,0.6093243360519409,0.005057440605014563,-0.0071868896484375,0.0037265352439135313
18641343549537,0.8667010068893433,-9.914389610290527,0.5422866940498352,0.007453070487827063,-0.013309055007994175,0.008517795242369175
18641344786625,0.9181763529777527,-9.87967300415039,0.5542576909065247,0.0066545275039970875,-0.007985432632267475,0.0037265352439135313
18641346023687,0.9062053561210632,-9.90361499786377,0.5578489899635315,0.0037265352439135313,-0.0053236219100654125,0.0029279920272529125
18641347260762,0.9074024558067322,-9.853337287902832,0.5303156971931458,0.0042588976211845875,-0.007453070487827063,0.0053236219100654125
18641348497850,0.8774749040603638,-9.859322547912598,0.5961562395095825,0.0026618109550327063,-0.0090501569211483,0.0063883461989462376
18641349734900,0.8978256583213806,-9.889249801635742,0.5566518902778625,0.0063883461989462376,-0.010913425125181675,0.008783976547420025
18641350971987,0.8942343592643738,-9.827000617980957,0.5446808934211731,0.007453070487827063,-0.0029279920272529125,0.0021294488105922937
18641352209050,0.9026140570640564,-9.840168952941895,0.5506663918495178,0.0026618109550327063,-0.0037265352439135313,0.00692070834338665
18641353446112,0.8954314589500427,-9.856928825378418,0.5758054852485657,0.0063883461989462376,-0.008783976547420025,0.0071868896484375
18641354683200,0.9085995554924011,-9.908403396606445,0.5793968439102173,0.010114881210029125,-0.0071868896484375,0.008517795242369175
18641355920262,0.8906430602073669,-9.874884605407715,0.5566518902778625,0.0018632676219567657,-0.0053236219100654125,0.010647243820130825
18641357157337,0.9169792532920837,-9.84376049041748,0.547075092792511,0.0007985432748682797,-0.00692070834338665,0.008517795242369175
18641358394400,0.933738648891449,-9.886856079101562,0.5650315880775452,0.0005323622026480734,-0.0071868896484375,0.0071868896484375
18641359631475,0.9074024558067322,-9.8784761428833,0.5710170865058899,-0.0037265352439135313,-0.00931633822619915,0.0013309054775163531
18641360868550,0.8870517611503601,-9.838972091674805,0.5710170865058899,0.0002661811013240367,-0.005589802749454975,0.0031941730994731188
18641362105637,0.933738648891449,-9.859322547912598,0.5925649404525757,-0.0021294488105922937,-0.006122165359556675,0.00958251953125
18641363342687,0.8690952062606812,-9.821015357971191,0.5817910432815552,-0.0037265352439135313,-0.0063883461989462376,0.0053236219100654125
18641364579775,0.8930372595787048,-9.858125686645508,0.6105214357376099,-0.0042588976211845875,-0.0005323622026480734,0.0031941730994731188
18641365816850,0.8774749040603638,-9.865307807922363,0.6177040338516235,-0.0039927163161337376,-0.0021294488105922937,0.0023956298828125
18641367053925,0.9193734526634216,-9.830592155456543,0.5554547905921936,-0.0010647244052961469,-0.005589802749454975,0.00452507846057415
18641368291000,0.8990227580070496,-9.90361499786377,0.5985504388809204,-0.006122165359556675,-0.0053236219100654125,0.0071868896484375
18641369528075,0.9062053561210632,-9.897629737854004,0.5841852426528931,-0.0029279920272529125,0.0031941730994731188,0.005589802749454975
18641370765137,0.8810662031173706,-9.86770248413086,0.5710170865058899,-0.0037265352439135313,-0.0023956298828125,0.0042588976211845875
18641372002212,0.8535329103469849,-9.84376049041748,0.568622887134552,-0.004791259765625,-0.0063883461989462376,0.00452507846057415
18641373239275,0.9074024558067322,-9.822212219238281,0.5374982953071594,-0.0053236219100654125,-0.005855984054505825,0.00692070834338665
18641374476350,0.8918401598930359,-9.829395294189453,0.5542576909065247,-0.0077192517928779125,-0.005855984054505825,0.00452507846057415
18641375713425,0.8966285586357117,-9.884461402893066,0.5710170865058899,-0.0010647244052961469,-0.0031941730994731188,0.007985432632267475
18641376950500,0.9062053561210632,-9.84376049041748,0.6272808313369751,-0.0042588976211845875,-0.003460354171693325,0.005855984054505825
18641378187575,0.9002198576927185,-9.847352027893066,0.5770025849342346,-0.00984870083630085,-0.008251613937318325,0.005057440605014563
18641379424637,0.8595184087753296,-9.86650562286377,0.585382342338562,-0.008251613937318325,-0.003460354171693325,0.0077192517928779125
18641380661712,0.8583213090896606,-9.849745750427246,0.5734112858772278,-0.0042588976211845875,-0.0042588976211845875,0.007985432632267475
18641381898775,0.9038111567497253,-9.829395294189453,0.5351040959358215,-0.00692070834338665,-0.0039927163161337376,0.0063883461989462376
18641383135850,0.8379706144332886,-9.856928825378418,0.5566518902778625,-0.008783976547420025,0.0007985432748682797,0.005589802749454975
18641384372925,0.8774749040603638,-9.920374870300293,0.5482721924781799,-0.0114457868039608,-0.0018632676219567657,0.00931633822619915
18641385609975,0.8738836050033569,-9.913191795349121,0.5386953949928284,-0.0077192517928779125,-0.005855984054505825,0.006122165359556675
18641386847075,0.8678981065750122,-9.836577415466309,0.5566518902778625,-0.00958251953125,-0.0018632676219567657,0.0037265352439135313
18641388084137,0.8762778043746948,-9.908403396606445,0.5638344883918762,-0.010647243820130825,0.0018632676219567657,0.006122165359556675
18641389321225,0.8678981065750122,-9.923966407775879,0.6117185354232788,-0.00958251953125,0.0,0.008517795242369175
18641390558287,0.8523358106613159,-9.853337287902832,0.5841852426528931,-0.00984870083630085,-0.0031941730994731188,0.010381062515079975
18641391795362,0.8954314589500427,-9.86889934539795,0.5566518902778625,-0.0090501569211483,-0.0023956298828125,0.0071868896484375
18641393032437,0.8786720037460327,-9.929951667785645,0.5650315880775452,-0.013309055007994175,-0.0053236219100654125,0.0066545275039970875
18641394269500,0.9181763529777527,-9.874884605407715,0.569819986820221,-0.01357523538172245,0.0010647244052961469,0.004791259765625
18641395506562,0.8906430602073669,-9.884461402893066,0.5446808934211731,-0.01597086526453495,0.0023956298828125,0.0077192517928779125
18641396743662,0.9002198576927185,-9.871294021606445,0.5554547905921936,-0.0162370465695858,0.0023956298828125,0.008251613937318325
18641397980725,0.8631097078323364,-9.864110946655273,0.5446808934211731,-0.01224433071911335,0.0015970865497365594,0.01171196810901165
18641399217787,0.8786720037460327,-9.835380554199219,0.5913678407669067,-0.010381062515079975,-0.005589802749454975,0.008251613937318325
18641400454875,0.8918401598930359,-9.848548889160156,0.5386953949928284,-0.010913425125181675,-0.0002661811013240367,0.01171196810901165
18641401691937,0.8643068075180054,-9.837775230407715,0.6009446382522583,-0.01889885775744915,0.0039927163161337376,0.015172322280704975
18641402929012,0.8750807046890259,-9.86770248413086,0.5758054852485657,-0.01783413253724575,0.0026618109550327063,0.010381062515079975
18641404166087,0.9038111567497253,-9.883264541625977,0.5841852426528931,-0.014906140975654125,0.0007985432748682797,0.008251613937318325
18641405403162,0.9229647517204285,-9.871294021606445,0.569819986820221,-0.0191650390625,-0.0013309054775163531,0.010381062515079975
18641406640225,0.9145850539207458,-9.855731010437012,0.5829881429672241,-0.01836649514734745,0.0039927163161337376,0.008783976547420025
18641407877300,0.8762778043746948,-9.831789016723633,0.5183447003364563,-0.013309055007994175,0.0021294488105922937,0.006122165359556675
18641409114362,0.8571242094039917,-9.84495735168457,0.5422866940498352,-0.01756795309484005,-0.0018632676219567657,0.00692070834338665
18641410351437,0.9457097053527832,-9.847352027893066,0.5578489899635315,-0.0220930315554142,0.0010647244052961469,0.008251613937318325
18641411588512,0.9038111567497253,-9.855731010437012,0.48961424827575684,-0.01650322787463665,-0.0015970865497365594,0.008517795242369175
18641412825600,0.9062053561210632,-9.8784761428833,0.545877993106842,-0.0191650390625,0.0,0.008783976547420025
18641414062662,0.8978256583213806,-9.828198432922363,0.5734112858772278,-0.02076212503015995,0.0039927163161337376,0.0066545275039970875
18641415299725,0.8798691034317017,-9.834183692932129,0.5410895943641663,-0.0210283063352108,0.0039927163161337376,0.006122165359556675
18641416536800,0.8738836050033569,-9.815030097961426,0.5135562419891357,-0.0204959437251091,0.006122165359556675,0.00692070834338665
18641417773875,0.8571242094039917,-9.831789016723633,0.5434837937355042,-0.01756795309484005,0.0,0.00692070834338665
18641419010937,0.8619126081466675,-9.786299705505371,0.6045359373092651,-0.01943122036755085,-0.003460354171693325,0.0090501569211483
