timestamp_ns,accel_x,accel_y,accel_z,gyro_x,gyro_y,gyro_z
3004323886512,0.8678981065750122,-9.815030097961426,1.113303780555725,-0.0433875173330307,0.0433875173330307,-0.008517795242369175
3004325123812,0.8475474119186401,-9.81263542175293,1.1563994884490967,-0.0354020856320858,0.0463155098259449,-0.0063883461989462376
3004326361087,0.9097966551780701,-9.828198432922363,1.1204863786697388,-0.0391286201775074,0.0457831472158432,-0.0053236219100654125
3004327598387,0.8810662031173706,-9.799468040466309,1.1037269830703735,-0.0409918874502182,0.0436537005007267,-0.0039927163161337376
3004328835675,0.8810662031173706,-9.78869342803955,1.1073182821273804,-0.0364668108522892,0.0513729527592659,-0.0021294488105922937
3004330072987,0.8678981065750122,-9.824606895446777,1.0989385843276978,-0.0375315360724926,0.0449846051633358,0.003460354171693325
3004331310262,0.8906430602073669,-9.829395294189453,1.0666168928146362,-0.0377977155148983,0.0420566126704216,0.0005323622026480734
3004332547575,0.871489405632019,-9.785102844238281,1.070208191871643,-0.038330078125,0.0439198799431324,0.0005323622026480734
3004333784850,0.851138710975647,-9.81263542175293,1.0833762884140015,-0.0375315360724926,0.0447184219956398,0.0021294488105922937
3004335022137,0.8655039072036743,-9.801861763000488,1.0797849893569946,-0.0415242500603199,0.0423227921128273,0.0018632676219567657
3004336259425,0.9097966551780701,-9.800664901733398,1.0534487962722778,-0.038063894957304,0.0457831472158432,0.006122165359556675
3004337496725,0.8750807046890259,-9.793481826782227,1.114500880241394,-0.0388624407351017,0.0457831472158432,0.005589802749454975
3004338734037,0.912190854549408,-9.797073364257812,1.1252747774124146,-0.0423227921128273,0.0441860631108284,0.008517795242369175
3004339971300,0.9085995554924011,-9.781511306762695,1.0773907899856567,-0.0367329902946949,0.042855154722929,0.00958251953125
3004341208587,0.8858546614646912,-9.758766174316406,1.1109095811843872,-0.0327402763068676,0.042855154722929,0.01117960549890995
3004342445912,0.9145850539207458,-9.799468040466309,1.092953085899353,-0.0314093679189682,0.0364668108522892,0.01357523538172245
3004343683187,0.9014169573783875,-9.768342971801758,1.115697979927063,-0.0354020856320858,0.0457831472158432,0.014373779296875
3004344920500,0.8738836050033569,-9.758766174316406,1.1456254720687866,-0.0338049978017807,0.0460493303835392,0.010913425125181675
3004346157800,0.9349357485771179,-9.740809440612793,1.1599907875061035,-0.0364668108522892,0.0375315360724926,0.014906140975654125
3004347395100,0.9481039047241211,-9.737218856811523,1.138442873954773,-0.0356682650744915,0.0385962575674057,0.02076212503015995
3004348632362,0.9265560507774353,-9.739612579345703,1.1887211799621582,-0.0316755510866642,0.0417904332280159,0.0191650390625
3004349869662,0.9564836025238037,-9.750386238098145,1.169567584991455,-0.0258195661008358,0.038330078125,0.01943122036755085
3004351106950,0.9253589510917664,-9.773131370544434,1.1216834783554077,-0.0322079136967659,0.0404595248401165,0.02262539230287075
3004352344250,0.933738648891449,-9.726444244384766,1.0905588865280151,-0.0314093679189682,0.0409918874502182,0.0223592109978199
3004353581537,0.93254154920578,-9.807847023010254,1.0642226934432983,-0.0316755510866642,0.0449846051633358,0.01889885775744915
3004354818825,0.8990227580070496,-9.793481826782227,1.113303780555725,-0.0324740931391716,0.0404595248401165,0.01836649514734745
3004356056125,0.9062053561210632,-9.746795654296875,1.1109095811843872,-0.03087700717151165,0.0372653529047966,0.0173017717897892
3004357293412,0.8954314589500427,-9.794679641723633,1.072602391242981,-0.033272635191679,0.0452507846057415,0.01224433071911335
3004358530700,0.8858546614646912,-9.803058624267578,1.1073182821273804,-0.033272635191679,0.0473802350461483,0.00984870083630085
3004359768012,0.8367735147476196,-9.825803756713867,1.091755986213684,-0.0314093679189682,0.0417904332280159,0.015172322280704975
3004361005312,0.8655039072036743,-9.836577415466309,1.092953085899353,-0.0300784632563591,0.0396609827876091,0.00931633822619915
3004362242612,0.8104372620582581,-9.850942611694336,1.05105459690094,-0.0316755510866642,0.0423227921128273,0.008517795242369175
3004363479900,0.8619126081466675,-9.854534149169922,1.0809820890426636,-0.038330078125,0.0393948033452034,0.0039927163161337376
3004364717187,0.8966285586357117,-9.888052940368652,1.091755986213684,-0.0377977155148983,0.0391286201775074,0.0023956298828125
3004365954487,0.8140285611152649,-9.832986831665039,1.0797849893569946,-0.0377977155148983,0.0407257080078125,0.0021294488105922937
3004367191762,0.849941611289978,-9.841365814208984,1.094150185585022,-0.0417904332280159,0.0417904332280159,-0.003460354171693325
3004368429062,0.8427590131759644,-9.840168952941895,1.0690110921859741,-0.043121337890625,0.043121337890625,-0.0018632676219567657
3004369666362,0.8667010068893433,-9.832986831665039,1.0893617868423462,-0.0423227921128273,0.0441860631108284,-0.0002661811013240367
3004370903637,0.8463503122329712,-9.795876502990723,1.071405291557312,-0.0364668108522892,0.0404595248401165,0.0013309054775163531
3004372140950,0.8391677141189575,-9.80904483795166,1.1180921792984009,-0.038330078125,0.0441860631108284,0.0005323622026480734
3004373378250,0.8702923059463501,-9.832986831665039,1.0678139925003052,-0.043121337890625,0.0433875173330307,-0.0002661811013240367
3004374615537,0.8690952062606812,-9.816226959228516,1.1049240827560425,-0.0407257080078125,0.0396609827876091,-0.0007985432748682797
3004375852825,0.8870517611503601,-9.823410034179688,1.1025298833847046,-0.0327402763068676,0.0508405901491642,-0.005589802749454975
3004377090112,0.9014169573783875,-9.797073364257812,1.1085153818130493,-0.0391286201775074,0.0460493303835392,-0.0039927163161337376
3004378327387,0.9253589510917664,-9.822212219238281,1.1599907875061035,-0.0412580706179142,0.0420566126704216,0.0010647244052961469
3004379564700,0.8463503122329712,-9.830592155456543,1.0905588865280151,-0.038330078125,0.0415242500603199,0.0015970865497365594
3004380801987,0.8331822156906128,-9.821015357971191,1.0534487962722778,-0.0388624407351017,0.0423227921128273,-0.0013309054775163531
3004382039287,0.8631097078323364,-9.835380554199219,1.1121066808700562,-0.0404595248401165,0.0460493303835392,-0.0010647244052961469
3004383276587,0.8571242094039917,-9.81024169921875,1.0606313943862915,-0.0417904332280159,0.0460493303835392,0.0053236219100654125
3004384513900,0.8655039072036743,-9.81024169921875,1.0582371950149536,-0.0385962575674057,0.047646414488554,0.005589802749454975
3004385751162,0.8762778043746948,-9.798270225524902,1.092953085899353,-0.0420566126704216,0.04791259765625,-0.005589802749454975
3004386988462,0.8774749040603638,-9.805453300476074,1.1001356840133667,-0.0447184219956398,0.0465816929936409,-0.0010647244052961469
3004388225762,0.8200140595436096,-9.774328231811523,1.070208191871643,-0.0404595248401165,0.0519053116440773,0.0
3004389463062,0.8535329103469849,-9.75158405303955,1.0773907899856567,-0.0385962575674057,0.0545671246945858,0.0005323622026480734
3004390700337,0.8547300100326538,-9.773131370544434,1.0534487962722778,-0.0412580706179142,0.0511067695915699,-0.0015970865497365594
3004391937637,0.8056488633155823,-9.795876502990723,1.072602391242981,-0.0423227921128273,0.0548333041369915,0.004791259765625
3004393174937,0.8367735147476196,-9.734824180603027,1.1097124814987183,-0.0415242500603199,0.0516391322016716,0.0023956298828125
3004394412237,0.8559271097183228,-9.708487510681152,1.1049240827560425,-0.0423227921128273,0.0481787770986557,-0.0015970865497365594
3004395649512,0.8798691034317017,-9.651026725769043,1.0618284940719604,-0.0444522425532341,0.0455169677734375,0.0010647244052961469
3004396886825,0.872686505317688,-9.702502250671387,1.0857704877853394,-0.0409918874502182,0.0457831472158432,0.0010647244052961469
3004398124100,0.8631097078323364,-9.613917350769043,1.049857497215271,-0.0362006276845932,0.0511067695915699,0.0013309054775163531
3004399361387,0.8631097078323364,-9.62828254699707,1.0354923009872437,-0.0393948033452034,0.0537685826420784,0.0018632676219567657
3004400598700,0.8750807046890259,-9.621099472045898,1.0354923009872437,-0.0359344482421875,0.0548333041369915,0.0010647244052961469
3004401835975,0.872686505317688,-9.560047149658203,1.0319008827209473,-0.0362006276845932,0.0508405901491642,0.006122165359556675
3004403073287,0.8774749040603638,-9.589975357055664,1.0187327861785889,-0.03034464456140995,0.0508405901491642,0.0031941730994731188
3004404310587,0.910993754863739,-9.566033363342285,1.0606313943862915,-0.0276828333735466,0.0497758649289608,0.003460354171693325
3004405547862,0.8690952062606812,-9.548076629638672,1.0426748991012573,-0.0282151959836483,0.052703857421875,0.0026618109550327063
3004406785175,0.8643068075180054,-9.575610160827637,1.0307037830352783,-0.02502102218568325,0.0500420443713665,0.0007985432748682797
3004408022437,0.9145850539207458,-9.625887870788574,1.070208191871643,-0.0215606689453125,0.0513729527592659,0.0031941730994731188
3004409259737,0.888248860836029,-9.576807022094727,1.113303780555725,-0.02555338479578495,0.0500420443713665,0.004791259765625
3004410497025,0.8978256583213806,-9.583989143371582,1.0606313943862915,-0.02422248013317585,0.0535023994743824,0.0042588976211845875
3004411734337,0.9062053561210632,-9.592369079589844,1.1204863786697388,-0.0247548408806324,0.0553656667470932,0.00692070834338665
3004412971637,0.9062053561210632,-9.601945877075195,1.0881646871566772,-0.0196974016726017,0.052437674254179,0.0090501569211483
3004414208912,0.9097966551780701,-9.604340553283691,1.0642226934432983,-0.0157046839594841,0.0521714948117733,0.005589802749454975
3004415446212,0.9169792532920837,-9.587580680847168,1.0809820890426636,-0.015438503585755825,0.0564303919672966,0.008783976547420025
3004416683512,0.888248860836029,-9.603142738342285,1.05105459690094,-0.01783413253724575,0.0532362200319767,0.0077192517928779125
3004417920787,0.8762778043746948,-9.599552154541016,1.1049240827560425,-0.010647243820130825,0.0540347620844841,0.0029279920272529125
3004419158087,0.9193734526634216,-9.59715747833252,1.1121066808700562,-0.00984870083630085,0.0519053116440773,0.010114881210029125
3004420395375,0.912190854549408,-9.600749015808105,1.0833762884140015,-0.0119781494140625,0.0516391322016716,0.0114457868039608
3004421632687,0.871489405632019,-9.588777542114258,1.0989385843276978,-0.003460354171693325,0.0545671246945858,0.010114881210029125
3004422869975,0.9361328482627869,-9.589975357055664,1.0869675874710083,-0.0071868896484375,0.0500420443713665,0.006122165359556675
3004424107262,0.9157821536064148,-9.588777542114258,1.0797849893569946,-0.007453070487827063,0.0532362200319767,0.008251613937318325
3004425344575,0.8762778043746948,-9.613917350769043,1.0977414846420288,-0.007453070487827063,0.0540347620844841,0.012776692397892475
3004426581850,0.9421183466911316,-9.591172218322754,1.1061211824417114,-0.0053236219100654125,0.0532362200319767,0.013309055007994175
3004427819137,0.9193734526634216,-9.580398559570312,1.1216834783554077,-0.0013309054775163531,0.0532362200319767,0.010381062515079975
3004429056425,0.950498104095459,-9.583989143371582,1.0845733880996704,-0.0002661811013240367,0.057228934019804,0.01224433071911335
3004430293725,0.9241618514060974,-9.600749015808105,1.113303780555725,0.0,0.0588260218501091,0.01703559048473835
3004431531000,0.933738648891449,-9.606734275817871,1.114500880241394,0.003460354171693325,0.0588260218501091,0.0215606689453125
3004432768325,0.9157821536064148,-9.570821762084961,1.115697979927063,0.006122165359556675,0.0543009415268898,0.01703559048473835
3004434005612,0.9229647517204285,-9.568427085876465,1.1037269830703735,0.007985432632267475,0.0519053116440773,0.01357523538172245
3004435242900,0.9397241473197937,-9.592369079589844,1.1180921792984009,0.010381062515079975,0.052703857421875,0.01783413253724575
3004436480187,0.910993754863739,-9.59715747833252,1.1240776777267456,0.01357523538172245,0.0550994873046875,0.01783413253724575
3004437717487,0.9241618514060974,-9.57321548461914,1.1408370733261108,0.012510511092841625,0.0574951171875,0.00984870083630085
3004438954775,0.9074024558067322,-9.583989143371582,1.1300631761550903,0.0138414166867733,0.0556318499147892,0.010647243820130825
3004440192062,0.8786720037460327,-9.579200744628906,1.0797849893569946,0.01224433071911335,0.0553656667470932,0.013309055007994175
3004441429362,0.8942343592643738,-9.582792282104492,1.094150185585022,0.01463996060192585,0.0471140518784523,0.01783413253724575
3004442666675,0.8942343592643738,-9.567230224609375,1.1061211824417114,0.01836649514734745,0.0556318499147892,0.0191650390625
3004443903962,0.8607155084609985,-9.567230224609375,1.1671733856201172,0.01889885775744915,0.0550994873046875,0.0186326764523983
3004445141250,0.9097966551780701,-9.545681953430176,1.1180921792984009,0.01783413253724575,0.0588260218501091,0.014373779296875
3004446378537,0.8906430602073669,-9.59835433959961,1.1288660764694214,0.02369011752307415,0.0564303919672966,0.01783413253724575
3004447615850,0.9062053561210632,-9.588777542114258,1.0666168928146362,0.02129448764026165,0.0556318499147892,0.015438503585755825
3004448853112,0.8798691034317017,-9.599552154541016,1.1049240827560425,0.0223592109978199,0.0558980293571949,0.014373779296875
3004450090437,0.9181763529777527,-9.575610160827637,1.1288660764694214,0.02794901467859745,0.0548333041369915,0.01996358297765255
3004451327700,0.9014169573783875,-9.593565940856934,1.1204863786697388,0.0276828333735466,0.0574951171875,0.014373779296875
3004452565025,0.9038111567497253,-9.609128952026367,1.0761936902999878,0.02848137728869915,0.0604231096804142,0.014906140975654125
3004453802287,0.9038111567497253,-9.677363395690918,1.094150185585022,0.02608574740588665,0.0604231096804142,0.015438503585755825
3004455039587,0.9026140570640564,-9.690531730651855,1.0821791887283325,0.0306108258664608,0.0582936592400074,0.01943122036755085
3004456276875,0.9181763529777527,-9.680954933166504,1.0606313943862915,0.0399271659553051,0.0540347620844841,0.0167694091796875
3004457514187,0.9445126056671143,-9.695320129394531,1.0414777994155884,0.033272635191679,0.0564303919672966,0.0162370465695858
3004458751487,0.93254154920578,-9.720458984375,1.1097124814987183,0.0311431884765625,0.0577612966299057,0.0186326764523983
3004459988762,0.9229647517204285,-9.749189376831055,1.0965443849563599,0.0343373604118824,0.052437674254179,0.02182685025036335
3004461226062,0.9373299479484558,-9.757569313049316,1.1336544752120972,0.0327402763068676,0.057228934019804,0.0186326764523983
3004462463350,0.9097966551780701,-9.762357711791992,1.1001356840133667,0.0343373604118824,0.0577612966299057,0.0204959437251091
3004463700625,0.9301473498344421,-9.757569313049316,1.0845733880996704,0.0393948033452034,0.0582936592400074,0.01996358297765255
3004464937937,0.9361328482627869,-9.75397777557373,1.1097124814987183,0.0356682650744915,0.0574951171875,0.02182685025036335
3004466175225,0.9744400978088379,-9.747992515563965,1.1492167711257935,0.033272635191679,0.0556318499147892,0.01943122036755085
3004467412537,0.9062053561210632,-9.761160850524902,1.1468225717544556,0.0343373604118824,0.0566965714097023,0.0186326764523983
3004468649812,0.9588778018951416,-9.730035781860352,1.1252747774124146,0.0343373604118824,0.0545671246945858,0.015172322280704975
3004469887112,0.9409212470054626,-9.731232643127441,1.137245774269104,0.0330064557492733,0.0606892891228199,0.012510511092841625
3004471124412,0.9816226959228516,-9.7420072555542,1.1540051698684692,0.0351359061896801,0.0606892891228199,0.015172322280704975
3004472361712,0.9636662006378174,-9.68933391571045,1.1336544752120972,0.0420566126704216,0.0545671246945858,0.01943122036755085
3004473598987,0.9959878921508789,-9.682151794433594,1.1180921792984009,0.0356682650744915,0.0543009415268898,0.0162370465695858
3004474836300,1.0187327861785889,-9.730035781860352,1.1180921792984009,0.02901373989880085,0.0569627545773983,0.0167694091796875
3004476073587,0.9540894031524658,-9.710882186889648,1.1480196714401245,0.0391286201775074,0.0548333041369915,0.0196974016726017
3004477310887,0.9481039047241211,-9.68694019317627,1.1288660764694214,0.0372653529047966,0.0535023994743824,0.0186326764523983
3004478548150,0.9636662006378174,-9.680954933166504,1.1504138708114624,0.0385962575674057,0.0537685826420784,0.01410759799182415
3004479785475,0.993593692779541,-9.692925453186035,1.1839327812194824,0.0393948033452034,0.0521714948117733,0.01224433071911335
3004481022775,1.0211269855499268,-9.727641105651855,1.1492167711257935,0.0436537005007267,0.0503082275390625,0.0138414166867733
3004482260037,0.9828197956085205,-9.813833236694336,1.049857497215271,0.0364668108522892,0.0516391322016716,0.01650322787463665
3004483497350,1.0259153842926025,-9.889249801635742,1.0582371950149536,0.0420566126704216,0.0460493303835392,0.01597086526453495
3004484734637,0.970848798751831,-9.888052940368652,0.9600749015808105,0.042855154722929,0.0444522425532341,0.013042873702943325
3004485971937,0.912190854549408,-9.952696800231934,0.973242998123169,0.0420566126704216,0.0420566126704216,0.01171196810901165
3004487209212,0.93254154920578,-10.052056312561035,1.0259153842926025,0.0391286201775074,0.047646414488554,0.0157046839594841
3004488446500,0.9373299479484558,-10.049661636352539,1.0857704877853394,0.038063894957304,0.0447184219956398,0.013309055007994175
3004489683825,0.9409212470054626,-9.996989250183105,1.171961784362793,0.038063894957304,0.0404595248401165,0.01650322787463665
3004490921087,0.9660604000091553,-9.99339771270752,1.216254472732544,0.0364668108522892,0.0396609827876091,0.0186326764523983
3004492158387,0.9612720012664795,-9.977835655212402,1.2509703636169434,0.0393948033452034,0.038063894957304,0.0215606689453125
3004493395687,0.950498104095459,-9.90361499786377,1.2665326595306396,0.0359344482421875,0.0404595248401165,0.0220930315554142
3004494632975,1.0007762908935547,-9.865307807922363,1.2785037755966187,0.0343373604118824,0.0359344482421875,0.01943122036755085
3004495870262,1.0067617893218994,-9.817423820495605,1.258152961730957,0.0316755510866642,0.0409918874502182,0.02182685025036335
3004497107575,1.0091559886932373,-9.823410034179688,1.2114660739898682,0.0314093679189682,0.0391286201775074,0.0247548408806324
3004498344862,1.0055646896362305,-9.75278091430664,1.258152961730957,0.0338049978017807,0.0311431884765625,0.02502102218568325
3004499582150,1.0414777994155884,-9.744400978088379,1.2210428714752197,0.0354020856320858,0.0343373604118824,0.02741665206849575
3004500819437,1.0127472877502441,-9.690531730651855,1.1994950771331787,0.0375315360724926,0.0346035435795784,0.02848137728869915
3004502056737,0.9780313968658447,-9.715670585632324,1.1887211799621582,0.0367329902946949,0.0343373604118824,0.0223592109978199
3004503294037,0.9971849918365479,-9.744400978088379,1.2102689743041992,0.0340711809694767,0.0322079136967659,0.0258195661008358
3004504531325,0.9959878921508789,-9.671378135681152,1.213860273361206,0.0388624407351017,0.038063894957304,0.0282151959836483
3004505768625,0.9576807022094727,-9.695320129394531,1.216254472732544,0.0369991734623909,0.0346035435795784,0.0276828333735466
3004507005900,0.9481039047241211,-9.6989107131958,1.171961784362793,0.0423227921128273,0.02794901467859745,0.0295461006462574
3004508243200,0.9277531504631042,-9.684545516967773,1.194706678390503,0.0420566126704216,0.0300784632563591,0.03034464456140995
3004509480512,0.9397241473197937,-9.66299819946289,1.1528080701828003,0.0404595248401165,0.0271504707634449,0.02848137728869915
3004510717787,0.8990227580070496,-9.670180320739746,1.1336544752120972,0.0391286201775074,0.0319417305290699,0.0263519287109375
3004511955075,0.9050082564353943,-9.710882186889648,1.1204863786697388,0.0391286201775074,0.0295461006462574,0.0258195661008358
3004513192362,0.912190854549408,-9.68694019317627,1.1204863786697388,0.0425889752805233,0.02874755859375,0.02741665206849575
3004514429662,0.9277531504631042,-9.674968719482422,1.1061211824417114,0.0423227921128273,0.02901373989880085,0.0271504707634449
3004515666962,0.8906430602073669,-9.68694019317627,1.1061211824417114,0.0452507846057415,0.0276828333735466,0.02262539230287075
3004516904250,0.910993754863739,-9.680954933166504,1.1097124814987183,0.0412580706179142,0.02661811001598835,0.0204959437251091
3004518141550,0.9253589510917664,-9.709685325622559,1.1408370733261108,0.0452507846057415,0.0263519287109375,0.02661811001598835
3004519378837,0.9026140570640564,-9.692925453186035,1.1599907875061035,0.0433875173330307,0.0228915736079216,0.0244886614382267
3004520616150,0.8858546614646912,-9.68694019317627,1.1575965881347656,0.0449846051633358,0.0220930315554142,0.01463996060192585
3004521853437,0.8990227580070496,-9.768342971801758,1.1683704853057861,0.0465816929936409,0.02794901467859745,0.0210283063352108
3004523090725,0.9145850539207458,-9.740809440612793,1.1480196714401245,0.0497758649289608,0.0247548408806324,0.02182685025036335
3004524328012,0.933738648891449,-9.740809440612793,1.215057373046875,0.0519053116440773,0.01783413253724575,0.0215606689453125
3004525565325,0.9157821536064148,-9.782708168029785,1.2234370708465576,0.0564303919672966,0.02076212503015995,0.01650322787463665
3004526802625,0.9277531504631042,-9.770737648010254,1.1839327812194824,0.0548333041369915,0.0215606689453125,0.02076212503015995
3004528039912,0.889445960521698,-9.815030097961426,1.1887211799621582,0.0529700368642807,0.01756795309484005,0.0191650390625
3004529277187,0.9014169573783875,-9.821015357971191,1.213860273361206,0.0532362200319767,0.01597086526453495,0.0220930315554142
3004530514487,0.889445960521698,-9.837775230407715,1.2006921768188477,0.0535023994743824,0.0215606689453125,0.0162370465695858
3004531751775,0.9145850539207458,-9.835380554199219,1.1755530834197998,0.0505744069814682,0.01836649514734745,0.01783413253724575
3004532989075,0.8523358106613159,-9.84495735168457,1.2054805755615234,0.0508405901491642,0.010913425125181675,0.0196974016726017
3004534226375,0.8559271097183228,-9.870096206665039,1.2401964664459229,0.0577612966299057,0.0138414166867733,0.02794901467859745
3004535463650,0.8571242094039917,-9.873687744140625,1.2246341705322266,0.0577612966299057,0.01357523538172245,0.0252872034907341
3004536700950,0.912190854549408,-9.827000617980957,1.2198457717895508,0.0569627545773983,0.01783413253724575,0.01703559048473835
3004537938250,0.849941611289978,-9.854534149169922,1.235408067703247,0.0537685826420784,0.0138414166867733,0.0223592109978199
3004539175550,0.8798691034317017,-9.838972091674805,1.2761094570159912,0.0513729527592659,0.01117960549890995,0.0271504707634449
3004540412825,0.8762778043746948,-9.841365814208984,1.259350061416626,0.0519053116440773,0.015172322280704975,0.0271504707634449
3004541650112,0.889445960521698,-9.81143856048584,1.2282254695892334,0.0508405901491642,0.010913425125181675,0.02901373989880085
3004542887412,0.872686505317688,-9.792284965515137,1.238999366760254,0.0503082275390625,0.01117960549890995,0.02608574740588665
3004544124712,0.871489405632019,-9.798270225524902,1.1791443824768066,0.0503082275390625,0.01410759799182415,0.02981228195130825
3004545362012,0.8487445116043091,-9.773131370544434,1.1959037780761719,0.052703857421875,0.013042873702943325,0.033272635191679
3004546599300,0.8427590131759644,-9.818621635437012,1.2018892765045166,0.0537685826420784,0.012776692397892475,0.02981228195130825
3004547836600,0.8762778043746948,-9.75397777557373,1.1982979774475098,0.0513729527592659,0.010913425125181675,0.02555338479578495
3004549073887,0.8774749040603638,-9.803058624267578,1.1815385818481445,0.0508405901491642,0.0077192517928779125,0.02848137728869915
3004550311187,0.8595184087753296,-9.770737648010254,1.2330138683319092,0.0548333041369915,0.0090501569211483,0.02555338479578495
3004551548450,0.8690952062606812,-9.825803756713867,1.1635820865631104,0.052703857421875,0.010381062515079975,0.0314093679189682
3004552785762,0.8475474119186401,-9.789891242980957,1.1875240802764893,0.0500420443713665,0.007985432632267475,0.02608574740588665
3004554023050,0.8224083185195923,-9.815030097961426,1.1994950771331787,0.0558980293571949,0.0077192517928779125,0.0223592109978199
3004555260350,0.7996633648872375,-9.824606895446777,1.1994950771331787,0.0558980293571949,0.0071868896484375,0.0263519287109375
3004556497625,0.8475474119186401,-9.828198432922363,1.1791443824768066,0.0545671246945858,0.005057440605014563,0.0186326764523983
3004557734937,0.8259996175765991,-9.853337287902832,1.1875240802764893,0.052703857421875,0.005057440605014563,0.02182685025036335
3004558972212,0.8391677141189575,-9.801861763000488,1.2533645629882812,0.0500420443713665,0.0063883461989462376,0.0228915736079216
3004560209525,0.7661445736885071,-9.870096206665039,1.2306196689605713,0.0495096817612648,0.006122165359556675,0.01996358297765255
3004561446825,0.7936778664588928,-9.864110946655273,1.173158884048462,0.0460493303835392,0.0021294488105922937,0.01996358297765255
3004562684100,0.7936778664588928,-9.896432876586914,1.2030863761901855,0.0487111397087574,-0.003460354171693325,0.0204959437251091
3004563921425,0.8607155084609985,-9.818621635437012,1.260547161102295,0.0505744069814682,-0.0023956298828125,0.0210283063352108
3004565158687,0.8008604645729065,-9.831789016723633,1.1839327812194824,0.0529700368642807,-0.0002661811013240367,0.01943122036755085
3004566396000,0.829590916633606,-9.86770248413086,1.2294225692749023,0.0473802350461483,0.004791259765625,0.01463996060192585
3004567633287,0.8020575642585754,-9.884461402893066,1.2054805755615234,0.0471140518784523,0.005057440605014563,0.01756795309484005
3004568870562,0.7529764175415039,-9.894038200378418,1.2210428714752197,0.0500420443713665,0.005057440605014563,0.02262539230287075
3004570107875,0.7613561749458313,-9.896432876586914,1.2186486721038818,0.0439198799431324,0.0015970865497365594,0.01889885775744915
3004571345162,0.7805097699165344,-9.920374870300293,1.2198457717895508,0.0487111397087574,0.006122165359556675,0.01650322787463665
3004572582475,0.7817068696022034,-9.983820915222168,1.191115379333496,0.0473802350461483,0.0042588976211845875,0.01410759799182415
3004573819762,0.7769184708595276,-9.949105262756348,1.194706678390503,0.0433875173330307,-0.0002661811013240367,0.0162370465695858
3004575057050,0.7637503743171692,-9.983820915222168,1.256955862045288,0.0449846051633358,-0.0026618109550327063,0.01889885775744915
3004576294350,0.7218518257141113,-9.980230331420898,1.2737152576446533,0.0433875173330307,0.0005323622026480734,0.0173017717897892
3004577531637,0.7242460250854492,-9.985018730163574,1.2533645629882812,0.0396609827876091,0.0007985432748682797,0.01836649514734745
3004578768925,0.7649474740028381,-10.006566047668457,1.2401964664459229,0.0503082275390625,0.0039927163161337376,0.01836649514734745
3004580006225,0.7206547260284424,-10.020931243896484,1.2198457717895508,0.0433875173330307,0.0026618109550327063,0.012776692397892475
3004581243512,0.751779317855835,-10.038887977600098,1.2521674633026123,0.038330078125,0.003460354171693325,0.01171196810901165
3004582480812,0.7457938194274902,-10.032902717590332,1.2653355598449707,0.038063894957304,0.0042588976211845875,0.01703559048473835
3004583718112,0.6991068720817566,-9.995792388916016,1.2653355598449707,0.0367329902946949,0.0007985432748682797,0.01889885775744915
3004584955400,0.7469909191131592,-10.002974510192871,1.2485761642456055,0.0330064557492733,0.0053236219100654125,0.01836649514734745
3004586192687,0.7362170219421387,-9.996989250183105,1.2461819648742676,0.0330064557492733,0.0066545275039970875,0.0157046839594841
3004587429987,0.7098808288574219,-10.034099578857422,1.2761094570159912,0.0319417305290699,0.006122165359556675,0.014906140975654125
3004588667287,0.7350199222564697,-10.02332592010498,1.2773066759109497,0.0282151959836483,0.003460354171693325,0.01410759799182415
3004589904562,0.7230489253997803,-10.020931243896484,1.259350061416626,0.0276828333735466,0.0077192517928779125,0.0157046839594841
3004591141862,0.7721300721168518,-10.016142845153809,1.3036428689956665,0.0258195661008358,0.0013309054775163531,0.0191650390625
3004592379150,0.7433996200561523,-9.965864181518555,1.2785037755966187,0.02741665206849575,0.0029279920272529125,0.0204959437251091
3004593616437,0.768538773059845,-9.975441932678223,1.2689268589019775,0.0247548408806324,0.008251613937318325,0.02182685025036335
3004594853762,0.751779317855835,-9.981427192687988,1.2689268589019775,0.0247548408806324,0.0063883461989462376,0.02262539230287075
3004596091037,0.7661445736885071,-9.983820915222168,1.2689268589019775,0.01996358297765255,0.005855984054505825,0.0181003138422966
3004597328337,0.7577648162841797,-9.9586820602417,1.2844892740249634,0.01996358297765255,0.005589802749454975,0.0186326764523983
3004598565625,0.7864952683448792,-9.93474006652832,1.259350061416626,0.02262539230287075,0.0066545275039970875,0.02369011752307415
3004599802925,0.7697358727455139,-9.938331604003906,1.2952631711959839,0.02422248013317585,0.0037265352439135313,0.0276828333735466
3004601040212,0.8020575642585754,-9.884461402893066,1.235408067703247,0.01756795309484005,0.006122165359556675,0.02369011752307415
3004602277500,0.7745242714881897,-9.883264541625977,1.2186486721038818,0.0157046839594841,0.010647243820130825,0.02794901467859745
3004603514800,0.7589619159698486,-9.913191795349121,1.2270283699035645,0.0181003138422966,0.00931633822619915,0.0215606689453125
3004604752100,0.7254431247711182,-9.889249801635742,1.2413935661315918,0.01410759799182415,0.010647243820130825,0.02129448764026165
3004605989375,0.7577648162841797,-9.874884605407715,1.235408067703247,0.015172322280704975,0.008251613937318325,0.02022976242005825
3004607226662,0.7445967197418213,-9.84495735168457,1.2306196689605713,0.01224433071911335,0.007985432632267475,0.0204959437251091
3004608463962,0.7553706169128418,-9.827000617980957,1.2258312702178955,0.010913425125181675,0.0018632676219567657,0.02422248013317585
3004609701275,0.7984662652015686,-9.835380554199219,1.2294225692749023,0.0191650390625,0.004791259765625,0.0223592109978199
3004610938550,0.7338228225708008,-9.84615421295166,1.2054805755615234,0.01783413253724575,0.0077192517928779125,0.0191650390625
3004612175862,0.7242460250854492,-9.835380554199219,1.1994950771331787,0.01889885775744915,0.0029279920272529125,0.02076212503015995
3004613413162,0.7601590752601624,-9.815030097961426,1.2198457717895508,0.01889885775744915,0.0063883461989462376,0.02315775491297245
3004614650425,0.7661445736885071,-9.819818496704102,1.2066776752471924,0.0186326764523983,0.0037265352439135313,0.0204959437251091
3004615887750,0.7242460250854492,-9.786299705505371,1.2030863761901855,0.012776692397892475,0.0021294488105922937,0.0173017717897892
3004617125025,0.7433996200561523,-9.768342971801758,1.2114660739898682,0.015172322280704975,0.0026618109550327063,0.02608574740588665
3004618362312,0.7613561749458313,-9.781511306762695,1.2270283699035645,0.01703559048473835,0.0071868896484375,0.02182685025036335
3004619599612,0.7601590752601624,-9.805453300476074,1.2425906658172607,0.014373779296875,0.005057440605014563,0.01889885775744915
3004620836912,0.7757213711738586,-9.7791166305542,1.2306196689605713,0.015172322280704975,0.0063883461989462376,0.0173017717897892
3004622074212,0.788889467716217,-9.786299705505371,1.2282254695892334,0.015438503585755825,0.014373779296875,0.01756795309484005
3004623311500,0.7805097699165344,-9.71926212310791,1.2066776752471924,0.013309055007994175,0.00958251953125,0.02022976242005825
3004624548775,0.7745242714881897,-9.767146110534668,1.2461819648742676,0.010647243820130825,0.00931633822619915,0.01889885775744915
3004625786075,0.788889467716217,-9.78869342803955,1.2066776752471924,0.012510511092841625,0.01171196810901165,0.0173017717897892
3004627023375,0.7170634269714355,-9.707290649414062,1.2449848651885986,0.01463996060192585,0.01117960549890995,0.013042873702943325
3004628260662,0.7433996200561523,-9.737218856811523,1.2246341705322266,0.010913425125181675,0.008251613937318325,0.014373779296875
3004629497950,0.751779317855835,-9.740809440612793,1.194706678390503,0.0157046839594841,0.0077192517928779125,0.01783413253724575
3004630735250,0.7457938194274902,-9.762357711791992,1.2198457717895508,0.0167694091796875,0.0114457868039608,0.0186326764523983
3004631972550,0.7158663272857666,-9.749189376831055,1.236605167388916,0.01463996060192585,0.00931633822619915,0.014906140975654125
3004633209850,0.7218518257141113,-9.759963035583496,1.2270283699035645,0.01463996060192585,0.007453070487827063,0.02022976242005825
3004634447137,0.7577648162841797,-9.718064308166504,1.2246341705322266,0.01783413253724575,0.010381062515079975,0.0167694091796875
3004635684412,0.7003040313720703,-9.732430458068848,1.2198457717895508,0.01597086526453495,0.01224433071911335,0.012510511092841625
3004636921700,0.6763619780540466,-9.737218856811523,1.212663173675537,0.015438503585755825,0.008251613937318325,0.0162370465695858
3004638159025,0.7457938194274902,-9.683348655700684,1.2258312702178955,0.01650322787463665,0.010381062515079975,0.0167694091796875
3004639396300,0.7218518257141113,-9.701305389404297,1.1767501831054688,0.01783413253724575,0.00984870083630085,0.0157046839594841
3004640633575,0.7134721279144287,-9.707290649414062,1.1959037780761719,0.01703559048473835,0.008517795242369175,0.0167694091796875
3004641870900,0.7182605266571045,-9.697713851928711,1.212663173675537,0.0181003138422966,0.010114881210029125,0.0119781494140625
3004643108187,0.706289529800415,-9.716867446899414,1.2437877655029297,0.0191650390625,0.015438503585755825,0.0119781494140625
3004644345475,0.7015011310577393,-9.715670585632324,1.2282254695892334,0.02262539230287075,0.01224433071911335,0.0119781494140625
3004645582775,0.7362170219421387,-9.709685325622559,1.2401964664459229,0.01996358297765255,0.015438503585755825,0.012510511092841625
3004646820075,0.7661445736885071,-9.744400978088379,1.2330138683319092,0.01756795309484005,0.014906140975654125,0.0138414166867733
3004648057362,0.7146692276000977,-9.714473724365234,1.2342109680175781,0.0215606689453125,0.015172322280704975,0.007985432632267475
3004649294650,0.6727706789970398,-9.720458984375,1.2222399711608887,0.0196974016726017,0.0204959437251091,0.0039927163161337376
3004650531950,0.7541735172271729,-9.75397777557373,1.1875240802764893,0.02315775491297245,0.0210283063352108,0.007985432632267475
3004651769250,0.7266402244567871,-9.758766174316406,1.1875240802764893,0.0173017717897892,0.00958251953125,0.005855984054505825
3004653006550,0.7158663272857666,-9.738415718078613,1.213860273361206,0.0173017717897892,0.012776692397892475,0.0090501569211483
3004654243825,0.7493851184844971,-9.731232643127441,1.1839327812194824,0.0162370465695858,0.015438503585755825,0.007453070487827063
3004655481112,0.7625532746315002,-9.749189376831055,1.169567584991455,0.0162370465695858,0.0138414166867733,0.00452507846057415
3004656718425,0.7649474740028381,-9.710882186889648,1.237802267074585,0.02315775491297245,0.0181003138422966,0.0031941730994731188
3004657955712,0.7398083209991455,-9.733627319335938,1.1516109704971313,0.02262539230287075,0.014906140975654125,-0.0023956298828125
3004659193000,0.7242460250854492,-9.707290649414062,1.139639973640442,0.0228915736079216,0.0138414166867733,0.004791259765625
3004660430300,0.7613561749458313,-9.750386238098145,1.1779472827911377,0.0263519287109375,0.01357523538172245,0.0037265352439135313
3004661667587,0.7649474740028381,-9.710882186889648,1.169567584991455,0.0247548408806324,0.014906140975654125,0.0010647244052961469
3004662904887,0.7601590752601624,-9.733627319335938,1.1623849868774414,0.01943122036755085,0.01703559048473835,-0.0039927163161337376
3004664142175,0.7745242714881897,-9.72165584564209,1.1659762859344482,0.0228915736079216,0.0157046839594841,-0.0021294488105922937
3004665379475,0.7841010689735413,-9.744400978088379,1.1743559837341309,0.01756795309484005,0.01836649514734745,-0.0010647244052961469
3004666616775,0.7386112213134766,-9.696516990661621,1.1743559837341309,0.02129448764026165,0.015172322280704975,-0.0023956298828125
3004667854075,0.7182605266571045,-9.714473724365234,1.216254472732544,0.0210283063352108,0.012776692397892475,-0.007453070487827063
3004669091350,0.7194576263427734,-9.712079048156738,1.2054805755615234,0.0215606689453125,0.0162370465695858,-0.0138414166867733
3004670328650,0.7206547260284424,-9.75158405303955,1.1767501831054688,0.02608574740588665,0.01597086526453495,0.0005323622026480734
3004671565937,0.7398083209991455,-9.713275909423828,1.1611878871917725,0.0247548408806324,0.012510511092841625,-0.0039927163161337376
3004672803237,0.7541735172271729,-9.690531730651855,1.2186486721038818,0.0322079136967659,0.013309055007994175,-0.0071868896484375
3004674040537,0.7362170219421387,-9.680954933166504,1.136048674583435,0.0258195661008358,0.015438503585755825,-0.0039927163161337376
3004675277825,0.7709329724311829,-9.758766174316406,1.138442873954773,0.02369011752307415,0.0138414166867733,-0.0013309054775163531
3004676515112,0.7769184708595276,-9.780314445495605,1.2198457717895508,0.0258195661008358,0.0138414166867733,-0.0042588976211845875
3004677752412,0.7398083209991455,-9.763554573059082,1.2270283699035645,0.0204959437251091,0.01597086526453495,-0.0063883461989462376
3004678989725,0.7481880187988281,-9.767146110534668,1.2342109680175781,0.02182685025036335,0.01463996060192585,-0.012510511092841625
3004680227000,0.730231523513794,-9.732430458068848,1.2258312702178955,0.02422248013317585,0.01171196810901165,-0.0053236219100654125
3004681464287,0.7254431247711182,-9.765949249267578,1.1971008777618408,0.02315775491297245,0.0167694091796875,-0.005057440605014563
3004682701600,0.7469909191131592,-9.733627319335938,1.215057373046875,0.0268842913210392,0.0119781494140625,-0.00452507846057415
3004683938887,0.7362170219421387,-9.761160850524902,1.2270283699035645,0.0258195661008358,0.0157046839594841,-0.0071868896484375
3004685176175,0.7757213711738586,-9.734824180603027,1.1899182796478271,0.02422248013317585,0.01703559048473835,-0.0077192517928779125
3004686413462,0.7793126702308655,-9.715670585632324,1.2006921768188477,0.02608574740588665,0.013042873702943325,-0.0071868896484375
3004687650750,0.812831461429596,-9.750386238098145,1.2342109680175781,0.02608574740588665,0.01597086526453495,-0.0005323622026480734
3004688888062,0.7565677165985107,-9.6989107131958,1.256955862045288,0.0223592109978199,0.01996358297765255,-0.0053236219100654125
3004690125350,0.7589619159698486,-9.731232643127441,1.2641384601593018,0.01996358297765255,0.02262539230287075,-0.0071868896484375
3004691362637,0.7422025203704834,-9.726444244384766,1.2270283699035645,0.0282151959836483,0.01224433071911335,-0.0039927163161337376
3004692599937,0.7326257228851318,-9.714473724365234,1.2294225692749023,0.02794901467859745,0.01889885775744915,-0.0031941730994731188
3004693837212,0.7601590752601624,-9.676166534423828,1.212663173675537,0.0247548408806324,0.01650322787463665,-0.0029279920272529125
3004695074537,0.8008604645729065,-9.697713851928711,1.2330138683319092,0.0295461006462574,0.01889885775744915,-0.0031941730994731188
3004696311812,0.7876923680305481,-9.646238327026367,1.2330138683319092,0.0314093679189682,0.01943122036755085,-0.00452507846057415
3004697549112,0.7433996200561523,-9.690531730651855,1.1899182796478271,0.02794901467859745,0.01836649514734745,-0.010114881210029125
3004698786412,0.7876923680305481,-9.71926212310791,1.2641384601593018,0.0282151959836483,0.01756795309484005,-0.0063883461989462376
3004700023700,0.7924807667732239,-9.725247383117676,1.2545616626739502,0.0319417305290699,0.01650322787463665,-0.004791259765625
3004701261000,0.7817068696022034,-9.725247383117676,1.2557587623596191,0.0322079136967659,0.010114881210029125,-0.005855984054505825
3004702498287,0.7817068696022034,-9.740809440612793,1.2294225692749023,0.02981228195130825,0.01357523538172245,-0.005057440605014563
3004703735600,0.7757213711738586,-9.731232643127441,1.256955862045288,0.03034464456140995,0.008517795242369175,-0.0002661811013240367
3004704972862,0.7457938194274902,-9.72285270690918,1.2234370708465576,0.02901373989880085,0.0090501569211483,0.0
3004706210175,0.7924807667732239,-9.732430458068848,1.2246341705322266,0.0316755510866642,0.008783976547420025,-0.0039927163161337376
3004707447475,0.7852981686592102,-9.68813705444336,1.2413935661315918,0.0346035435795784,0.012776692397892475,-0.0015970865497365594
3004708684762,0.7757213711738586,-9.659406661987305,1.2330138683319092,0.0343373604118824,0.01650322787463665,-0.003460354171693325
3004709922050,0.7936778664588928,-9.654618263244629,1.2521674633026123,0.0338049978017807,0.01357523538172245,0.0010647244052961469
3004711159350,0.8008604645729065,-9.666589736938477,1.2401964664459229,0.0327402763068676,0.01224433071911335,-0.0023956298828125
3004712396637,0.7613561749458313,-9.673771858215332,1.2533645629882812,0.02901373989880085,0.00984870083630085,-0.00692070834338665
3004713633925,0.7745242714881897,-9.684545516967773,1.2832921743392944,0.0330064557492733,0.01357523538172245,-0.00452507846057415
3004714871225,0.7709329724311829,-9.704896926879883,1.238999366760254,0.0396609827876091,0.0138414166867733,-0.0031941730994731188
3004716108537,0.7350199222564697,-9.709685325622559,1.2342109680175781,0.0404595248401165,0.01171196810901165,-0.0029279920272529125
3004717345812,0.7996633648872375,-9.670180320739746,1.2342109680175781,0.0364668108522892,0.012776692397892475,-0.0039927163161337376
3004718583112,0.7661445736885071,-9.68933391571045,1.1635820865631104,0.0375315360724926,0.010114881210029125,-0.00452507846057415
3004719820412,0.7577648162841797,-9.716867446899414,1.260547161102295,0.0372653529047966,0.0119781494140625,-0.00984870083630085
3004721057700,0.7601590752601624,-9.66419506072998,1.2677297592163086,0.0372653529047966,0.01171196810901165,-0.008783976547420025
3004722295000,0.7745242714881897,-9.682151794433594,1.193509578704834,0.0364668108522892,0.0114457868039608,-0.00692070834338665
3004723532275,0.7984662652015686,-9.710882186889648,1.2318167686462402,0.0404595248401165,0.014373779296875,-0.010114881210029125
3004724769587,0.7733271718025208,-9.682151794433594,1.2330138683319092,0.0399271659553051,0.01463996060192585,-0.01224433071911335
3004726006887,0.7589619159698486,-9.739612579345703,1.192312479019165,0.0404595248401165,0.013309055007994175,-0.01224433071911335
3004727244175,0.8188169598579407,-9.713275909423828,1.212663173675537,0.038063894957304,0.0119781494140625,-0.013309055007994175
3004728481462,0.8355764150619507,-9.690531730651855,1.2449848651885986,0.0415242500603199,0.01463996060192585,-0.01171196810901165
3004729718762,0.849941611289978,-9.690531730651855,1.2665326595306396,0.0409918874502182,0.010114881210029125,-0.012776692397892475
3004730956037,0.8583213090896606,-9.716867446899414,1.2629413604736328,0.0441860631108284,0.013309055007994175,-0.01597086526453495
3004732193337,0.8439561128616333,-9.713275909423828,1.260547161102295,0.0455169677734375,0.01410759799182415,-0.01463996060192585
3004733430637,0.8248025178909302,-9.704896926879883,1.314416766166687,0.043121337890625,0.0090501569211483,-0.0204959437251091
3004734667937,0.8547300100326538,-9.684545516967773,1.3120225667953491,0.0404595248401165,0.013042873702943325,-0.0247548408806324
3004735905212,0.849941611289978,-9.7420072555542,1.2629413604736328,0.0436537005007267,0.0114457868039608,-0.0210283063352108
3004737142512,0.8643068075180054,-9.725247383117676,1.291671872138977,0.0439198799431324,0.012510511092841625,-0.0244886614382267
3004738379812,0.828393816947937,-9.724050521850586,1.2880805730819702,0.0415242500603199,0.010913425125181675,-0.02741665206849575
3004739617100,0.8690952062606812,-9.713275909423828,1.3096283674240112,0.0444522425532341,0.00931633822619915,-0.0223592109978199
3004740854400,0.8259996175765991,-9.72285270690918,1.2964602708816528,0.0433875173330307,0.007985432632267475,-0.0252872034907341
3004742091700,0.8236054182052612,-9.720458984375,1.2653355598449707,0.0439198799431324,0.0071868896484375,-0.0319417305290699
3004743328987,0.8200140595436096,-9.708487510681152,1.2892776727676392,0.0473802350461483,0.00958251953125,-0.0340711809694767
3004744566275,0.8415619134902954,-9.690531730651855,1.2306196689605713,0.0444522425532341,0.010913425125181675,-0.03087700717151165
3004745803600,0.849941611289978,-9.701305389404297,1.2270283699035645,0.042855154722929,0.00984870083630085,-0.0327402763068676
3004747040862,0.8595184087753296,-9.691728591918945,1.2342109680175781,0.0495096817612648,0.0021294488105922937,-0.033538818359375
3004748278175,0.871489405632019,-9.710882186889648,1.2497732639312744,0.0521714948117733,0.003460354171693325,-0.0359344482421875
3004749515450,0.8140285611152649,-9.692925453186035,1.3012486696243286,0.0468478724360466,0.0039927163161337376,-0.038330078125
3004750752750,0.8080430626869202,-9.704896926879883,1.3108254671096802,0.0487111397087574,0.006122165359556675,-0.0399271659553051
3004751990050,0.8451532125473022,-9.713275909423828,1.2701239585876465,0.0558980293571949,0.0063883461989462376,-0.0407257080078125
3004753227337,0.8319851160049438,-9.68933391571045,1.2413935661315918,0.0481787770986557,0.00958251953125,-0.0420566126704216
3004754464650,0.8607155084609985,-9.743204116821289,1.2868834733963013,0.0455169677734375,0.0031941730994731188,-0.0412580706179142
3004755701937,0.8762778043746948,-9.725247383117676,1.2725181579589844,0.0529700368642807,0.0039927163161337376,-0.0460493303835392
3004756939225,0.8619126081466675,-9.732430458068848,1.2401964664459229,0.0508405901491642,0.0021294488105922937,-0.0489773228764534
3004758176525,0.8487445116043091,-9.713275909423828,1.2880805730819702,0.0508405901491642,0.0031941730994731188,-0.04791259765625
3004759413812,0.8942343592643738,-9.726444244384766,1.2629413604736328,0.0503082275390625,0.0015970865497365594,-0.0500420443713665
3004760651125,0.8978256583213806,-9.703699111938477,1.2629413604736328,0.0543009415268898,-0.0005323622026480734,-0.052703857421875
3004761888400,0.889445960521698,-9.727641105651855,1.2773066759109497,0.0556318499147892,-0.0010647244052961469,-0.0513729527592659
3004763125687,0.8846575617790222,-9.730035781860352,1.3108254671096802,0.0511067695915699,-0.0031941730994731188,-0.0495096817612648
3004764362975,0.8966285586357117,-9.720458984375,1.3503297567367554,0.0505744069814682,0.0023956298828125,-0.0516391322016716
3004765600300,0.8918401598930359,-9.71926212310791,1.3515268564224243,0.0529700368642807,0.0029279920272529125,-0.0516391322016716
3004766837562,0.9217676520347595,-9.731232643127441,1.2773066759109497,0.0511067695915699,0.0031941730994731188,-0.0516391322016716
3004768074887,0.8427590131759644,-9.716867446899414,1.334767460823059,0.0505744069814682,-0.0031941730994731188,-0.0558980293571949
3004769312175,0.8750807046890259,-9.739612579345703,1.3239935636520386,0.0519053116440773,-0.00692070834338665,-0.0569627545773983
3004770549475,0.9026140570640564,-9.734824180603027,1.3096283674240112,0.0543009415268898,-0.0037265352439135313,-0.0566965714097023
3004771786762,0.8690952062606812,-9.714473724365234,1.3072341680526733,0.0492435023188591,-0.0010647244052961469,-0.0566965714097023
3004773024062,0.8774749040603638,-9.732430458068848,1.3180080652236938,0.0484449602663517,-0.0005323622026480734,-0.0606892891228199
3004774261337,0.8870517611503601,-9.740809440612793,1.290474772453308,0.0468478724360466,0.005057440605014563,-0.057228934019804
3004775498637,0.8535329103469849,-9.746795654296875,1.313219666481018,0.0561642125248909,0.0026618109550327063,-0.0601569265127182
3004776735937,0.8750807046890259,-9.759963035583496,1.2773066759109497,0.052703857421875,0.0023956298828125,-0.0636172816157341
3004777973237,0.8786720037460327,-9.734824180603027,1.2892776727676392,0.0521714948117733,0.0015970865497365594,-0.0604231096804142
3004779210525,0.8463503122329712,-9.738415718078613,1.2820950746536255,0.0503082275390625,0.0013309054775163531,-0.0566965714097023
3004780447825,0.8738836050033569,-9.791088104248047,1.2761094570159912,0.0513729527592659,-0.0037265352439135313,-0.0593583844602108
3004781685112,0.8487445116043091,-9.750386238098145,1.314416766166687,0.0481787770986557,0.0005323622026480734,-0.0628187358379364
3004782922400,0.8427590131759644,-9.765949249267578,1.3311761617660522,0.0529700368642807,-0.0013309054775163531,-0.0574951171875
3004784159712,0.872686505317688,-9.750386238098145,1.3431471586227417,0.0519053116440773,-0.0013309054775163531,-0.0564303919672966
3004785396987,0.8523358106613159,-9.706093788146973,1.3215993642807007,0.0487111397087574,-0.0029279920272529125,-0.0588260218501091
3004786634287,0.8487445116043091,-9.72165584564209,1.3395558595657349,0.0463155098259449,-0.0010647244052961469,-0.0606892891228199
3004787871562,0.8978256583213806,-9.761160850524902,1.3455413579940796,0.0500420443713665,0.0002661811013240367,-0.0574951171875
3004789108887,0.8535329103469849,-9.769539833068848,1.2820950746536255,0.0532362200319767,0.0,-0.0550994873046875
3004790346175,0.9050082564353943,-9.743204116821289,1.3048399686813354,0.0511067695915699,-0.0002661811013240367,-0.0566965714097023
3004791583475,0.9133879542350769,-9.727641105651855,1.2844892740249634,0.0521714948117733,-0.0026618109550327063,-0.0532362200319767
3004792820737,0.9409212470054626,-9.747992515563965,1.3024457693099976,0.052437674254179,0.0010647244052961469,-0.0535023994743824
3004794058062,0.9397241473197937,-9.726444244384766,1.3024457693099976,0.0508405901491642,-0.0039927163161337376,-0.0521714948117733
3004795295350,0.9457097053527832,-9.737218856811523,1.2773066759109497,0.0508405901491642,-0.0013309054775163531,-0.0545671246945858
3004796532650,0.9624691009521484,-9.786299705505371,1.3024457693099976,0.0513729527592659,-0.0066545275039970875,-0.0529700368642807
3004797769937,0.9552865028381348,-9.787496566772461,1.3539210557937622,0.0495096817612648,0.0010647244052961469,-0.052703857421875
3004799007237,0.9229647517204285,-9.774328231811523,1.3503297567367554,0.0545671246945858,-0.0005323622026480734,-0.047646414488554
3004800244525,0.9301473498344421,-9.806650161743164,1.292868971824646,0.0468478724360466,-0.00452507846057415,-0.0548333041369915
3004801481812,0.950498104095459,-9.791088104248047,1.357512354850769,0.0452507846057415,-0.0063883461989462376,-0.0532362200319767
3004802719112,0.9636662006378174,-9.81143856048584,1.3323732614517212,0.04791259765625,-0.0039927163161337376,-0.0516391322016716
3004803956400,0.9528923034667969,-9.769539833068848,1.4030022621154785,0.047646414488554,-0.0021294488105922937,-0.0503082275390625
3004805193700,0.993593692779541,-9.835380554199219,1.3658920526504517,0.0492435023188591,-0.00692070834338665,-0.0553656667470932
3004806431000,0.9660604000091553,-9.819818496704102,1.3180080652236938,0.0487111397087574,-0.008251613937318325,-0.0543009415268898
3004807668287,0.9564836025238037,-9.774328231811523,1.3539210557937622,0.0503082275390625,-0.0029279920272529125,-0.0516391322016716
3004808905587,0.9445126056671143,-9.782708168029785,1.3419500589370728,0.0441860631108284,-0.0063883461989462376,-0.0545671246945858
3004810142862,0.9445126056671143,-9.780314445495605,1.315613865852356,0.0481787770986557,-0.00692070834338665,-0.0503082275390625
3004811380175,0.950498104095459,-9.746795654296875,1.3503297567367554,0.0439198799431324,-0.006122165359556675,-0.0497758649289608
3004812617450,0.9409212470054626,-9.738415718078613,1.335964560508728,0.0481787770986557,-0.0039927163161337376,-0.0487111397087574
3004813854775,0.9457097053527832,-9.793481826782227,1.3227964639663696,0.0463155098259449,-0.0018632676219567657,-0.0471140518784523
3004815092062,0.9445126056671143,-9.737218856811523,1.359906554222107,0.0393948033452034,-0.008251613937318325,-0.0468478724360466
3004816329337,0.9672574996948242,-9.795876502990723,1.359906554222107,0.0455169677734375,-0.0090501569211483,-0.0447184219956398
3004817566637,0.973242998123169,-9.785102844238281,1.3048399686813354,0.0457831472158432,-0.007985432632267475,-0.0425889752805233
3004818803925,0.9385270476341248,-9.756372451782227,1.3539210557937622,0.038063894957304,-0.0023956298828125,-0.043121337890625
3004820041237,0.9217676520347595,-9.762357711791992,1.316810965538025,0.0452507846057415,-0.0015970865497365594,-0.0417904332280159
3004821278537,0.9277531504631042,-9.740809440612793,1.3634978532791138,0.04791259765625,-0.0042588976211845875,-0.0425889752805233
3004822515812,0.9301473498344421,-9.736021041870117,1.3646949529647827,0.0447184219956398,-0.003460354171693325,-0.0377977155148983
3004823753112,0.9253589510917664,-9.745597839355469,1.3706804513931274,0.0436537005007267,-0.0023956298828125,-0.0420566126704216
3004824990412,0.9385270476341248,-9.75278091430664,1.3551181554794312,0.0388624407351017,-0.0031941730994731188,-0.043121337890625
3004826227712,0.9433155059814453,-9.734824180603027,1.3299790620803833,0.0393948033452034,-0.0039927163161337376,-0.0441860631108284
3004827465000,0.9253589510917664,-9.691728591918945,1.334767460823059,0.0423227921128273,-0.0026618109550327063,-0.043121337890625
3004828702300,0.9002198576927185,-9.727641105651855,1.3395558595657349,0.0439198799431324,-0.00452507846057415,-0.0436537005007267
3004829939575,0.9421183466911316,-9.731232643127441,1.3000515699386597,0.0385962575674057,-0.0063883461989462376,-0.0388624407351017
3004831176862,0.9157821536064148,-9.68933391571045,1.3048399686813354,0.0433875173330307,-0.005057440605014563,-0.0396609827876091
3004832414175,0.9085995554924011,-9.728838920593262,1.3563152551651,0.0465816929936409,-0.00452507846057415,-0.0393948033452034
3004833651462,0.9062053561210632,-9.724050521850586,1.3072341680526733,0.043121337890625,-0.003460354171693325,-0.0393948033452034
3004834888762,0.9301473498344421,-9.72165584564209,1.3539210557937622,0.0455169677734375,-0.0053236219100654125,-0.0417904332280159
3004836126050,0.8667010068893433,-9.738415718078613,1.3718775510787964,0.0396609827876091,-0.003460354171693325,-0.0423227921128273
3004837363350,0.8786720037460327,-9.700108528137207,1.3251906633377075,0.0399271659553051,-0.0023956298828125,-0.0465816929936409
3004838600637,0.9133879542350769,-9.732430458068848,1.3443442583084106,0.043121337890625,-0.0066545275039970875,-0.0417904332280159
3004839837937,0.8822633624076843,-9.740809440612793,1.3455413579940796,0.0449846051633358,-0.0002661811013240367,-0.0377977155148983
3004841075225,0.8631097078323364,-9.75397777557373,1.3419500589370728,0.0484449602663517,-0.0007985432748682797,-0.0473802350461483
3004842312512,0.8655039072036743,-9.732430458068848,1.3431471586227417,0.0455169677734375,-0.0039927163161337376,-0.0439198799431324
3004843549825,0.8547300100326538,-9.750386238098145,1.3227964639663696,0.0471140518784523,-0.0037265352439135313,-0.0420566126704216
3004844787112,0.9002198576927185,-9.6989107131958,1.2988544702529907,0.0508405901491642,-0.0026618109550327063,-0.0391286201775074
3004846024400,0.8798691034317017,-9.759963035583496,1.3287819623947144,0.047646414488554,0.0005323622026480734,-0.0412580706179142
3004847261700,0.8523358106613159,-9.75517463684082,1.3670891523361206,0.0495096817612648,0.0002661811013240367,-0.0417904332280159
3004848499000,0.8846575617790222,-9.763554573059082,1.3646949529647827,0.047646414488554,0.0026618109550327063,-0.0351359061896801
3004849736287,0.9289502501487732,-9.782708168029785,1.3455413579940796,0.0500420443713665,0.0002661811013240367,-0.0393948033452034
3004850973600,0.9014169573783875,-9.81024169921875,1.3419500589370728,0.0497758649289608,0.0018632676219567657,-0.0393948033452034
3004852210887,0.8798691034317017,-9.798270225524902,1.3263877630233765,0.0521714948117733,0.0031941730994731188,-0.0433875173330307
3004853448175,0.9205705523490906,-9.77552604675293,1.3311761617660522,0.0487111397087574,-0.0005323622026480734,-0.042855154722929
3004854685462,0.9050082564353943,-9.762357711791992,1.358709454536438,0.0489773228764534,0.0010647244052961469,-0.038330078125
3004855922762,0.9313444495201111,-9.849745750427246,1.3682862520217896,0.052437674254179,0.0007985432748682797,-0.0399271659553051
3004857160062,0.9421183466911316,-9.797073364257812,1.3084312677383423,0.052437674254179,0.0026618109550327063,-0.0415242500603199
3004858397362,0.9074024558067322,-9.837775230407715,1.3311761617660522,0.0444522425532341,0.0077192517928779125,-0.0409918874502182
3004859634637,0.9540894031524658,-9.780314445495605,1.3491326570510864,0.0449846051633358,0.004791259765625,-0.0404595248401165
3004860871950,0.9552865028381348,-9.828198432922363,1.3491326570510864,0.0481787770986557,0.0023956298828125,-0.042855154722929
3004862109250,0.950498104095459,-9.832986831665039,1.3455413579940796,0.0457831472158432,0.0031941730994731188,-0.043121337890625
3004863346537,0.9552865028381348,-9.831789016723633,1.335964560508728,0.0420566126704216,0.0023956298828125,-0.0449846051633358
3004864583825,0.94930100440979,-9.823410034179688,1.3479355573654175,0.047646414488554,0.0007985432748682797,-0.0433875173330307
3004865821125,0.9684545993804932,-9.854534149169922,1.3527239561080933,0.047646414488554,0.0053236219100654125,-0.047646414488554
3004867058425,0.9397241473197937,-9.823410034179688,1.3479355573654175,0.0471140518784523,0.0026618109550327063,-0.0449846051633358
3004868295700,0.9385270476341248,-9.852140426635742,1.3299790620803833,0.0447184219956398,0.0026618109550327063,-0.0473802350461483
3004869533000,0.9648633003234863,-9.861717224121094,1.3120225667953491,0.0433875173330307,0.008517795242369175,-0.0471140518784523
3004870770287,0.9840168952941895,-9.832986831665039,1.334767460823059,0.0412580706179142,0.0039927163161337376,-0.0465816929936409
3004872007575,0.9349357485771179,-9.84376049041748,1.2892776727676392,0.0415242500603199,0.0029279920272529125,-0.0457831472158432
3004873244900,0.9636662006378174,-9.827000617980957,1.3072341680526733,0.0439198799431324,0.0018632676219567657,-0.0449846051633358
3004874482175,0.9205705523490906,-9.805453300476074,1.337161660194397,0.0471140518784523,-0.0018632676219567657,-0.0423227921128273
3004875719475,0.9804255962371826,-9.84376049041748,1.3048399686813354,0.0401933453977108,0.0007985432748682797,-0.042855154722929
3004876956775,0.9457097053527832,-9.797073364257812,1.2988544702529907,0.0324740931391716,0.0039927163161337376,-0.0457831472158432
3004878194087,0.9361328482627869,-9.852140426635742,1.3096283674240112,0.038063894957304,0.0007985432748682797,-0.0441860631108284
3004879431337,0.9900023937225342,-9.84615421295166,1.2797008752822876,0.0412580706179142,0.0005323622026480734,-0.0399271659553051
3004880668650,0.9983820915222168,-9.84495735168457,1.3299790620803833,0.0425889752805233,0.0031941730994731188,-0.0441860631108284
3004881905950,1.0031704902648926,-9.807847023010254,1.3275848627090454,0.0340711809694767,0.0013309054775163531,-0.0415242500603199
3004883143250,0.9768342971801758,-9.825803756713867,1.3192051649093628,0.0362006276845932,0.0002661811013240367,-0.0452507846057415
3004884380537,0.9995791912078857,-9.830592155456543,1.2665326595306396,0.0401933453977108,0.0029279920272529125,-0.0393948033452034
3004885617825,0.9744400978088379,-9.805453300476074,1.335964560508728,0.0425889752805233,0.0005323622026480734,-0.0407257080078125
3004886855125,0.9133879542350769,-9.836577415466309,1.335964560508728,0.0385962575674057,-0.0042588976211845875,-0.0393948033452034
3004888092425,0.9038111567497253,-9.803058624267578,1.3000515699386597,0.0385962575674057,-0.0013309054775163531,-0.0388624407351017
3004889329725,0.9528923034667969,-9.800664901733398,1.2737152576446533,0.0396609827876091,-0.0029279920272529125,-0.0423227921128273
3004890567012,0.933738648891449,-9.805453300476074,1.2665326595306396,0.0343373604118824,-0.0018632676219567657,-0.0399271659553051
3004891804300,0.9349357485771179,-9.801861763000488,1.2797008752822876,0.0351359061896801,0.0015970865497365594,-0.0367329902946949
3004893041587,0.9433155059814453,-9.765949249267578,1.2892776727676392,0.0354020856320858,0.0002661811013240367,-0.033538818359375
3004894278875,0.970848798751831,-9.780314445495605,1.3036428689956665,0.0346035435795784,-0.0018632676219567657,-0.0372653529047966
3004895516175,0.9696516990661621,-9.81024169921875,1.3108254671096802,0.0362006276845932,-0.0007985432748682797,-0.0354020856320858
3004896753487,0.9445126056671143,-9.797073364257812,1.256955862045288,0.0369991734623909,-0.0015970865497365594,-0.02901373989880085
3004897990775,0.9696516990661621,-9.801861763000488,1.3060370683670044,0.0364668108522892,-0.0005323622026480734,-0.0351359061896801
3004899228100,0.9373299479484558,-9.824606895446777,1.3012486696243286,0.0314093679189682,-0.0029279920272529125,-0.0385962575674057
3004900465375,0.9445126056671143,-9.852140426635742,1.2808979749679565,0.0311431884765625,-0.0002661811013240367,-0.0348697230219841
3004901702650,0.9397241473197937,-9.823410034179688,1.3024457693099976,0.038063894957304,0.0,-0.0311431884765625
3004902939962,0.9253589510917664,-9.830592155456543,1.3180080652236938,0.0343373604118824,-0.0005323622026480734,-0.0367329902946949
3004904177250,0.9564836025238037,-9.813833236694336,1.2844892740249634,0.033272635191679,-0.0023956298828125,-0.033272635191679
3004905414550,0.9361328482627869,-9.829395294189453,1.2868834733963013,0.0354020856320858,-0.0039927163161337376,-0.0319417305290699
3004906651850,0.9564836025238037,-9.850942611694336,1.2785037755966187,0.0338049978017807,-0.0018632676219567657,-0.033538818359375
3004907889137,0.9720458984375,-9.84256362915039,1.2808979749679565,0.0340711809694767,-0.0021294488105922937,-0.0322079136967659
3004909126425,0.9636662006378174,-9.81024169921875,1.314416766166687,0.0314093679189682,0.0021294488105922937,-0.0319417305290699
3004910363725,0.9313444495201111,-9.827000617980957,1.258152961730957,0.0322079136967659,0.0,-0.033538818359375
3004911601025,0.9349357485771179,-9.81143856048584,1.3084312677383423,0.0367329902946949,-0.0023956298828125,-0.0306108258664608
3004912838312,0.9445126056671143,-9.803058624267578,1.315613865852356,0.033272635191679,-0.0010647244052961469,-0.0346035435795784
3004914075612,0.9516952037811279,-9.860519409179688,1.292868971824646,0.0354020856320858,-0.0042588976211845875,-0.0364668108522892
3004915312900,0.9540894031524658,-9.805453300476074,1.3251906633377075,0.0423227921128273,-0.003460354171693325,-0.0316755510866642
3004916550200,0.9840168952941895,-9.864110946655273,1.2952631711959839,0.0351359061896801,-0.0005323622026480734,-0.0327402763068676
3004917787487,0.9600749015808105,-9.865307807922363,1.3431471586227417,0.03034464456140995,0.0005323622026480734,-0.0338049978017807
3004919024775,0.973242998123169,-9.890447616577148,1.3419500589370728,0.033538818359375,-0.0063883461989462376,-0.0354020856320858
3004920262075,0.9684545993804932,-9.883264541625977,1.3419500589370728,0.0327402763068676,-0.004791259765625,-0.0322079136967659
3004921499375,1.0055646896362305,-9.889249801635742,1.2976573705673218,0.0327402763068676,0.0002661811013240367,-0.02981228195130825
3004922736662,0.9995791912078857,-9.916783332824707,1.2761094570159912,0.0324740931391716,-0.0015970865497365594,-0.0314093679189682
3004923973987,0.9864110946655273,-9.90361499786377,1.3024457693099976,0.0338049978017807,-0.0021294488105922937,-0.033272635191679
3004925211250,0.9804255962371826,-9.913191795349121,1.3419500589370728,0.0319417305290699,-0.0037265352439135313,-0.033538818359375
3004926448562,0.9385270476341248,-9.931148529052734,1.337161660194397,0.033538818359375,-0.0066545275039970875,-0.0311431884765625
3004927685850,1.0007762908935547,-9.944316864013672,1.291671872138977,0.0340711809694767,-0.00692070834338665,-0.0356682650744915
3004928923137,0.9768342971801758,-9.921571731567383,1.3000515699386597,0.0348697230219841,-0.006122165359556675,-0.0362006276845932
3004930160437,0.9828197956085205,-9.943120002746582,1.3215993642807007,0.0276828333735466,-0.010114881210029125,-0.038063894957304
3004931397737,0.9864110946655273,-9.886856079101562,1.2868834733963013,0.0258195661008358,-0.00984870083630085,-0.0330064557492733
3004932635037,0.9469068050384521,-9.921571731567383,1.2988544702529907,0.0223592109978199,-0.0023956298828125,-0.0343373604118824
3004933872325,0.9397241473197937,-9.909601211547852,1.2820950746536255,0.0181003138422966,-0.003460354171693325,-0.0322079136967659
3004935109612,0.9624691009521484,-9.90122127532959,1.2880805730819702,0.0228915736079216,-0.007985432632267475,-0.0369991734623909
3004936346912,0.9469068050384521,-9.898826599121094,1.2880805730819702,0.02794901467859745,-0.0039927163161337376,-0.0388624407351017
3004937584200,0.9971849918365479,-9.849745750427246,1.3108254671096802,0.02315775491297245,-0.0090501569211483,-0.0356682650744915
3004938821512,0.8966285586357117,-9.800664901733398,1.291671872138977,0.0220930315554142,-0.0053236219100654125,-0.0343373604118824
3004940058800,0.9002198576927185,-9.798270225524902,1.3407529592514038,0.0186326764523983,-0.0026618109550327063,-0.0364668108522892
3004941296100,0.9241618514060974,-9.816226959228516,1.3251906633377075,0.01836649514734745,-0.0037265352439135313,-0.02874755859375
3004942533387,0.9301473498344421,-9.798270225524902,1.2880805730819702,0.01889885775744915,-0.0053236219100654125,-0.0340711809694767
3004943770675,0.9205705523490906,-9.786299705505371,1.3192051649093628,0.0258195661008358,-0.008517795242369175,-0.0367329902946949
3004945007962,0.9133879542350769,-9.77672290802002,1.3120225667953491,0.0258195661008358,-0.015438503585755825,-0.0340711809694767
3004946245275,0.9241618514060974,-9.804256439208984,1.3024457693099976,0.0223592109978199,-0.006122165359556675,-0.0338049978017807
3004947482550,0.9265560507774353,-9.781511306762695,1.3072341680526733,0.02076212503015995,0.0007985432748682797,-0.0324740931391716
3004948719850,0.9888052940368652,-9.800664901733398,1.3299790620803833,0.0196974016726017,-0.0013309054775163531,-0.0282151959836483
3004949957137,0.9684545993804932,-9.847352027893066,1.292868971824646,0.02182685025036335,-0.0053236219100654125,-0.0311431884765625
3004951194437,0.94930100440979,-9.824606895446777,1.3036428689956665,0.01996358297765255,-0.0039927163161337376,-0.0359344482421875
3004952431737,0.9792284965515137,-9.852140426635742,1.3204022645950317,0.02022976242005825,-0.0029279920272529125,-0.0311431884765625
3004953669037,0.9852139949798584,-9.864110946655273,1.2880805730819702,0.02022976242005825,0.0007985432748682797,-0.0330064557492733
3004954906312,0.933738648891449,-9.90122127532959,1.2713210582733154,0.0173017717897892,0.0010647244052961469,-0.033538818359375
3004956143625,0.9768342971801758,-9.870096206665039,1.2701239585876465,0.015172322280704975,-0.004791259765625,-0.0330064557492733
3004957380900,0.9409212470054626,-9.9000244140625,1.2952631711959839,0.01703559048473835,-0.004791259765625,-0.02981228195130825
3004958618225,0.9792284965515137,-9.870096206665039,1.2892776727676392,0.01463996060192585,0.0007985432748682797,-0.02874755859375
3004959855500,1.0007762908935547,-9.895236015319824,1.2761094570159912,0.0138414166867733,0.0,-0.0316755510866642
3004961092800,0.9576807022094727,-9.90361499786377,1.2988544702529907,0.01943122036755085,-0.0018632676219567657,-0.033538818359375
3004962330100,0.9684545993804932,-9.913191795349121,1.2808979749679565,0.01224433071911335,0.0026618109550327063,-0.0340711809694767
3004963567387,0.9241618514060974,-9.890447616577148,1.3036428689956665,0.012510511092841625,0.005589802749454975,-0.0364668108522892
3004964804675,0.9457097053527832,-9.873687744140625,1.2988544702529907,0.012776692397892475,-0.0015970865497365594,-0.0327402763068676
3004966041975,0.970848798751831,-9.880870819091797,1.3215993642807007,0.010913425125181675,-0.0015970865497365594,-0.02981228195130825
3004967279262,0.993593692779541,-9.855731010437012,1.3527239561080933,0.008517795242369175,-0.0002661811013240367,-0.02794901467859745
3004968516550,1.0007762908935547,-9.855731010437012,1.2976573705673218,0.010913425125181675,-0.0077192517928779125,-0.0282151959836483
3004969753875,0.9720458984375,-9.794679641723633,1.3227964639663696,0.00984870083630085,0.0013309054775163531,-0.0271504707634449
3004970991162,1.0103530883789062,-9.797073364257812,1.3251906633377075,0.008251613937318325,0.0071868896484375,-0.02874755859375
3004972228450,1.0031704902648926,-9.732430458068848,1.335964560508728,0.007453070487827063,-0.0037265352439135313,-0.0252872034907341
3004973465750,0.9804255962371826,-9.727641105651855,1.3036428689956665,0.010114881210029125,-0.0042588976211845875,-0.0228915736079216
3004974703037,0.99479079246521,-9.749189376831055,1.3311761617660522,0.007453070487827063,-0.0021294488105922937,-0.0228915736079216
3004975940337,1.0103530883789062,-9.750386238098145,1.3251906633377075,0.008517795242369175,-0.0005323622026480734,-0.0252872034907341
3004977177637,0.9828197956085205,-9.730035781860352,1.334767460823059,0.007453070487827063,-0.0037265352439135313,-0.02874755859375
3004978414925,1.0067617893218994,-9.715670585632324,1.3012486696243286,0.00692070834338665,-0.0021294488105922937,-0.0244886614382267
3004979652225,0.9923965930938721,-9.72165584564209,1.2976573705673218,0.0090501569211483,-0.0021294488105922937,-0.0215606689453125
3004980889512,1.01753568649292,-9.695320129394531,1.294066071510315,0.010381062515079975,-0.0010647244052961469,-0.023956298828125
3004982126825,1.0067617893218994,-9.746795654296875,1.2629413604736328,0.00958251953125,0.0013309054775163531,-0.0215606689453125
3004983364100,0.9469068050384521,-9.730035781860352,1.2509703636169434,0.007453070487827063,-0.0010647244052961469,-0.0228915736079216
3004984601400,0.9217676520347595,-9.715670585632324,1.313219666481018,0.0138414166867733,0.0010647244052961469,-0.0223592109978199
3004985838687,0.9457097053527832,-9.756372451782227,1.3323732614517212,0.015438503585755825,-0.0013309054775163531,-0.01410759799182415
3004987075975,0.933738648891449,-9.769539833068848,1.2773066759109497,0.015438503585755825,-0.0023956298828125,-0.02262539230287075
3004988313287,0.9085995554924011,-9.77552604675293,1.2689268589019775,0.014906140975654125,-0.0018632676219567657,-0.0244886614382267
3004989550587,0.950498104095459,-9.81143856048584,1.2318167686462402,0.0138414166867733,-0.0018632676219567657,-0.0196974016726017
3004990787862,0.9828197956085205,-9.774328231811523,1.2545616626739502,0.0114457868039608,0.0002661811013240367,-0.0196974016726017
3004992025137,0.9768342971801758,-9.773131370544434,1.3108254671096802,0.01224433071911335,0.0037265352439135313,-0.01889885775744915
3004993262462,1.0007762908935547,-9.828198432922363,1.3012486696243286,0.014906140975654125,0.0015970865497365594,-0.01836649514734745
3004994499762,1.0043675899505615,-9.836577415466309,1.3239935636520386,0.01357523538172245,0.0039927163161337376,-0.02661811001598835
3004995737037,0.9864110946655273,-9.816226959228516,1.2844892740249634,0.01597086526453495,0.0007985432748682797,-0.0234239362180233
3004996974325,0.99479079246521,-9.789891242980957,1.3251906633377075,0.01836649514734745,0.0010647244052961469,-0.0181003138422966
3004998211650,1.0043675899505615,-9.763554573059082,1.315613865852356,0.0173017717897892,0.0018632676219567657,-0.01889885775744915
3004999448925,1.0283095836639404,-9.774328231811523,1.3204022645950317,0.01410759799182415,0.0002661811013240367,-0.01756795309484005
3005000686212,0.993593692779541,-9.816226959228516,1.3251906633377075,0.010114881210029125,0.0005323622026480734,-0.0215606689453125
3005001923537,1.016338586807251,-9.803058624267578,1.3299790620803833,0.00984870083630085,-0.0018632676219567657,-0.0196974016726017
3005003160825,1.05105459690094,-9.771934509277344,1.3215993642807007,0.0114457868039608,-0.0002661811013240367,-0.0220930315554142
3005004398137,1.016338586807251,-9.792284965515137,1.3491326570510864,0.01117960549890995,0.0021294488105922937,-0.01703559048473835
3005005635400,1.0414777994155884,-9.791088104248047,1.334767460823059,0.00931633822619915,-0.0007985432748682797,-0.015172322280704975
3005006872712,1.0235211849212646,-9.764751434326172,1.3108254671096802,0.008251613937318325,0.0007985432748682797,-0.01836649514734745
3005008110000,1.0893617868423462,-9.762357711791992,1.3204022645950317,0.00692070834338665,-0.0002661811013240367,-0.02022976242005825
3005009347275,1.0354923009872437,-9.773131370544434,1.3539210557937622,0.0090501569211483,-0.0007985432748682797,-0.0191650390625
3005010584587,1.0414777994155884,-9.736021041870117,1.3658920526504517,0.005855984054505825,0.0015970865497365594,-0.01889885775744915
3005011821887,1.049857497215271,-9.731232643127441,1.3204022645950317,0.007985432632267475,-0.003460354171693325,-0.01756795309484005
3005013059162,1.0259153842926025,-9.767146110534668,1.314416766166687,0.0066545275039970875,0.0,-0.01836649514734745
3005014296462,0.99479079246521,-9.68694019317627,1.2808979749679565,0.006122165359556675,-0.003460354171693325,-0.01357523538172245
3005015533775,1.0259153842926025,-9.6989107131958,1.3227964639663696,0.005589802749454975,-0.0005323622026480734,-0.01703559048473835
3005016771075,1.0295066833496094,-9.715670585632324,1.3263877630233765,0.00984870083630085,-0.0015970865497365594,-0.0162370465695858
3005018008350,1.0067617893218994,-9.716867446899414,1.3287819623947144,0.006122165359556675,-0.00452507846057415,-0.01463996060192585
3005019245650,1.0079588890075684,-9.720458984375,1.3646949529647827,0.00692070834338665,0.0007985432748682797,-0.0162370465695858
3005020482950,1.0378865003585815,-9.683348655700684,1.3323732614517212,-0.0002661811013240367,0.0007985432748682797,-0.01410759799182415
3005021720250,1.0067617893218994,-9.701305389404297,1.3084312677383423,0.0023956298828125,0.0002661811013240367,-0.008783976547420025
3005022957537,1.0366894006729126,-9.680954933166504,1.2880805730819702,0.007453070487827063,-0.005589802749454975,-0.0053236219100654125
3005024194825,1.0199298858642578,-9.706093788146973,1.2892776727676392,0.0031941730994731188,-0.008783976547420025,-0.0071868896484375
3005025432137,1.0187327861785889,-9.708487510681152,1.2737152576446533,0.0031941730994731188,-0.0066545275039970875,-0.0090501569211483
3005026669425,1.0534487962722778,-9.694122314453125,1.3455413579940796,0.010913425125181675,-0.0010647244052961469,-0.006122165359556675
3005027906712,1.0199298858642578,-9.68933391571045,1.334767460823059,0.013309055007994175,-0.0021294488105922937,-0.0039927163161337376
3005029144012,0.9983820915222168,-9.678560256958008,1.2677297592163086,0.01171196810901165,-0.0015970865497365594,-0.0010647244052961469
3005030381312,0.9911994934082031,-9.692925453186035,1.2725181579589844,0.00958251953125,-0.0037265352439135313,-0.0042588976211845875
3005031618612,1.013944387435913,-9.707290649414062,1.3000515699386597,0.00931633822619915,-0.0053236219100654125,-0.00984870083630085
3005032855875,1.0031704902648926,-9.75397777557373,1.3706804513931274,0.0066545275039970875,-0.003460354171693325,-0.0077192517928779125
3005034093175,0.9923965930938721,-9.746795654296875,1.3670891523361206,0.0063883461989462376,-0.006122165359556675,0.0005323622026480734
3005035330475,1.0223240852355957,-9.783905029296875,1.3263877630233765,0.013309055007994175,-0.008783976547420025,0.0029279920272529125
3005036567762,1.0414777994155884,-9.792284965515137,1.3335703611373901,0.012776692397892475,-0.0077192517928779125,0.0015970865497365594
3005037805075,1.0582371950149536,-9.77791976928711,1.3311761617660522,0.0066545275039970875,-0.0063883461989462376,0.0066545275039970875
3005039042375,1.0127472877502441,-9.77672290802002,1.3431471586227417,0.00984870083630085,-0.007985432632267475,0.00984870083630085
3005040279650,1.0271124839782715,-9.758766174316406,1.3670891523361206,0.007453070487827063,-0.004791259765625,0.007985432632267475
3005041516950,1.049857497215271,-9.747992515563965,1.3539210557937622,0.0063883461989462376,-0.00958251953125,0.01357523538172245
3005042754262,1.0522516965866089,-9.75158405303955,1.3407529592514038,0.00984870083630085,-0.010913425125181675,0.01756795309484005
3005043991550,1.0678139925003052,-9.770737648010254,1.338358759880066,0.0071868896484375,-0.005855984054505825,0.01410759799182415
3005045228837,1.0402806997299194,-9.774328231811523,1.3730746507644653,0.01171196810901165,-0.00984870083630085,0.0157046839594841
3005046466137,1.0594342947006226,-9.746795654296875,1.3623007535934448,0.010114881210029125,-0.0114457868039608,0.02369011752307415
3005047703437,1.047463297843933,-9.763554573059082,1.3874398469924927,0.01117960549890995,-0.00931633822619915,0.0220930315554142
3005048940712,1.0761936902999878,-9.817423820495605,1.3611036539077759,0.010647243820130825,-0.013309055007994175,0.0173017717897892
3005050177987,1.0761936902999878,-9.84376049041748,1.3766659498214722,0.01117960549890995,-0.008517795242369175,0.02182685025036335
3005051415312,1.0666168928146362,-9.852140426635742,1.3838485479354858,0.01171196810901165,-0.0026618109550327063,0.0234239362180233
3005052652600,1.0678139925003052,-9.832986831665039,1.4113819599151611,0.00958251953125,-0.005855984054505825,0.0196974016726017
3005053889912,1.0654197931289673,-9.872490882873535,1.3838485479354858,0.0114457868039608,-0.01171196810901165,0.0252872034907341
3005055127187,1.0582371950149536,-9.931148529052734,1.3527239561080933,0.0077192517928779125,-0.00931633822619915,0.02794901467859745
3005056364475,1.092953085899353,-9.951498985290527,1.3658920526504517,0.00692070834338665,-0.00692070834338665,0.023956298828125
3005057601775,1.0043675899505615,-9.981427192687988,1.3946224451065063,0.0029279920272529125,-0.007985432632267475,0.02129448764026165
3005058839087,1.0414777994155884,-9.9371337890625,1.3730746507644653,0.0039927163161337376,-0.007985432632267475,0.02022976242005825
3005060076362,1.0295066833496094,-9.953893661499023,1.357512354850769,0.005855984054505825,-0.00984870083630085,0.01889885775744915
3005061313662,1.0414777994155884,-9.96945571899414,1.3742717504501343,-0.0007985432748682797,-0.0063883461989462376,0.0162370465695858
3005062550962,1.0223240852355957,-9.946710586547852,1.3886369466781616,-0.0037265352439135313,-0.010114881210029125,0.01224433071911335
3005063788250,1.0079588890075684,-9.943120002746582,1.3718775510787964,-0.007453070487827063,-0.006122165359556675,0.012776692397892475
3005065025562,1.0546458959579468,-9.946710586547852,1.3611036539077759,-0.010913425125181675,-0.01117960549890995,0.00984870083630085
3005066262850,1.0079588890075684,-9.93354320526123,1.3287819623947144,-0.01171196810901165,-0.010647243820130825,0.0119781494140625
3005067500150,0.9780313968658447,-9.916783332824707,1.337161660194397,-0.01410759799182415,-0.0063883461989462376,0.006122165359556675
3005068737437,1.0055646896362305,-9.904812812805176,1.3407529592514038,-0.01650322787463665,-0.003460354171693325,-0.0005323622026480734
3005069974725,1.0067617893218994,-9.895236015319824,1.3012486696243286,-0.01597086526453495,-0.01410759799182415,0.0053236219100654125
3005071212025,1.0079588890075684,-9.860519409179688,1.2701239585876465,-0.0173017717897892,-0.00984870083630085,0.0026618109550327063
3005072449312,1.0283095836639404,-9.841365814208984,1.335964560508728,-0.01836649514734745,-0.008783976547420025,0.0029279920272529125
3005073686612,1.01753568649292,-9.789891242980957,1.357512354850769,-0.0181003138422966,-0.00931633822619915,0.0
3005074923912,1.0390836000442505,-9.828198432922363,1.337161660194397,-0.02022976242005825,-0.015438503585755825,0.006122165359556675
3005076161212,1.0271124839782715,-9.806650161743164,1.3395558595657349,-0.02076212503015995,-0.01171196810901165,-0.0002661811013240367
3005077398500,1.0905588865280151,-9.782708168029785,1.3970166444778442,-0.01996358297765255,-0.010647243820130825,-0.00452507846057415
3005078635812,1.0654197931289673,-9.824606895446777,1.3730746507644653,-0.0215606689453125,-0.006122165359556675,-0.0015970865497365594
3005079873100,1.049857497215271,-9.792284965515137,1.3479355573654175,-0.0167694091796875,-0.013042873702943325,-0.0010647244052961469
3005081110387,1.0761936902999878,-9.799468040466309,1.3527239561080933,-0.0167694091796875,-0.01410759799182415,-0.0007985432748682797
3005082347687,1.0378865003585815,-9.795876502990723,1.3646949529647827,-0.0186326764523983,-0.0090501569211483,-0.0031941730994731188
3005083584975,1.0797849893569946,-9.822212219238281,1.3563152551651,-0.0167694091796875,-0.010381062515079975,-0.007453070487827063
3005084822275,1.07379949092865,-9.786299705505371,1.3623007535934448,-0.0157046839594841,-0.01117960549890995,-0.0031941730994731188
3005086059550,1.0893617868423462,-9.828198432922363,1.381454348564148,-0.013042873702943325,-0.01463996060192585,-0.0015970865497365594
3005087296850,1.1204863786697388,-9.806650161743164,1.3970166444778442,-0.01783413253724575,-0.01597086526453495,-0.0021294488105922937
3005088534162,1.094150185585022,-9.80904483795166,1.3862427473068237,-0.0167694091796875,-0.015172322280704975,-0.0002661811013240367
3005089771450,1.1013327836990356,-9.803058624267578,1.3539210557937622,-0.01463996060192585,-0.00958251953125,-0.0053236219100654125
3005091008737,1.114500880241394,-9.782708168029785,1.3982137441635132,-0.01117960549890995,-0.01171196810901165,-0.006122165359556675
3005092246037,1.113303780555725,-9.764751434326172,1.4317326545715332,-0.01756795309484005,-0.0138414166867733,-0.0026618109550327063
3005093483337,1.1216834783554077,-9.791088104248047,1.4293384552001953,-0.0173017717897892,-0.0173017717897892,-0.0015970865497365594
3005094720625,1.1851298809051514,-9.781511306762695,1.4425065517425537,-0.0173017717897892,-0.01703559048473835,-0.0010647244052961469
3005095957937,1.1240776777267456,-9.737218856811523,1.436521053314209,-0.0167694091796875,-0.02022976242005825,-0.006122165359556675
3005097195212,1.1192892789840698,-9.703699111938477,1.4425065517425537,-0.02076212503015995,-0.01650322787463665,-0.003460354171693325
3005098432525,1.1300631761550903,-9.708487510681152,1.4089877605438232,-0.0186326764523983,-0.0173017717897892,-0.0023956298828125
3005099669812,1.1599907875061035,-9.68933391571045,1.459265947341919,-0.01703559048473835,-0.01943122036755085,0.0
3005100907100,1.1575965881347656,-9.680954933166504,1.41257905960083,-0.0191650390625,-0.01943122036755085,-0.00452507846057415
3005102144400,1.1324573755264282,-9.728838920593262,1.3970166444778442,-0.0162370465695858,-0.0186326764523983,-0.0031941730994731188
3005103381700,1.1228805780410767,-9.697713851928711,1.3623007535934448,-0.0157046839594841,-0.02129448764026165,-0.0013309054775163531
3005104618975,1.1563994884490967,-9.674968719482422,1.3982137441635132,-0.012776692397892475,-0.02022976242005825,-0.0005323622026480734
3005105856287,1.1264718770980835,-9.706093788146973,1.3527239561080933,-0.0114457868039608,-0.0215606689453125,0.0018632676219567657
3005107093575,1.137245774269104,-9.692925453186035,1.4209587574005127,-0.013309055007994175,-0.01889885775744915,0.003460354171693325
3005108330875,1.1288660764694214,-9.696516990661621,1.3970166444778442,-0.012776692397892475,-0.0228915736079216,0.0015970865497365594
3005109568175,1.0821791887283325,-9.680954933166504,1.3982137441635132,-0.0090501569211483,-0.0306108258664608,0.005057440605014563
3005110805487,1.1252747774124146,-9.659406661987305,1.416170358657837,-0.0063883461989462376,-0.02661811001598835,0.003460354171693325
3005112042762,1.137245774269104,-9.645041465759277,1.459265947341919,-0.006122165359556675,-0.02502102218568325,0.0063883461989462376
3005113280050,1.1300631761550903,-9.639056205749512,1.4508862495422363,-0.0053236219100654125,-0.03087700717151165,0.010647243820130825
3005114517350,1.1623849868774414,-9.59835433959961,1.4209587574005127,-0.007453070487827063,-0.0324740931391716,0.00958251953125
3005115754637,1.1683704853057861,-9.59715747833252,1.4006080627441406,-0.00692070834338665,-0.033538818359375,0.015438503585755825
3005116991925,1.1336544752120972,-9.585186958312988,1.3958195447921753,-0.00452507846057415,-0.0311431884765625,0.01224433071911335
3005118229225,1.1300631761550903,-9.551668167114258,1.4197616577148438,-0.0023956298828125,-0.02741665206849575,0.012776692397892475
3005119466525,1.1623849868774414,-9.575610160827637,1.4173674583435059,-0.0021294488105922937,-0.03087700717151165,0.013042873702943325
3005120703825,1.1635820865631104,-9.551668167114258,1.434126853942871,-0.0002661811013240367,-0.0316755510866642,0.014373779296875
3005121941100,1.1312602758407593,-9.580398559570312,1.456871747970581,0.005589802749454975,-0.03087700717151165,0.0210283063352108
3005123178412,1.1252747774124146,-9.616311073303223,1.4389152526855469,0.0090501569211483,-0.0359344482421875,0.02076212503015995
3005124415712,1.1743559837341309,-9.603142738342285,1.4401123523712158,0.006122165359556675,-0.0364668108522892,0.0191650390625
3005125653000,1.1444283723831177,-9.557653427124023,1.4616601467132568,0.00958251953125,-0.0327402763068676,0.0196974016726017
3005126890287,1.1300631761550903,-9.578003883361816,1.43532395362854,0.0090501569211483,-0.033538818359375,0.02555338479578495
3005128127587,1.1480196714401245,-9.588777542114258,1.5083470344543457,0.012776692397892475,-0.0340711809694767,0.02608574740588665
3005129364875,1.1468225717544556,-9.63067626953125,1.4736311435699463,0.0181003138422966,-0.0327402763068676,0.02422248013317585
3005130602175,1.1528080701828003,-9.607931137084961,1.501164436340332,0.014373779296875,-0.0396609827876091,0.02981228195130825
3005131839487,1.1743559837341309,-9.621099472045898,1.4413094520568848,0.00984870083630085,-0.0367329902946949,0.0295461006462574
3005133076762,1.1575965881347656,-9.639056205749512,1.4772224426269531,0.015172322280704975,-0.0343373604118824,0.0311431884765625
3005134314062,1.114500880241394,-9.680954933166504,1.460463047027588,0.015172322280704975,-0.0369991734623909,0.0311431884765625
3005135551350,1.1887211799621582,-9.667786598205566,1.4544775485992432,0.0167694091796875,-0.0377977155148983,0.0391286201775074
3005136788650,1.1456254720687866,-9.694122314453125,1.4449007511138916,0.0173017717897892,-0.0364668108522892,0.0330064557492733
3005138025950,1.1444283723831177,-9.697713851928711,1.4449007511138916,0.01783413253724575,-0.033538818359375,0.033538818359375
3005139263237,1.1587936878204346,-9.769539833068848,1.41257905960083,0.015438503585755825,-0.0377977155148983,0.0388624407351017
3005140500537,1.1240776777267456,-9.765949249267578,1.4460978507995605,0.0181003138422966,-0.0393948033452034,0.0417904332280159
3005141737837,1.1456254720687866,-9.756372451782227,1.4389152526855469,0.0181003138422966,-0.0396609827876091,0.0423227921128273
3005142975137,1.1073182821273804,-9.75517463684082,1.4413094520568848,0.0191650390625,-0.0404595248401165,0.0404595248401165
3005144212425,1.0773907899856567,-9.773131370544434,1.4544775485992432,0.015172322280704975,-0.0393948033452034,0.0444522425532341
3005145449700,1.1097124814987183,-9.738415718078613,1.4640543460845947,0.0167694091796875,-0.0409918874502182,0.0489773228764534
3005146687012,1.0989385843276978,-9.743204116821289,1.4425065517425537,0.01357523538172245,-0.0465816929936409,0.0508405901491642
3005147924312,1.116895079612732,-9.7420072555542,1.4544775485992432,0.014373779296875,-0.0444522425532341,0.0492435023188591
3005149161587,1.1025298833847046,-9.730035781860352,1.4425065517425537,0.01410759799182415,-0.0433875173330307,0.0511067695915699
3005150398912,1.0845733880996704,-9.734824180603027,1.4472949504852295,0.010913425125181675,-0.0489773228764534,0.0500420443713665
3005151636200,1.0773907899856567,-9.757569313049316,1.4113819599151611,0.01357523538172245,-0.0489773228764534,0.0511067695915699
3005152873487,1.0821791887283325,-9.75158405303955,1.4724340438842773,0.013309055007994175,-0.0449846051633358,0.0577612966299057
3005154110775,1.0785878896713257,-9.757569313049316,1.4963760375976562,0.013309055007994175,-0.043121337890625,0.0574951171875
3005155348087,1.0618284940719604,-9.71926212310791,1.479616641998291,0.0138414166867733,-0.0473802350461483,0.0598907470703125
3005156585375,1.0462661981582642,-9.747992515563965,1.4879963397979736,0.01224433071911335,-0.0436537005007267,0.0545671246945858
3005157822675,1.0450690984725952,-9.770737648010254,1.4772224426269531,0.014906140975654125,-0.0407257080078125,0.0556318499147892
3005159059975,1.0881646871566772,-9.767146110534668,1.4532804489135742,0.0119781494140625,-0.042855154722929,0.0582936592400074
3005160297250,1.0666168928146362,-9.747992515563965,1.43532395362854,0.01357523538172245,-0.0439198799431324,0.0588260218501091
3005161534550,1.0594342947006226,-9.782708168029785,1.45806884765625,0.015172322280704975,-0.0439198799431324,0.0574951171875
3005162771837,0.9983820915222168,-9.799468040466309,1.436521053314209,0.014906140975654125,-0.042855154722929,0.0577612966299057
3005164009137,1.0558429956436157,-9.78869342803955,1.4401123523712158,0.01410759799182415,-0.0489773228764534,0.0593583844602108
3005165246450,1.0067617893218994,-9.745597839355469,1.4544775485992432,0.010114881210029125,-0.0452507846057415,0.057228934019804
3005166483737,0.99479079246521,-9.828198432922363,1.4041993618011475,0.010913425125181675,-0.0447184219956398,0.0580274797976017
3005167721037,0.9852139949798584,-9.785102844238281,1.4113819599151611,0.01410759799182415,-0.0441860631108284,0.0601569265127182
3005168958312,0.993593692779541,-9.7791166305542,1.4640543460845947,0.010381062515079975,-0.0452507846057415,0.0548333041369915
3005170195612,0.9959878921508789,-9.81263542175293,1.4305355548858643,0.00958251953125,-0.0441860631108284,0.0577612966299057
3005171432912,0.94930100440979,-9.800664901733398,1.4293384552001953,0.01410759799182415,-0.0465816929936409,0.0604231096804142
3005172670212,0.9684545993804932,-9.797073364257812,1.382651448249817,0.014906140975654125,-0.0463155098259449,0.0641496405005455
3005173907487,0.9445126056671143,-9.859322547912598,1.4101848602294922,0.008517795242369175,-0.0399271659553051,0.0556318499147892
3005175144800,0.9540894031524658,-9.858125686645508,1.3946224451065063,0.00692070834338665,-0.0423227921128273,0.0588260218501091
3005176382100,0.9696516990661621,-9.84495735168457,1.4652514457702637,0.01171196810901165,-0.0444522425532341,0.0617540143430233
3005177619387,0.9193734526634216,-9.873687744140625,1.4748282432556152,0.00452507846057415,-0.0423227921128273,0.0604231096804142
3005178856675,0.9600749015808105,-9.860519409179688,1.4197616577148438,0.0026618109550327063,-0.0372653529047966,0.0585598424077034
3005180093975,0.9457097053527832,-9.799468040466309,1.41257905960083,0.0066545275039970875,-0.0415242500603199,0.062286376953125
3005181331287,0.9289502501487732,-9.859322547912598,1.4257471561431885,0.00452507846057415,-0.0436537005007267,0.0609554722905159
3005182568575,0.970848798751831,-9.84615421295166,1.41257905960083,0.0037265352439135313,-0.0420566126704216,0.0566965714097023
3005183805875,0.9840168952941895,-9.86770248413086,1.4233529567718506,0.0018632676219567657,-0.0327402763068676,0.0577612966299057
3005185043175,0.9600749015808105,-9.87967300415039,1.416170358657837,0.0010647244052961469,-0.0346035435795784,0.0606892891228199
3005186280450,0.9600749015808105,-9.895236015319824,1.455674648284912,0.0015970865497365594,-0.038063894957304,0.0628187358379364
3005187517750,0.9540894031524658,-9.927556991577148,1.4245500564575195,0.0023956298828125,-0.0372653529047966,0.0588260218501091
3005188755037,0.93254154920578,-9.886856079101562,1.456871747970581,-0.0039927163161337376,-0.0393948033452034,0.0548333041369915
3005189992350,0.9588778018951416,-9.897629737854004,1.4221558570861816,-0.0042588976211845875,-0.0356682650744915,0.0580274797976017
3005191229637,0.9361328482627869,-9.90361499786377,1.4508862495422363,-0.0053236219100654125,-0.0364668108522892,0.0588260218501091
3005192466950,0.9241618514060974,-9.93474006652832,1.4736311435699463,-0.0031941730994731188,-0.0393948033452034,0.0588260218501091
3005193704212,0.8918401598930359,-9.938331604003906,1.4425065517425537,0.0002661811013240367,-0.0396609827876091,0.0612216517329216
3005194941512,0.8750807046890259,-9.975441932678223,1.4425065517425537,-0.0066545275039970875,-0.0369991734623909,0.0566965714097023
3005196178812,0.8631097078323364,-9.971850395202637,1.4413094520568848,-0.007985432632267475,-0.0330064557492733,0.0548333041369915
3005197416112,0.889445960521698,-9.96945571899414,1.4449007511138916,-0.0037265352439135313,-0.0362006276845932,0.0617540143430233
3005198653400,0.8846575617790222,-9.962273597717285,1.4077906608581543,-0.00931633822619915,-0.02901373989880085,0.0641496405005455
3005199890687,0.871489405632019,-9.944316864013672,1.4293384552001953,-0.008783976547420025,-0.03034464456140995,0.0649481862783432
3005201127987,0.8607155084609985,-9.974244117736816,1.4101848602294922,-0.0119781494140625,-0.02874755859375,0.0630849227309227
3005202365300,0.8535329103469849,-9.945513725280762,1.4245500564575195,-0.008251613937318325,-0.0295461006462574,0.0598907470703125
3005203602575,0.8535329103469849,-9.929951667785645,1.413776159286499,-0.006122165359556675,-0.0343373604118824,0.0633511021733284
3005204839875,0.8427590131759644,-9.911994934082031,1.3970166444778442,-0.010381062515079975,-0.02981228195130825,0.0641496405005455
3005206077162,0.8762778043746948,-9.895236015319824,1.4209587574005127,-0.012510511092841625,-0.0292799212038517,0.0636172816157341
3005207314462,0.8415619134902954,-9.921571731567383,1.3503297567367554,-0.007985432632267475,-0.0292799212038517,0.0617540143430233
3005208551762,0.8415619134902954,-9.939528465270996,1.382651448249817,-0.012510511092841625,-0.0268842913210392,0.0561642125248909
3005209789050,0.8846575617790222,-9.927556991577148,1.3946224451065063,-0.010381062515079975,-0.02741665206849575,0.062020193785429
3005211026350,0.8822633624076843,-9.891644477844238,1.4006080627441406,-0.0114457868039608,-0.02369011752307415,0.0644158273935318
3005212263662,0.8678981065750122,-9.90361499786377,1.41257905960083,-0.01117960549890995,-0.0234239362180233,0.0609554722905159
3005213500950,0.8858546614646912,-9.925163269042969,1.3850456476211548,-0.01357523538172245,-0.0244886614382267,0.0628187358379364
3005214738237,0.8966285586357117,-9.871294021606445,1.3886369466781616,-0.0157046839594841,-0.02369011752307415,0.0590922012925148
3005215975537,0.8918401598930359,-9.853337287902832,1.381454348564148,-0.0186326764523983,-0.02315775491297245,0.0590922012925148
3005217212825,0.8774749040603638,-9.841365814208984,1.4030022621154785,-0.0204959437251091,-0.02262539230287075,0.0580274797976017
3005218450112,0.8487445116043091,-9.855731010437012,1.3970166444778442,-0.02129448764026165,-0.0191650390625,0.0617540143430233
3005219687425,0.8834604620933533,-9.848548889160156,1.37906014919281,-0.0181003138422966,-0.02182685025036335,0.0606892891228199
3005220924737,0.889445960521698,-9.81143856048584,1.4197616577148438,-0.02129448764026165,-0.02129448764026165,0.0569627545773983
3005222162025,0.872686505317688,-9.817423820495605,1.3515268564224243,-0.01943122036755085,-0.0228915736079216,0.0604231096804142
3005223399312,0.8475474119186401,-9.855731010437012,1.3431471586227417,-0.0191650390625,-0.0186326764523983,0.0582936592400074
3005224636587,0.8702923059463501,-9.819818496704102,1.3838485479354858,-0.02022976242005825,-0.01943122036755085,0.0577612966299057
3005225873887,0.8822633624076843,-9.792284965515137,1.3934253454208374,-0.01889885775744915,-0.0191650390625,0.0543009415268898
3005227111187,0.8619126081466675,-9.837775230407715,1.4209587574005127,-0.0191650390625,-0.01650322787463665,0.0508405901491642
3005228348487,0.8463503122329712,-9.829395294189453,1.4233529567718506,-0.02022976242005825,-0.0223592109978199,0.0556318499147892
3005229585762,0.8571242094039917,-9.815030097961426,1.4077906608581543,-0.0196974016726017,-0.0186326764523983,0.0548333041369915
3005230823075,0.8427590131759644,-9.827000617980957,1.3706804513931274,-0.01756795309484005,-0.0210283063352108,0.0553656667470932
3005232060375,0.8068459630012512,-9.77791976928711,1.4401123523712158,-0.0186326764523983,-0.01756795309484005,0.0588260218501091
3005233297662,0.8571242094039917,-9.798270225524902,1.416170358657837,-0.0186326764523983,-0.013042873702943325,0.0590922012925148
3005234534950,0.8595184087753296,-9.792284965515137,1.3778630495071411,-0.01703559048473835,-0.01597086526453495,0.062286376953125
3005235772237,0.8271967172622681,-9.832986831665039,1.3874398469924927,-0.014906140975654125,-0.01783413253724575,0.0569627545773983
3005237009550,0.8403648138046265,-9.756372451782227,1.3886369466781616,-0.012510511092841625,-0.01836649514734745,0.0574951171875
3005238246850,0.8343793153762817,-9.819818496704102,1.3970166444778442,-0.012510511092841625,-0.01756795309484005,0.0580274797976017
3005239484162,0.8056488633155823,-9.813833236694336,1.4089877605438232,-0.015438503585755825,-0.0173017717897892,0.0588260218501091
3005240721450,0.8212112188339233,-9.758766174316406,1.4401123523712158,-0.01650322787463665,-0.0167694091796875,0.0564303919672966
3005241958725,0.828393816947937,-9.773131370544434,1.456871747970581,-0.0196974016726017,-0.0114457868039608,0.0543009415268898
3005243196025,0.9026140570640564,-9.792284965515137,1.4053964614868164,-0.01463996060192585,-0.015172322280704975,0.0569627545773983
3005244433312,0.889445960521698,-9.763554573059082,1.41257905960083,-0.015438503585755825,-0.01224433071911335,0.0596245639026165
3005245670612,0.8786720037460327,-9.725247383117676,1.381454348564148,-0.01597086526453495,-0.012510511092841625,0.0625525563955307
3005246907925,0.8858546614646912,-9.771934509277344,1.382651448249817,-0.0191650390625,-0.013042873702943325,0.062020193785429
3005248145212,0.8762778043746948,-9.758766174316406,1.381454348564148,-0.01756795309484005,-0.01224433071911335,0.0604231096804142
3005249382500,0.8655039072036743,-9.737218856811523,1.4077906608581543,-0.0162370465695858,-0.01117960549890995,0.0633511021733284
3005250619800,0.8834604620933533,-9.740809440612793,1.4101848602294922,-0.01357523538172245,-0.008251613937318325,0.0593583844602108
3005251857087,0.8619126081466675,-9.765949249267578,1.3623007535934448,-0.0162370465695858,-0.010381062515079975,0.0590922012925148
3005253094387,0.8786720037460327,-9.786299705505371,1.382651448249817,-0.02076212503015995,-0.008517795242369175,0.0566965714097023
3005254331687,0.8750807046890259,-9.761160850524902,1.3766659498214722,-0.0196974016726017,-0.0071868896484375,0.0577612966299057
3005255568987,0.8391677141189575,-9.795876502990723,1.3958195447921753,-0.0167694091796875,-0.01410759799182415,0.0566965714097023
3005256806275,0.828393816947937,-9.767146110534668,1.3982137441635132,-0.0173017717897892,-0.00931633822619915,0.0535023994743824
3005258043562,0.8451532125473022,-9.743204116821289,1.3419500589370728,-0.014373779296875,-0.008517795242369175,0.0558980293571949
3005259280862,0.7984662652015686,-9.774328231811523,1.359906554222107,-0.0210283063352108,-0.005589802749454975,0.0497758649289608
3005260518162,0.8188169598579407,-9.77552604675293,1.3646949529647827,-0.02182685025036335,-0.0053236219100654125,0.0484449602663517
3005261755450,0.7649474740028381,-9.767146110534668,1.335964560508728,-0.02182685025036335,-0.0031941730994731188,0.0500420443713665
3005262992762,0.8224083185195923,-9.785102844238281,1.3096283674240112,-0.01943122036755085,-0.008517795242369175,0.0471140518784523
3005264230050,0.8068459630012512,-9.746795654296875,1.314416766166687,-0.023956298828125,-0.0010647244052961469,0.0487111397087574
3005265467337,0.7852981686592102,-9.7791166305542,1.3455413579940796,-0.02608574740588665,0.0013309054775163531,0.0513729527592659
3005266704637,0.8176198601722717,-9.75397777557373,1.3299790620803833,-0.02369011752307415,-0.0026618109550327063,0.0521714948117733
3005267941925,0.812831461429596,-9.744400978088379,1.3287819623947144,-0.0268842913210392,0.0013309054775163531,0.0471140518784523
3005269179237,0.8032546639442444,-9.739612579345703,1.3263877630233765,-0.0306108258664608,0.0013309054775163531,0.0441860631108284
3005270416537,0.8523358106613159,-9.733627319335938,1.3108254671096802,-0.0276828333735466,0.0018632676219567657,0.0452507846057415
3005271653825,0.8439561128616333,-9.747992515563965,1.3263877630233765,-0.02555338479578495,0.0013309054775163531,0.0407257080078125
3005272891112,0.8307880163192749,-9.761160850524902,1.3048399686813354,-0.0306108258664608,-0.0002661811013240367,0.0388624407351017
3005274128412,0.828393816947937,-9.770737648010254,1.337161660194397,-0.0276828333735466,0.0013309054775163531,0.0388624407351017
3005275365712,0.8307880163192749,-9.726444244384766,1.3503297567367554,-0.02981228195130825,0.008251613937318325,0.0404595248401165
3005276603000,0.8475474119186401,-9.718064308166504,1.3551181554794312,-0.02608574740588665,0.0015970865497365594,0.038330078125
3005277840300,0.8667010068893433,-9.728838920593262,1.359906554222107,-0.0282151959836483,0.0013309054775163531,0.0367329902946949
3005279077587,0.8188169598579407,-9.781511306762695,1.3694833517074585,-0.0311431884765625,0.0018632676219567657,0.0356682650744915
3005280314887,0.849941611289978,-9.791088104248047,1.315613865852356,-0.03034464456140995,0.0021294488105922937,0.0343373604118824
3005281552175,0.8355764150619507,-9.764751434326172,1.3515268564224243,-0.0252872034907341,0.0005323622026480734,0.0327402763068676
3005282789487,0.849941611289978,-9.795876502990723,1.3563152551651,-0.0271504707634449,0.0018632676219567657,0.0327402763068676
3005284026775,0.8547300100326538,-9.75397777557373,1.3527239561080933,-0.0306108258664608,0.0037265352439135313,0.0319417305290699
3005285264075,0.849941611289978,-9.746795654296875,1.2976573705673218,-0.0324740931391716,0.006122165359556675,0.033272635191679
3005286501362,0.8379706144332886,-9.77552604675293,1.338358759880066,-0.03087700717151165,0.0037265352439135313,0.0351359061896801
3005287738662,0.8535329103469849,-9.800664901733398,1.381454348564148,-0.0292799212038517,0.0031941730994731188,0.0311431884765625
3005288975962,0.8690952062606812,-9.797073364257812,1.3515268564224243,-0.0314093679189682,0.0037265352439135313,0.03087700717151165
3005290213250,0.8236054182052612,-9.785102844238281,1.3682862520217896,-0.03034464456140995,0.005589802749454975,0.033538818359375
3005291450550,0.7817068696022034,-9.803058624267578,1.3898340463638306,-0.02794901467859745,0.0063883461989462376,0.02901373989880085
3005292687837,0.8032546639442444,-9.84376049041748,1.3838485479354858,-0.0322079136967659,0.01117960549890995,0.02794901467859745
3005293925125,0.8044517636299133,-9.795876502990723,1.3503297567367554,-0.0322079136967659,0.012776692397892475,0.0295461006462574
3005295162450,0.7697358727455139,-9.81143856048584,1.3682862520217896,-0.0319417305290699,0.007453070487827063,0.0306108258664608
3005296399725,0.7769184708595276,-9.797073364257812,1.3563152551651,-0.0348697230219841,0.0138414166867733,0.0282151959836483
3005297637025,0.7721300721168518,-9.800664901733398,1.359906554222107,-0.0359344482421875,0.01224433071911335,0.0311431884765625
3005298874325,0.8044517636299133,-9.806650161743164,1.3443442583084106,-0.0324740931391716,0.01224433071911335,0.02608574740588665
3005300111637,0.767341673374176,-9.77791976928711,1.4245500564575195,-0.0367329902946949,0.013309055007994175,0.0300784632563591
3005301348925,0.8152256608009338,-9.771934509277344,1.3634978532791138,-0.0396609827876091,0.01463996060192585,0.02794901467859745
3005302586200,0.8331822156906128,-9.736021041870117,1.3443442583084106,-0.0359344482421875,0.014906140975654125,0.0228915736079216
3005303823487,0.8391677141189575,-9.727641105651855,1.3204022645950317,-0.0324740931391716,0.01783413253724575,0.0268842913210392
3005305060787,0.8307880163192749,-9.726444244384766,1.3204022645950317,-0.0364668108522892,0.015172322280704975,0.0220930315554142
3005306298100,0.8475474119186401,-9.68574333190918,1.3311761617660522,-0.0369991734623909,0.0167694091796875,0.02315775491297245
3005307535387,0.8643068075180054,-9.695320129394531,1.3491326570510864,-0.0407257080078125,0.0181003138422966,0.02422248013317585
3005308772687,0.8523358106613159,-9.706093788146973,1.3646949529647827,-0.0391286201775074,0.0173017717897892,0.0228915736079216
3005310009975,0.8750807046890259,-9.692925453186035,1.3970166444778442,-0.0377977155148983,0.01650322787463665,0.0252872034907341
3005311247275,0.8702923059463501,-9.678560256958008,1.3718775510787964,-0.0404595248401165,0.0181003138422966,0.02369011752307415
3005312484575,0.9014169573783875,-9.680954933166504,1.4113819599151611,-0.0362006276845932,0.01943122036755085,0.0258195661008358
3005313721850,0.8774749040603638,-9.680954933166504,1.3958195447921753,-0.0423227921128273,0.01889885775744915,0.0263519287109375
3005314959162,0.8535329103469849,-9.651026725769043,1.3658920526504517,-0.043121337890625,0.01650322787463665,0.0263519287109375
3005316196462,0.8858546614646912,-9.658209800720215,1.357512354850769,-0.0367329902946949,0.012510511092841625,0.02502102218568325
3005317433762,0.8571242094039917,-9.658209800720215,1.3670891523361206,-0.0372653529047966,0.01463996060192585,0.02422248013317585
3005318671050,0.8978256583213806,-9.682151794433594,1.3874398469924927,-0.0375315360724926,0.015438503585755825,0.0228915736079216
3005319908362,0.8918401598930359,-9.703699111938477,1.3000515699386597,-0.0369991734623909,0.0138414166867733,0.02661811001598835
3005321145625,0.8547300100326538,-9.66419506072998,1.3335703611373901,-0.0348697230219841,0.0173017717897892,0.02661811001598835
3005322382925,0.8678981065750122,-9.68813705444336,1.358709454536438,-0.0391286201775074,0.0186326764523983,0.0220930315554142
3005323620225,0.8846575617790222,-9.702502250671387,1.3694833517074585,-0.0409918874502182,0.01836649514734745,0.02608574740588665
3005324857525,0.8619126081466675,-9.672574996948242,1.3706804513931274,-0.038063894957304,0.014906140975654125,0.02874755859375
3005326094812,0.8906430602073669,-9.684545516967773,1.335964560508728,-0.0314093679189682,0.010913425125181675,0.0247548408806324
3005327332125,0.8966285586357117,-9.637859344482422,1.3658920526504517,-0.038330078125,0.014373779296875,0.0244886614382267
3005328569425,0.9002198576927185,-9.678560256958008,1.3539210557937622,-0.0372653529047966,0.01836649514734745,0.0234239362180233
3005329806712,0.8690952062606812,-9.715670585632324,1.291671872138977,-0.0364668108522892,0.013309055007994175,0.0263519287109375
3005331044012,0.8930372595787048,-9.68933391571045,1.2964602708816528,-0.0393948033452034,0.014906140975654125,0.02502102218568325
3005332281300,0.8643068075180054,-9.697713851928711,1.3072341680526733,-0.0346035435795784,0.01463996060192585,0.0210283063352108
3005333518600,0.8595184087753296,-9.726444244384766,1.3072341680526733,-0.0343373604118824,0.0173017717897892,0.0210283063352108
3005334755900,0.94930100440979,-9.71926212310791,1.3467384576797485,-0.0369991734623909,0.0138414166867733,0.0276828333735466
3005335993187,0.9265560507774353,-9.737218856811523,1.3108254671096802,-0.0393948033452034,0.0138414166867733,0.0244886614382267
3005337230487,0.9361328482627869,-9.745597839355469,1.316810965538025,-0.033272635191679,0.01836649514734745,0.0247548408806324
3005338467775,0.9469068050384521,-9.709685325622559,1.2749123573303223,-0.0423227921128273,0.01703559048473835,0.0223592109978199
3005339705075,0.9253589510917664,-9.781511306762695,1.2737152576446533,-0.0420566126704216,0.01597086526453495,0.0268842913210392
3005340942350,0.9421183466911316,-9.828198432922363,1.315613865852356,-0.0401933453977108,0.012510511092841625,0.0244886614382267
3005342179662,0.9157821536064148,-9.825803756713867,1.2629413604736328,-0.0417904332280159,0.0173017717897892,0.01703559048473835
3005343416950,0.9540894031524658,-9.829395294189453,1.2808979749679565,-0.0465816929936409,0.0181003138422966,0.01117960549890995
3005344654250,0.9217676520347595,-9.90122127532959,1.3000515699386597,-0.0495096817612648,0.01410759799182415,0.010114881210029125
3005345891562,0.9516952037811279,-9.95748519897461,1.2533645629882812,-0.0566965714097023,0.014906140975654125,0.00958251953125
3005347128837,0.9852139949798584,-9.910798072814941,1.3096283674240112,-0.0558980293571949,0.01650322787463665,0.004791259765625
3005348366150,0.9361328482627869,-9.946710586547852,1.238999366760254,-0.0614878311753273,0.012510511092841625,-0.0010647244052961469
3005349603437,0.9433155059814453,-10.030508041381836,1.2713210582733154,-0.066545270383358,0.0167694091796875,0.0015970865497365594
3005350840750,0.9660604000091553,-9.98980712890625,1.2689268589019775,-0.0676099956035614,0.01224433071911335,-0.00452507846057415
3005352078012,0.9313444495201111,-10.022128105163574,1.2737152576446533,-0.0673438161611557,0.01171196810901165,-0.0066545275039970875
3005353315337,0.9193734526634216,-10.038887977600098,1.2545616626739502,-0.0747968852519989,0.01224433071911335,-0.008517795242369175
3005354552650,0.9516952037811279,-10.016142845153809,1.2856863737106323,-0.0692070871591568,0.010913425125181675,-0.010114881210029125
3005355789912,0.94930100440979,-10.036493301391602,1.2653355598449707,-0.0739983469247818,0.012510511092841625,-0.0090501569211483
3005357027225,0.9552865028381348,-10.044873237609863,1.2234370708465576,-0.0785234197974205,0.013042873702943325,-0.015438503585755825
3005358264512,0.9792284965515137,-9.999383926391602,1.2641384601593018,-0.0843794047832489,0.0090501569211483,-0.01836649514734745
3005359501825,0.9457097053527832,-10.038887977600098,1.2832921743392944,-0.0865088552236557,0.00984870083630085,-0.012510511092841625
3005360739112,0.9516952037811279,-9.994595527648926,1.2713210582733154,-0.0854441300034523,0.0066545275039970875,-0.0119781494140625
3005361976400,0.8966285586357117,-10.040084838867188,1.260547161102295,-0.0942281037569046,0.0119781494140625,-0.015438503585755825
3005363213700,0.8750807046890259,-10.056844711303711,1.259350061416626,-0.0928971990942955,0.010381062515079975,-0.01756795309484005
3005364450987,0.9241618514060974,-10.020931243896484,1.2497732639312744,-0.0971560999751091,0.00984870083630085,-0.0191650390625
3005365688275,0.912190854549408,-10.029311180114746,1.2342109680175781,-0.0960913747549057,0.008517795242369175,-0.0173017717897892
3005366925587,0.9265560507774353,-10.036493301391602,1.2234370708465576,-0.0982208251953125,0.0063883461989462376,-0.014373779296875
3005368162875,0.8690952062606812,-10.035296440124512,1.2078747749328613,-0.0995517298579216,0.00958251953125,-0.0167694091796875
3005369400162,0.8667010068893433,-10.046070098876953,1.1659762859344482,-0.1035444438457489,0.0090501569211483,-0.01756795309484005
3005370637462,0.889445960521698,-9.995792388916016,1.216254472732544,-0.1091342493891716,0.005855984054505825,-0.01357523538172245
3005371874775,0.8571242094039917,-9.9586820602417,1.215057373046875,-0.1078033447265625,0.006122165359556675,-0.00984870083630085
3005373112075,0.8690952062606812,-9.963470458984375,1.2078747749328613,-0.1099327951669693,0.00984870083630085,-0.01783413253724575
3005374349362,0.8822633624076843,-9.996989250183105,1.1647791862487793,-0.1115298792719841,0.00984870083630085,-0.0162370465695858
3005375586650,0.9313444495201111,-9.975441932678223,1.1863269805908203,-0.1136593297123909,0.0077192517928779125,-0.010381062515079975
3005376823937,0.9265560507774353,-9.982624053955078,1.2102689743041992,-0.1133931428194046,0.00984870083630085,-0.00931633822619915
3005378061237,0.9241618514060974,-9.945513725280762,1.1803414821624756,-0.1131269633769989,0.008251613937318325,-0.0114457868039608
3005379298550,0.9313444495201111,-9.916783332824707,1.1827356815338135,-0.1165873184800148,0.010913425125181675,-0.01650322787463665
3005380535837,0.94930100440979,-9.87967300415039,1.2318167686462402,-0.1181844025850296,0.00452507846057415,-0.01463996060192585
3005381773125,0.970848798751831,-9.86650562286377,1.236605167388916,-0.119781494140625,0.0013309054775163531,-0.0162370465695858
3005383010412,0.9648633003234863,-9.835380554199219,1.2545616626739502,-0.1184505894780159,0.0037265352439135313,-0.01703559048473835
3005384247725,0.9864110946655273,-9.799468040466309,1.236605167388916,-0.1165873184800148,0.005057440605014563,-0.01650322787463665
3005385485012,1.0211269855499268,-9.780314445495605,1.2042834758758545,-0.1179182231426239,0.0005323622026480734,-0.010913425125181675
3005386722300,0.9744400978088379,-9.72285270690918,1.2114660739898682,-0.1171196848154068,-0.0007985432748682797,-0.012510511092841625
3005387959600,1.0055646896362305,-9.677363395690918,1.1827356815338135,-0.114457868039608,-0.0029279920272529125,-0.008251613937318325
3005389196912,1.0007762908935547,-9.621099472045898,1.213860273361206,-0.1152564138174057,-0.0021294488105922937,-0.008783976547420025
3005390434225,1.0390836000442505,-9.591172218322754,1.2222399711608887,-0.1112636998295784,-0.0071868896484375,-0.008783976547420025
3005391671487,1.0761936902999878,-9.558850288391113,1.212663173675537,-0.1112636998295784,-0.005589802749454975,-0.0077192517928779125
3005392908787,1.0390836000442505,-9.431957244873047,1.1659762859344482,-0.1075371652841568,-0.008783976547420025,-0.010114881210029125
3005394146087,1.0402806997299194,-9.44752025604248,1.217451572418213,-0.1067386195063591,-0.013309055007994175,-0.0021294488105922937
3005395383400,1.0378865003585815,-9.434351921081543,1.192312479019165,-0.100084088742733,-0.012776692397892475,-0.0039927163161337376
3005396620675,1.1073182821273804,-9.402029991149902,1.212663173675537,-0.095292828977108,-0.0138414166867733,-0.0029279920272529125
3005397857962,1.1312602758407593,-9.373299598693848,1.238999366760254,-0.0966237336397171,-0.015172322280704975,-0.003460354171693325
3005399095262,1.1252747774124146,-9.314641952514648,1.2090718746185303,-0.0944942906498909,-0.0196974016726017,-0.0029279920272529125
3005400332575,1.1647791862487793,-9.311050415039062,1.2557587623596191,-0.0846455842256546,-0.02182685025036335,0.0063883461989462376
3005401569850,1.1851298809051514,-9.283516883850098,1.2437877655029297,-0.0785234197974205,-0.0258195661008358,0.0053236219100654125
3005402807137,1.2318167686462402,-9.282320022583008,1.2856863737106323,-0.0758616104722023,-0.02182685025036335,0.010647243820130825
3005404044437,1.2701239585876465,-9.23682975769043,1.3024457693099976,-0.066545270383358,-0.02262539230287075,0.0119781494140625
3005405281737,1.235408067703247,-9.253589630126953,1.3000515699386597,-0.0633511021733284,-0.0300784632563591,0.00984870083630085
3005406519062,1.2701239585876465,-9.270349502563477,1.3204022645950317,-0.0601569265127182,-0.02874755859375,0.010381062515079975
3005407756325,1.2473790645599365,-9.26795482635498,1.3108254671096802,-0.0537685826420784,-0.0314093679189682,0.0053236219100654125
3005408993637,1.2186486721038818,-9.32541561126709,1.3431471586227417,-0.0468478724360466,-0.038063894957304,0.00958251953125
3005410230937,1.2653355598449707,-9.342175483703613,1.3455413579940796,-0.0452507846057415,-0.0367329902946949,0.012510511092841625
3005411468237,1.2210428714752197,-9.331400871276855,1.3754688501358032,-0.0396609827876091,-0.0377977155148983,0.01463996060192585
3005412705525,1.235408067703247,-9.355342864990234,1.3658920526504517,-0.0401933453977108,-0.0407257080078125,0.012510511092841625
3005413942825,1.1994950771331787,-9.379284858703613,1.3407529592514038,-0.0351359061896801,-0.0423227921128273,0.012776692397892475
3005415180125,1.1887211799621582,-9.397241592407227,1.3096283674240112,-0.02608574740588665,-0.0503082275390625,0.0119781494140625
3005416417400,1.1767501831054688,-9.390059471130371,1.2868834733963013,-0.0210283063352108,-0.052703857421875,0.0157046839594841
3005417654712,1.1420341730117798,-9.385271072387695,1.2713210582733154,-0.02741665206849575,-0.0548333041369915,0.01650322787463665
3005418892000,1.1228805780410767,-9.387664794921875,1.2617442607879639,-0.02076212503015995,-0.0532362200319767,0.013042873702943325
3005420129312,1.0857704877853394,-9.387664794921875,1.260547161102295,-0.00984870083630085,-0.0556318499147892,0.01703559048473835
3005421366587,1.114500880241394,-9.398438453674316,1.2294225692749023,-0.008517795242369175,-0.0588260218501091,0.0215606689453125
3005422603900,1.0534487962722778,-9.394847869873047,1.2078747749328613,-0.0063883461989462376,-0.0590922012925148,0.02129448764026165
3005423841187,1.0785878896713257,-9.374496459960938,1.2090718746185303,-0.0013309054775163531,-0.0606892891228199,0.02129448764026165
3005425078487,1.0773907899856567,-9.384073257446289,1.2018892765045166,0.0039927163161337376,-0.0604231096804142,0.0223592109978199
3005426315787,1.0881646871566772,-9.355342864990234,1.2078747749328613,0.010647243820130825,-0.062020193785429,0.02182685025036335
3005427553062,1.1324573755264282,-9.344569206237793,1.2497732639312744,0.01650322787463665,-0.0628187358379364,0.02369011752307415
3005428790362,1.1288660764694214,-9.370905876159668,1.2509703636169434,0.01996358297765255,-0.0654805526137352,0.02981228195130825
3005430027662,1.1611878871917725,-9.349357604980469,1.2976573705673218,0.0204959437251091,-0.0625525563955307,0.02608574740588665
3005431264962,1.1288660764694214,-9.41759204864502,1.2401964664459229,0.0276828333735466,-0.0657467320561409,0.02874755859375
3005432502262,1.1264718770980835,-9.400833129882812,1.2545616626739502,0.0330064557492733,-0.0654805526137352,0.0319417305290699
3005433739550,1.1180921792984009,-9.385271072387695,1.2497732639312744,0.033272635191679,-0.0697394460439682,0.0327402763068676
3005434976850,1.0845733880996704,-9.398438453674316,1.217451572418213,0.0372653529047966,-0.0726674422621727,0.0372653529047966
3005436214150,1.094150185585022,-9.403226852416992,1.2880805730819702,0.0420566126704216,-0.0702718123793602,0.0391286201775074
3005437451437,1.0821791887283325,-9.452308654785156,1.2797008752822876,0.0473802350461483,-0.0729336217045784,0.0393948033452034
3005438688725,1.05105459690094,-9.487024307250977,1.2306196689605713,0.0505744069814682,-0.0798543319106102,0.0396609827876091
3005439926025,1.0295066833496094,-9.501389503479004,1.238999366760254,0.0577612966299057,-0.085710309445858,0.0407257080078125
3005441163325,1.0259153842926025,-9.528923034667969,1.2090718746185303,0.0598907470703125,-0.0825161412358284,0.0396609827876091
3005442400625,1.0223240852355957,-9.59476375579834,1.2653355598449707,0.0606892891228199,-0.080919049680233,0.0362006276845932
3005443637912,1.0342952013015747,-9.592369079589844,1.2294225692749023,0.0646820068359375,-0.0833146795630455,0.0415242500603199
3005444875212,0.9876081943511963,-9.65222454071045,1.2270283699035645,0.071868896484375,-0.0830485001206398,0.0447184219956398
3005446112512,0.9636662006378174,-9.66539192199707,1.2066776752471924,0.0755954310297966,-0.0819837749004364,0.0463155098259449
3005447349812,0.9385270476341248,-9.695320129394531,1.2437877655029297,0.0702718123793602,-0.0830485001206398,0.043121337890625
3005448587125,1.0007762908935547,-9.737218856811523,1.2210428714752197,0.0763939768075943,-0.0859764963388443,0.0444522425532341
