timestamp_ns,accel_x,accel_y,accel_z,gyro_x,gyro_y,gyro_z
2074321666087,0.5015852451324463,-9.876082420349121,0.44771572947502136,-0.0007985432748682797,0.0204959437251091,0.003460354171693325
2074322903437,0.5003881454467773,-9.86650562286377,0.456095427274704,-0.0042588976211845875,0.02369011752307415,0.00452507846057415
2074324140800,0.4644751250743866,-9.876082420349121,0.5015852451324463,-0.0010647244052961469,0.0234239362180233,0.0066545275039970875
2074325378175,0.45010992884635925,-9.850942611694336,0.42018240690231323,0.0002661811013240367,0.0223592109978199,0.00452507846057415
2074326615550,0.4668693244457245,-9.86650562286377,0.41060560941696167,0.0007985432748682797,0.02608574740588665,0.0026618109550327063
2074327852912,0.5231330990791321,-9.850942611694336,0.4704606235027313,0.0021294488105922937,0.02076212503015995,0.0005323622026480734
2074329090250,0.5183447003364563,-9.891644477844238,0.4465186297893524,0.0010647244052961469,0.0228915736079216,0.0026618109550327063
2074330327612,0.5171476006507874,-9.880870819091797,0.4537012279033661,-0.0015970865497365594,0.0258195661008358,0.0053236219100654125
2074331564987,0.5398924946784973,-9.841365814208984,0.47644615173339844,0.0,0.0268842913210392,0.010381062515079975
2074332802337,0.5051765441894531,-9.801861763000488,0.4620809257030487,0.0023956298828125,0.02608574740588665,0.0053236219100654125
2074334039725,0.47644615173339844,-9.872490882873535,0.43933600187301636,0.0013309054775163531,0.02502102218568325,0.0005323622026480734
2074335277075,0.48602294921875,-9.838972091674805,0.4118027091026306,-0.0007985432748682797,0.02741665206849575,0.0007985432748682797
2074336514450,0.4991910457611084,-9.871294021606445,0.4165911078453064,0.0002661811013240367,0.02422248013317585,0.0021294488105922937
2074337751800,0.4884171485900879,-9.854534149169922,0.44173023104667664,0.0002661811013240367,0.02874755859375,-0.0002661811013240367
2074338989162,0.4908113479614258,-9.86889934539795,0.4513070285320282,-0.0005323622026480734,0.0276828333735466,0.0002661811013240367
2074340226512,0.50876784324646,-9.837775230407715,0.4596867263317108,0.004791259765625,0.0268842913210392,-0.0010647244052961469
2074341463887,0.4991910457611084,-9.86770248413086,0.4357447028160095,0.005589802749454975,0.02555338479578495,0.0037265352439135313
2074342701275,0.5506663918495178,-9.841365814208984,0.43335050344467163,0.0071868896484375,0.0223592109978199,0.0018632676219567657
2074343938600,0.4920084476470947,-9.84376049041748,0.42377370595932007,0.0063883461989462376,0.02981228195130825,-0.0007985432748682797
2074345175975,0.4836287498474121,-9.873687744140625,0.4429273307323456,0.0066545275039970875,0.02981228195130825,0.0007985432748682797
2074346413350,0.5339069962501526,-9.837775230407715,0.4513070285320282,0.0,0.0258195661008358,0.0002661811013240367
2074347650700,0.5554547905921936,-9.850942611694336,0.45010992884635925,0.0018632676219567657,0.02555338479578495,-0.0023956298828125
2074348888062,0.5207388997077942,-9.889249801635742,0.4572925269603729,0.0015970865497365594,0.02262539230287075,0.0015970865497365594
2074350125437,0.4967968463897705,-9.850942611694336,0.4082113802433014,0.0026618109550327063,0.02422248013317585,0.0015970865497365594
2074351362800,0.49799394607543945,-9.832986831665039,0.4728548526763916,0.0039927163161337376,0.0204959437251091,0.0002661811013240367
2074352600150,0.5267243981361389,-9.850942611694336,0.44771572947502136,0.0026618109550327063,0.02022976242005825,-0.0021294488105922937
2074353837525,0.524330198764801,-9.847352027893066,0.44771572947502136,0.0053236219100654125,0.0271504707634449,0.0042588976211845875
2074355074875,0.4776432514190674,-9.824606895446777,0.4381389021873474,0.0063883461989462376,0.02981228195130825,0.0018632676219567657
2074356312250,0.49799394607543945,-9.817423820495605,0.4405331015586853,0.005057440605014563,0.03087700717151165,0.0018632676219567657
2074357549612,0.49559974670410156,-9.813833236694336,0.4596867263317108,0.0026618109550327063,0.02741665206849575,0.0010647244052961469
2074358786987,0.5147533416748047,-9.848548889160156,0.4668693244457245,0.0039927163161337376,0.02422248013317585,0.0029279920272529125
2074360024325,0.5003881454467773,-9.840168952941895,0.43694180250167847,0.00692070834338665,0.0268842913210392,0.0007985432748682797
2074361261712,0.5434837937355042,-9.860519409179688,0.4345476031303406,0.0090501569211483,0.02741665206849575,-0.0007985432748682797
2074362499075,0.5159504413604736,-9.852140426635742,0.43095630407333374,0.006122165359556675,0.0252872034907341,-0.0018632676219567657
2074363736425,0.5578489899635315,-9.821015357971191,0.44173023104667664,0.0077192517928779125,0.0247548408806324,0.0026618109550327063
2074364973812,0.5506663918495178,-9.834183692932129,0.42377370595932007,0.0071868896484375,0.0292799212038517,-0.0021294488105922937
2074366211150,0.5291185975074768,-9.859322547912598,0.42856210470199585,0.0026618109550327063,0.02555338479578495,-0.0031941730994731188
2074367448512,0.5195418000221252,-9.860519409179688,0.44532153010368347,0.0071868896484375,0.0271504707634449,-0.0018632676219567657
2074368685875,0.5159504413604736,-9.859322547912598,0.4596867263317108,0.00692070834338665,0.02874755859375,-0.0005323622026480734
2074369923250,0.5135562419891357,-9.838972091674805,0.4692635238170624,-0.0026618109550327063,0.02661811001598835,-0.0023956298828125
2074371160625,0.52552729845047,-9.849745750427246,0.44771572947502136,0.0023956298828125,0.0228915736079216,-0.0042588976211845875
2074372397975,0.5063736438751221,-9.877279281616211,0.4297592043876648,0.008783976547420025,0.02369011752307415,-0.0026618109550327063
2074373635350,0.5279214978218079,-9.86889934539795,0.4058171808719635,0.007453070487827063,0.02874755859375,-0.00452507846057415
2074374872712,0.5386953949928284,-9.894038200378418,0.4297592043876648,0.0063883461989462376,0.0282151959836483,-0.003460354171693325
2074376110075,0.5374982953071594,-9.859322547912598,0.44532153010368347,0.0071868896484375,0.02901373989880085,0.0042588976211845875
2074377347437,0.5051765441894531,-9.803058624267578,0.46327802538871765,0.00692070834338665,0.0276828333735466,-0.0013309054775163531
2074378584787,0.5434837937355042,-9.864110946655273,0.4704606235027313,0.007453070487827063,0.0319417305290699,-0.0029279920272529125
2074379822162,0.5219359993934631,-9.856928825378418,0.4513070285320282,0.005855984054505825,0.02981228195130825,-0.0023956298828125
2074381059525,0.5219359993934631,-9.916783332824707,0.4513070285320282,0.00692070834338665,0.0316755510866642,-0.005589802749454975
2074382296887,0.48243165016174316,-9.858125686645508,0.42377370595932007,0.0042588976211845875,0.03087700717151165,-0.0026618109550327063
2074383534250,0.5027823448181152,-9.849745750427246,0.40462008118629456,0.005589802749454975,0.02901373989880085,-0.0007985432748682797
2074384771600,0.5219359993934631,-9.819818496704102,0.4668693244457245,0.00931633822619915,0.0276828333735466,-0.0029279920272529125
2074386008987,0.5003881454467773,-9.847352027893066,0.4273650050163269,0.005855984054505825,0.0282151959836483,-0.0015970865497365594
2074387246337,0.545877993106842,-9.837775230407715,0.4668693244457245,0.0077192517928779125,0.0295461006462574,-0.0007985432748682797
2074388483725,0.5327098965644836,-9.818621635437012,0.4728548526763916,0.006122165359556675,0.033272635191679,-0.0026618109550327063
2074389721050,0.5027823448181152,-9.832986831665039,0.4836287498474121,0.00984870083630085,0.03034464456140995,-0.00692070834338665
2074390958425,0.5494692921638489,-9.840168952941895,0.456095427274704,0.010913425125181675,0.0295461006462574,-0.005589802749454975
2074392195787,0.5291185975074768,-9.855731010437012,0.46088382601737976,0.0077192517928779125,0.03087700717151165,-0.003460354171693325
2074393433150,0.5171476006507874,-9.876082420349121,0.4189853072166443,0.0114457868039608,0.0319417305290699,-0.0037265352439135313
2074394670512,0.5039794445037842,-9.854534149169922,0.43095630407333374,0.00931633822619915,0.0292799212038517,-0.0015970865497365594
2074395907887,0.5063736438751221,-9.84256362915039,0.47165775299072266,0.0090501569211483,0.0306108258664608,0.0018632676219567657
2074397145250,0.5530605912208557,-9.853337287902832,0.4345476031303406,0.00984870083630085,0.033272635191679,0.0007985432748682797
2074398382612,0.5793968439102173,-9.874884605407715,0.44532153010368347,0.008783976547420025,0.0295461006462574,-0.0018632676219567657
2074399619975,0.5339069962501526,-9.852140426635742,0.42856210470199585,0.00931633822619915,0.0300784632563591,0.0002661811013240367
2074400857350,0.49799394607543945,-9.877279281616211,0.4441244304180145,0.00931633822619915,0.02981228195130825,0.0005323622026480734
2074402094700,0.5207388997077942,-9.872490882873535,0.41539400815963745,0.007985432632267475,0.0354020856320858,-0.0037265352439135313
2074403332050,0.5422866940498352,-9.854534149169922,0.4189853072166443,0.006122165359556675,0.0322079136967659,-0.007453070487827063
2074404569437,0.5147533416748047,-9.864110946655273,0.4357447028160095,0.010647243820130825,0.033272635191679,-0.0018632676219567657
2074405806787,0.52552729845047,-9.838972091674805,0.50876784324646,0.010381062515079975,0.0316755510866642,0.0
2074407044162,0.5147533416748047,-9.858125686645508,0.49320554733276367,0.012776692397892475,0.0292799212038517,-0.004791259765625
2074408281512,0.5363011956214905,-9.860519409179688,0.44532153010368347,0.010647243820130825,0.02901373989880085,-0.004791259765625
2074409518875,0.5315127968788147,-9.838972091674805,0.43335050344467163,0.00452507846057415,0.0393948033452034,-0.0053236219100654125
2074410756250,0.5542576909065247,-9.831789016723633,0.4644751250743866,0.0071868896484375,0.0356682650744915,-0.007453070487827063
2074411993612,0.5195418000221252,-9.840168952941895,0.48243165016174316,0.00984870083630085,0.02981228195130825,-0.0077192517928779125
2074413230975,0.5805939435958862,-9.849745750427246,0.45489832758903503,0.014373779296875,0.0292799212038517,-0.0023956298828125
2074414468337,0.52552729845047,-9.841365814208984,0.4692635238170624,0.012510511092841625,0.03034464456140995,-0.0018632676219567657
2074415705687,0.5159504413604736,-9.873687744140625,0.4537012279033661,0.0114457868039608,0.0316755510866642,-0.0018632676219567657
2074416943050,0.5147533416748047,-9.830592155456543,0.44532153010368347,0.0066545275039970875,0.0295461006462574,-0.0023956298828125
2074418180437,0.507570743560791,-9.807847023010254,0.4381389021873474,0.008783976547420025,0.03034464456140995,-0.0026618109550327063
2074419417800,0.5159504413604736,-9.800664901733398,0.4908113479614258,0.014373779296875,0.0324740931391716,-0.0013309054775163531
2074420655150,0.5530605912208557,-9.849745750427246,0.45848962664604187,0.008251613937318325,0.02848137728869915,-0.0039927163161337376
2074421892512,0.5231330990791321,-9.888052940368652,0.4082113802433014,0.00931633822619915,0.0295461006462574,-0.005057440605014563
2074423129887,0.5147533416748047,-9.840168952941895,0.38546648621559143,0.010913425125181675,0.038063894957304,-0.0066545275039970875
2074424367250,0.5135562419891357,-9.827000617980957,0.4213795065879822,0.00931633822619915,0.0276828333735466,-0.0023956298828125
2074425604625,0.5554547905921936,-9.872490882873535,0.4489128291606903,0.012776692397892475,0.0258195661008358,-0.00984870083630085
2074426841962,0.5279214978218079,-9.84495735168457,0.4381389021873474,0.01117960549890995,0.0330064557492733,-0.0029279920272529125
2074428079337,0.49320554733276367,-9.884461402893066,0.41539400815963745,0.010114881210029125,0.0295461006462574,0.0007985432748682797
2074429316700,0.5315127968788147,-9.848548889160156,0.47165775299072266,0.013309055007994175,0.03087700717151165,-0.0015970865497365594
2074430554075,0.5207388997077942,-9.853337287902832,0.42856210470199585,0.013309055007994175,0.0258195661008358,-0.0026618109550327063
2074431791425,0.5841852426528931,-9.861717224121094,0.4728548526763916,0.010381062515079975,0.03034464456140995,-0.005057440605014563
2074433028800,0.5734112858772278,-9.890447616577148,0.4812345504760742,0.01357523538172245,0.0324740931391716,-0.0042588976211845875
2074434266162,0.5051765441894531,-9.84615421295166,0.4441244304180145,0.0138414166867733,0.03034464456140995,-0.004791259765625
2074435503537,0.5315127968788147,-9.855731010437012,0.48961424827575684,0.012776692397892475,0.0268842913210392,-0.0066545275039970875
2074436740875,0.5303156971931458,-9.885659217834473,0.4644751250743866,0.00958251953125,0.02661811001598835,-0.0114457868039608
2074437978250,0.5578489899635315,-9.849745750427246,0.45250412821769714,0.0119781494140625,0.0338049978017807,-0.012510511092841625
2074439215625,0.49559974670410156,-9.841365814208984,0.4357447028160095,0.014373779296875,0.02741665206849575,-0.005057440605014563
2074440452962,0.5231330990791321,-9.873687744140625,0.4752490520477295,0.012776692397892475,0.02661811001598835,0.0007985432748682797
2074441690350,0.49799394607543945,-9.864110946655273,0.5039794445037842,0.0066545275039970875,0.0311431884765625,-0.0021294488105922937
2074442927700,0.4967968463897705,-9.858125686645508,0.4429273307323456,0.0114457868039608,0.02981228195130825,-0.0005323622026480734
2074444165050,0.5339069962501526,-9.854534149169922,0.44771572947502136,0.01650322787463665,0.0295461006462574,-0.0010647244052961469
2074445402425,0.5662286877632141,-9.847352027893066,0.4465186297893524,0.0114457868039608,0.0311431884765625,-0.0026618109550327063
2074446639787,0.5710170865058899,-9.86650562286377,0.4141969084739685,0.010114881210029125,0.0295461006462574,-0.0042588976211845875
2074447877162,0.5351040959358215,-9.847352027893066,0.4441244304180145,0.014906140975654125,0.0247548408806324,-0.0063883461989462376
2074449114512,0.5638344883918762,-9.828198432922363,0.4752490520477295,0.013042873702943325,0.0268842913210392,-0.005057440605014563
2074450351875,0.5339069962501526,-9.819818496704102,0.4644751250743866,0.01357523538172245,0.02874755859375,0.0002661811013240367
2074451589250,0.5398924946784973,-9.850942611694336,0.4441244304180145,0.012776692397892475,0.02794901467859745,-0.0013309054775163531
2074452826612,0.5985504388809204,-9.840168952941895,0.4381389021873474,0.0114457868039608,0.0316755510866642,-0.0037265352439135313
2074454063987,0.5949591398239136,-9.832986831665039,0.4596867263317108,0.01117960549890995,0.03087700717151165,-0.0010647244052961469
2074455301337,0.568622887134552,-9.84256362915039,0.45848962664604187,0.01357523538172245,0.02794901467859745,0.0002661811013240367
2074456538687,0.5877765417098999,-9.816226959228516,0.45489832758903503,0.01224433071911335,0.02848137728869915,0.0010647244052961469
2074457776050,0.5793968439102173,-9.860519409179688,0.44771572947502136,0.00931633822619915,0.02608574740588665,0.0
2074459013425,0.568622887134552,-9.836577415466309,0.4465186297893524,0.00958251953125,0.0258195661008358,-0.004791259765625
2074460250787,0.568622887134552,-9.916783332824707,0.44532153010368347,0.01224433071911335,0.02794901467859745,-0.00452507846057415
2074461488150,0.5578489899635315,-9.858125686645508,0.44532153010368347,0.0157046839594841,0.0282151959836483,-0.0053236219100654125
2074462725512,0.5638344883918762,-9.850942611694336,0.4644751250743866,0.0173017717897892,0.0258195661008358,-0.0037265352439135313
2074463962875,0.5219359993934631,-9.817423820495605,0.47884035110473633,0.014906140975654125,0.02661811001598835,-0.0031941730994731188
2074465200237,0.5841852426528931,-9.865307807922363,0.4800374507904053,0.01756795309484005,0.02661811001598835,-0.005855984054505825
2074466437600,0.5817910432815552,-9.849745750427246,0.47405195236206055,0.01783413253724575,0.02369011752307415,-0.0010647244052961469
2074467674962,0.5829881429672241,-9.815030097961426,0.4728548526763916,0.01357523538172245,0.02502102218568325,0.0029279920272529125
2074468912325,0.5722141861915588,-9.854534149169922,0.4800374507904053,0.015172322280704975,0.02981228195130825,-0.0018632676219567657
2074470149700,0.5877765417098999,-9.860519409179688,0.4944026470184326,0.01783413253724575,0.0252872034907341,-0.005057440605014563
2074471387062,0.5602431893348694,-9.827000617980957,0.4728548526763916,0.015172322280704975,0.023956298828125,-0.003460354171693325
2074472624425,0.5997475385665894,-9.841365814208984,0.4644751250743866,0.01756795309484005,0.02422248013317585,0.0002661811013240367
2074473861787,0.6033388376235962,-9.801861763000488,0.4381389021873474,0.01597086526453495,0.0210283063352108,-0.0029279920272529125
2074475099150,0.5817910432815552,-9.81263542175293,0.45489832758903503,0.014373779296875,0.0223592109978199,-0.0010647244052961469
2074476336525,0.5410895943641663,-9.852140426635742,0.46088382601737976,0.015438503585755825,0.0228915736079216,-0.004791259765625
2074477573875,0.5937620401382446,-9.837775230407715,0.4812345504760742,0.01357523538172245,0.02315775491297245,-0.0029279920272529125
2074478811250,0.606930136680603,-9.850942611694336,0.47884035110473633,0.0162370465695858,0.0215606689453125,-0.0063883461989462376
2074480048612,0.5734112858772278,-9.850942611694336,0.4752490520477295,0.01463996060192585,0.01756795309484005,-0.008783976547420025
2074481285950,0.5937620401382446,-9.81143856048584,0.4920084476470947,0.0186326764523983,0.01943122036755085,-0.0039927163161337376
2074482523337,0.5949591398239136,-9.84495735168457,0.4513070285320282,0.01756795309484005,0.023956298828125,-0.005589802749454975
2074483760700,0.5781997442245483,-9.84256362915039,0.44173023104667664,0.01756795309484005,0.0196974016726017,-0.007985432632267475
2074484998062,0.5530605912208557,-9.870096206665039,0.42856210470199585,0.01650322787463665,0.02129448764026165,-0.0042588976211845875
2074486235437,0.6536170840263367,-9.841365814208984,0.48722004890441895,0.02022976242005825,0.01943122036755085,-0.0037265352439135313
2074487472787,0.5734112858772278,-9.830592155456543,0.5015852451324463,0.02022976242005825,0.015172322280704975,-0.005589802749454975
2074488710162,0.5949591398239136,-9.855731010437012,0.4321534037590027,0.01783413253724575,0.013042873702943325,-0.005855984054505825
2074489947512,0.5602431893348694,-9.837775230407715,0.4668693244457245,0.015172322280704975,0.0162370465695858,-0.008251613937318325
2074491184875,0.6141127347946167,-9.882067680358887,0.46327802538871765,0.0173017717897892,0.0167694091796875,-0.006122165359556675
2074492422237,0.5746083855628967,-9.836577415466309,0.4944026470184326,0.01650322787463665,0.0181003138422966,-0.005057440605014563
2074493659625,0.5662286877632141,-9.829395294189453,0.47165775299072266,0.0223592109978199,0.013309055007994175,-0.005589802749454975
2074494896962,0.5829881429672241,-9.848548889160156,0.48722004890441895,0.01889885775744915,0.01836649514734745,-0.0063883461989462376
2074496134337,0.5722141861915588,-9.856928825378418,0.456095427274704,0.0191650390625,0.01357523538172245,-0.00452507846057415
2074497371700,0.5734112858772278,-9.865307807922363,0.49559974670410156,0.02129448764026165,0.01650322787463665,-0.00452507846057415
2074498609050,0.5770025849342346,-9.831789016723633,0.43694180250167847,0.02022976242005825,0.0181003138422966,-0.00984870083630085
2074499846425,0.545877993106842,-9.859322547912598,0.5015852451324463,0.0162370465695858,0.01463996060192585,-0.0039927163161337376
2074501083787,0.5877765417098999,-9.861717224121094,0.47644615173339844,0.0191650390625,0.0138414166867733,-0.0037265352439135313
2074502321137,0.5662286877632141,-9.830592155456543,0.48602294921875,0.01889885775744915,0.012510511092841625,-0.00452507846057415
2074503558512,0.569819986820221,-9.852140426635742,0.5111620426177979,0.0167694091796875,0.01171196810901165,-0.0015970865497365594
2074504795862,0.6045359373092651,-9.86889934539795,0.47884035110473633,0.01703559048473835,0.01463996060192585,-0.0031941730994731188
2074506033225,0.5602431893348694,-9.877279281616211,0.4908113479614258,0.01836649514734745,0.0138414166867733,-0.010381062515079975
2074507270612,0.5841852426528931,-9.847352027893066,0.4345476031303406,0.0173017717897892,0.007985432632267475,-0.012510511092841625
2074508507962,0.5793968439102173,-9.861717224121094,0.4465186297893524,0.0181003138422966,0.00931633822619915,-0.005589802749454975
2074509745350,0.5877765417098999,-9.871294021606445,0.4776432514190674,0.0191650390625,0.010647243820130825,-0.003460354171693325
2074510982700,0.5877765417098999,-9.86889934539795,0.48602294921875,0.02129448764026165,0.010114881210029125,-0.0021294488105922937
2074512220062,0.586579442024231,-9.872490882873535,0.49320554733276367,0.02022976242005825,0.010381062515079975,-0.003460354171693325
2074513457425,0.6129156351089478,-9.852140426635742,0.5039794445037842,0.01889885775744915,0.00931633822619915,-0.004791259765625
2074514694775,0.586579442024231,-9.858125686645508,0.47644615173339844,0.014906140975654125,0.005589802749454975,-0.006122165359556675
2074515932137,0.5734112858772278,-9.889249801635742,0.48482584953308105,0.01703559048473835,0.0090501569211483,-0.0066545275039970875
2074517169525,0.5877765417098999,-9.882067680358887,0.46567222476005554,0.0191650390625,0.010913425125181675,-0.003460354171693325
2074518406887,0.5506663918495178,-9.840168952941895,0.42018240690231323,0.01783413253724575,0.008517795242369175,-0.0063883461989462376
2074519644237,0.5793968439102173,-9.853337287902832,0.46088382601737976,0.01410759799182415,0.0042588976211845875,-0.013042873702943325
2074520881587,0.5662286877632141,-9.828198432922363,0.4644751250743866,0.015438503585755825,0.00692070834338665,-0.0114457868039608
2074522118962,0.5913678407669067,-9.892841339111328,0.47884035110473633,0.01703559048473835,0.007985432632267475,-0.0037265352439135313
2074523356350,0.5961562395095825,-9.8784761428833,0.45489832758903503,0.01650322787463665,0.005057440605014563,-0.0031941730994731188
2074524593700,0.5817910432815552,-9.898826599121094,0.50876784324646,0.01597086526453495,0.003460354171693325,-0.0042588976211845875
2074525831037,0.5410895943641663,-9.884461402893066,0.4967968463897705,0.01224433071911335,0.008517795242369175,-0.0119781494140625
2074527068450,0.5303156971931458,-9.931148529052734,0.4704606235027313,0.015438503585755825,0.005057440605014563,-0.0071868896484375
2074528305787,0.5805939435958862,-9.907206535339355,0.47165775299072266,0.015438503585755825,0.008783976547420025,-0.0119781494140625
2074529543137,0.5434837937355042,-9.889249801635742,0.49559974670410156,0.012776692397892475,0.007453070487827063,-0.01650322787463665
2074530780512,0.6165069341659546,-9.880870819091797,0.4752490520477295,0.015172322280704975,0.0039927163161337376,-0.003460354171693325
2074532017887,0.5758054852485657,-9.888052940368652,0.47644615173339844,0.015438503585755825,0.0066545275039970875,-0.005057440605014563
2074533255250,0.5925649404525757,-9.87967300415039,0.48722004890441895,0.01171196810901165,0.0063883461989462376,-0.00452507846057415
2074534492600,0.5578489899635315,-9.882067680358887,0.44771572947502136,0.014906140975654125,0.003460354171693325,-0.0071868896484375
2074535729975,0.5889736413955688,-9.910798072814941,0.5123591423034668,0.014906140975654125,0.0018632676219567657,-0.0138414166867733
2074536967337,0.5363011956214905,-9.883264541625977,0.47884035110473633,0.01117960549890995,0.0010647244052961469,-0.01117960549890995
2074538204700,0.5949591398239136,-9.898826599121094,0.4513070285320282,0.0114457868039608,0.0023956298828125,-0.010913425125181675
2074539442075,0.5817910432815552,-9.86770248413086,0.47405195236206055,0.015438503585755825,0.0002661811013240367,-0.005855984054505825
2074540679425,0.5446808934211731,-9.856928825378418,0.45489832758903503,0.012776692397892475,-0.003460354171693325,-0.005589802749454975
2074541916775,0.5518634915351868,-9.853337287902832,0.47165775299072266,0.01357523538172245,0.0026618109550327063,-0.00692070834338665
2074543154150,0.5925649404525757,-9.848548889160156,0.47165775299072266,0.0119781494140625,0.0007985432748682797,-0.004791259765625
2074544391525,0.5841852426528931,-9.84495735168457,0.49799394607543945,0.01597086526453495,-0.0007985432748682797,-0.0013309054775163531
2074545628875,0.5566518902778625,-9.886856079101562,0.50876784324646,0.012776692397892475,-0.0021294488105922937,-0.008783976547420025
2074546866237,0.5913678407669067,-9.855731010437012,0.49559974670410156,0.013042873702943325,0.0013309054775163531,-0.010913425125181675
2074548103612,0.6332663297653198,-9.880870819091797,0.4991910457611084,0.015172322280704975,-0.0031941730994731188,0.0002661811013240367
2074549340962,0.6153098344802856,-9.824606895446777,0.4489128291606903,0.012776692397892475,-0.0013309054775163531,-0.0071868896484375
2074550578325,0.5566518902778625,-9.84615421295166,0.47405195236206055,0.014373779296875,-0.0026618109550327063,-0.008517795242369175
2074551815687,0.6129156351089478,-9.838972091674805,0.5003881454467773,0.015172322280704975,-0.00452507846057415,-0.0026618109550327063
2074553053062,0.6117185354232788,-9.84615421295166,0.4908113479614258,0.0162370465695858,-0.0029279920272529125,-0.0010647244052961469
2074554290412,0.568622887134552,-9.860519409179688,0.5147533416748047,0.013042873702943325,-0.0023956298828125,-0.0063883461989462376
2074555527787,0.5901707410812378,-9.831789016723633,0.5099649429321289,0.0138414166867733,0.0002661811013240367,-0.0031941730994731188
2074556765162,0.5674257874488831,-9.828198432922363,0.46567222476005554,0.01410759799182415,-0.005057440605014563,-0.0002661811013240367
2074558002512,0.5279214978218079,-9.859322547912598,0.50876784324646,0.015172322280704975,-0.0042588976211845875,0.0005323622026480734
2074559239887,0.5793968439102173,-9.861717224121094,0.4800374507904053,0.0138414166867733,-0.0021294488105922937,-0.007453070487827063
2074560477250,0.5841852426528931,-9.854534149169922,0.4812345504760742,0.01117960549890995,-0.0042588976211845875,-0.0021294488105922937
2074561714612,0.5758054852485657,-9.8784761428833,0.4273650050163269,0.013309055007994175,-0.003460354171693325,0.0013309054775163531
2074562951962,0.5279214978218079,-9.86650562286377,0.46088382601737976,0.01224433071911335,-0.005855984054505825,0.0018632676219567657
2074564189337,0.5793968439102173,-9.852140426635742,0.4967968463897705,0.014906140975654125,-0.005057440605014563,0.0021294488105922937
2074565426687,0.5530605912208557,-9.883264541625977,0.4513070285320282,0.01783413253724575,-0.005057440605014563,-0.0002661811013240367
2074566664062,0.5542576909065247,-9.86889934539795,0.45250412821769714,0.0167694091796875,-0.0066545275039970875,-0.0005323622026480734
2074567901425,0.5530605912208557,-9.90122127532959,0.49320554733276367,0.01597086526453495,-0.0037265352439135313,0.003460354171693325
2074569138800,0.5997475385665894,-9.861717224121094,0.4357447028160095,0.014906140975654125,-0.0018632676219567657,0.005589802749454975
2074570376150,0.5758054852485657,-9.894038200378418,0.456095427274704,0.0157046839594841,-0.0037265352439135313,0.0023956298828125
2074571613525,0.5386953949928284,-9.850942611694336,0.47644615173339844,0.01224433071911335,-0.008517795242369175,0.00452507846057415
2074572850875,0.5770025849342346,-9.861717224121094,0.48482584953308105,0.01463996060192585,-0.0071868896484375,-0.0015970865497365594
2074574088237,0.5638344883918762,-9.86770248413086,0.4405331015586853,0.013042873702943325,-0.006122165359556675,0.0023956298828125
2074575325612,0.5578489899635315,-9.892841339111328,0.4572925269603729,0.01171196810901165,-0.003460354171693325,0.0007985432748682797
2074576562975,0.5734112858772278,-9.913191795349121,0.41778820753097534,0.0114457868039608,-0.0053236219100654125,0.004791259765625
2074577800350,0.5937620401382446,-9.87967300415039,0.45010992884635925,0.01463996060192585,-0.0042588976211845875,0.005589802749454975
2074579037687,0.585382342338562,-9.855731010437012,0.4704606235027313,0.015438503585755825,-0.00452507846057415,0.0018632676219567657
2074580275062,0.5734112858772278,-9.850942611694336,0.4884171485900879,0.008251613937318325,-0.003460354171693325,0.003460354171693325
2074581512437,0.5722141861915588,-9.885659217834473,0.5015852451324463,0.00931633822619915,-0.007453070487827063,0.008517795242369175
2074582749800,0.5518634915351868,-9.876082420349121,0.4381389021873474,0.008251613937318325,-0.010647243820130825,0.010114881210029125
2074583987162,0.5506663918495178,-9.882067680358887,0.45848962664604187,0.00984870083630085,-0.0026618109550327063,0.00958251953125
2074585224525,0.585382342338562,-9.915586471557617,0.47644615173339844,0.00984870083630085,-0.00984870083630085,0.005855984054505825
2074586461875,0.5434837937355042,-9.856928825378418,0.4920084476470947,0.00692070834338665,-0.0053236219100654125,0.004791259765625
2074587699237,0.5063736438751221,-9.871294021606445,0.47884035110473633,0.0090501569211483,-0.00692070834338665,0.005057440605014563
2074588936612,0.5542576909065247,-9.860519409179688,0.4967968463897705,0.007453070487827063,-0.006122165359556675,0.005589802749454975
2074590174000,0.5566518902778625,-9.8784761428833,0.507570743560791,0.00931633822619915,-0.00452507846057415,0.0042588976211845875
2074591411350,0.5231330990791321,-9.871294021606445,0.5159504413604736,0.008251613937318325,-0.0063883461989462376,0.0031941730994731188
2074592648712,0.5410895943641663,-9.872490882873535,0.46327802538871765,0.005057440605014563,-0.00692070834338665,0.00692070834338665
2074593886062,0.5422866940498352,-9.865307807922363,0.5015852451324463,0.00984870083630085,-0.0090501569211483,0.0071868896484375
2074595123425,0.547075092792511,-9.885659217834473,0.4465186297893524,0.01171196810901165,-0.0066545275039970875,0.004791259765625
2074596360812,0.5363011956214905,-9.87967300415039,0.45250412821769714,0.0066545275039970875,-0.007985432632267475,0.00692070834338665
2074597598150,0.5015852451324463,-9.86770248413086,0.5039794445037842,0.007453070487827063,-0.010381062515079975,0.0039927163161337376
2074598835500,0.4991910457611084,-9.84615421295166,0.524330198764801,0.01357523538172245,-0.0039927163161337376,0.013309055007994175
2074600072875,0.5434837937355042,-9.849745750427246,0.4884171485900879,0.0090501569211483,-0.005589802749454975,0.01171196810901165
2074601310250,0.5626373887062073,-9.855731010437012,0.5027823448181152,0.00692070834338665,-0.0071868896484375,0.004791259765625
2074602547612,0.5422866940498352,-9.848548889160156,0.4213795065879822,0.010913425125181675,-0.005057440605014563,0.008517795242369175
2074603784975,0.5303156971931458,-9.919178009033203,0.45848962664604187,0.003460354171693325,-0.005589802749454975,0.004791259765625
2074605022325,0.5518634915351868,-9.916783332824707,0.5111620426177979,0.005057440605014563,-0.005057440605014563,0.0037265352439135313
2074606259700,0.4967968463897705,-9.896432876586914,0.48602294921875,0.0090501569211483,-0.0063883461989462376,0.0063883461989462376
2074607497087,0.5351040959358215,-9.90122127532959,0.5039794445037842,0.0013309054775163531,-0.0119781494140625,0.0039927163161337376
2074608734425,0.5363011956214905,-9.870096206665039,0.47165775299072266,0.0031941730994731188,-0.0039927163161337376,0.0066545275039970875
2074609971800,0.5111620426177979,-9.93354320526123,0.4908113479614258,0.0066545275039970875,-0.00452507846057415,0.0114457868039608
2074611209175,0.569819986820221,-9.891644477844238,0.4441244304180145,0.0063883461989462376,-0.00692070834338665,0.007985432632267475
2074612446525,0.5482721924781799,-9.873687744140625,0.46806642413139343,0.0037265352439135313,-0.005057440605014563,0.00452507846057415
2074613683887,0.5374982953071594,-9.904812812805176,0.42018240690231323,0.0002661811013240367,-0.007985432632267475,0.008783976547420025
2074614921262,0.5614402890205383,-9.943120002746582,0.4465186297893524,0.0015970865497365594,-0.0005323622026480734,0.0042588976211845875
2074616158612,0.5554547905921936,-9.915586471557617,0.4884171485900879,0.0005323622026480734,-0.003460354171693325,0.0010647244052961469
2074617395975,0.5207388997077942,-9.907206535339355,0.47884035110473633,0.0029279920272529125,-0.0037265352439135313,0.003460354171693325
2074618633350,0.5446808934211731,-9.891644477844238,0.46088382601737976,0.0,-0.007453070487827063,-0.0013309054775163531
2074619870725,0.5434837937355042,-9.923966407775879,0.5327098965644836,0.0002661811013240367,-0.005589802749454975,-0.0013309054775163531
2074621108062,0.5039794445037842,-9.932345390319824,0.4944026470184326,0.0018632676219567657,-0.007985432632267475,0.0010647244052961469
2074622345425,0.545877993106842,-9.93474006652832,0.5482721924781799,0.0015970865497365594,-0.0015970865497365594,-0.0021294488105922937
2074623582787,0.5901707410812378,-9.915586471557617,0.46567222476005554,-0.0010647244052961469,-0.0021294488105922937,-0.0015970865497365594
2074624820150,0.545877993106842,-9.932345390319824,0.4967968463897705,0.0010647244052961469,-0.0042588976211845875,-0.0053236219100654125
2074626057525,0.5805939435958862,-9.919178009033203,0.48722004890441895,0.0018632676219567657,-0.007453070487827063,0.0015970865497365594
2074627294875,0.5817910432815552,-9.880870819091797,0.4752490520477295,0.0026618109550327063,-0.0039927163161337376,-0.0039927163161337376
2074628532250,0.5602431893348694,-9.919178009033203,0.4513070285320282,0.0031941730994731188,-0.0037265352439135313,-0.0077192517928779125
2074629769612,0.5566518902778625,-9.877279281616211,0.48482584953308105,-0.0018632676219567657,-0.0010647244052961469,-0.0042588976211845875
2074631006987,0.5351040959358215,-9.876082420349121,0.4800374507904053,-0.0026618109550327063,-0.0010647244052961469,-0.0013309054775163531
2074632244350,0.5710170865058899,-9.874884605407715,0.47644615173339844,0.0,-0.0002661811013240367,-0.00452507846057415
2074633481687,0.5925649404525757,-9.841365814208984,0.4836287498474121,0.0029279920272529125,-0.004791259765625,-0.0026618109550327063
2074634719075,0.5614402890205383,-9.859322547912598,0.4884171485900879,0.0037265352439135313,-0.005855984054505825,0.0005323622026480734
2074635956450,0.5363011956214905,-9.882067680358887,0.5015852451324463,0.0013309054775163531,-0.0026618109550327063,-0.00692070834338665
2074637193800,0.545877993106842,-9.860519409179688,0.43933600187301636,0.0007985432748682797,-0.0013309054775163531,-0.005855984054505825
2074638431175,0.5578489899635315,-9.870096206665039,0.44173023104667664,0.0018632676219567657,-0.0029279920272529125,-0.0013309054775163531
2074639668525,0.5841852426528931,-9.858125686645508,0.47644615173339844,-0.0015970865497365594,-0.0023956298828125,-0.005589802749454975
2074640905900,0.524330198764801,-9.855731010437012,0.48722004890441895,0.0023956298828125,-0.0015970865497365594,-0.005589802749454975
2074642143262,0.5542576909065247,-9.914389610290527,0.48722004890441895,-0.0026618109550327063,-0.0010647244052961469,-0.0090501569211483
2074643380625,0.5315127968788147,-9.888052940368652,0.49320554733276367,-0.0010647244052961469,-0.0031941730994731188,-0.008783976547420025
2074644617987,0.5829881429672241,-9.838972091674805,0.4704606235027313,0.0042588976211845875,-0.0053236219100654125,-0.0053236219100654125
2074645855350,0.5542576909065247,-9.852140426635742,0.48482584953308105,0.0039927163161337376,-0.0021294488105922937,-0.0063883461989462376
2074647092712,0.5267243981361389,-9.813833236694336,0.47644615173339844,0.0026618109550327063,-0.003460354171693325,-0.0042588976211845875
2074648330075,0.5231330990791321,-9.832986831665039,0.4884171485900879,-0.0021294488105922937,0.0005323622026480734,-0.007985432632267475
2074649567462,0.5446808934211731,-9.862914085388184,0.4752490520477295,-0.0031941730994731188,0.0023956298828125,-0.012510511092841625
2074650804800,0.5434837937355042,-9.861717224121094,0.44173023104667664,-0.0031941730994731188,0.0031941730994731188,-0.00984870083630085
2074652042175,0.5997475385665894,-9.886856079101562,0.4812345504760742,-0.0026618109550327063,0.0018632676219567657,-0.006122165359556675
2074653279537,0.5985504388809204,-9.850942611694336,0.48243165016174316,0.0005323622026480734,0.0,-0.008783976547420025
2074654516900,0.5638344883918762,-9.832986831665039,0.5351040959358215,0.0039927163161337376,0.0002661811013240367,-0.0090501569211483
2074655754275,0.5566518902778625,-9.832986831665039,0.46806642413139343,0.0002661811013240367,-0.0015970865497365594,-0.0077192517928779125
2074656991650,0.5638344883918762,-9.856928825378418,0.48243165016174316,-0.0023956298828125,-0.005057440605014563,-0.00931633822619915
2074658228987,0.5973533391952515,-9.837775230407715,0.49799394607543945,-0.0015970865497365594,-0.00452507846057415,-0.008517795242369175
2074659466350,0.5758054852485657,-9.884461402893066,0.41539400815963745,0.0010647244052961469,0.0031941730994731188,-0.010647243820130825
2074660703725,0.5662286877632141,-9.860519409179688,0.41778820753097534,-0.00452507846057415,0.0,-0.007985432632267475
2074661941062,0.5410895943641663,-9.9000244140625,0.4920084476470947,-0.003460354171693325,0.0010647244052961469,-0.0090501569211483
2074663178462,0.5626373887062073,-9.873687744140625,0.4776432514190674,-0.0037265352439135313,0.0007985432748682797,-0.008783976547420025
2074664415837,0.5494692921638489,-9.898826599121094,0.5159504413604736,-0.0002661811013240367,-0.0031941730994731188,-0.00452507846057415
2074665653200,0.5351040959358215,-9.854534149169922,0.48722004890441895,0.0013309054775163531,-0.004791259765625,-0.006122165359556675
2074666890537,0.5363011956214905,-9.818621635437012,0.5279214978218079,-0.0007985432748682797,0.0010647244052961469,-0.00692070834338665
2074668127912,0.5638344883918762,-9.852140426635742,0.4752490520477295,0.0007985432748682797,0.0002661811013240367,-0.00452507846057415
2074669365275,0.5662286877632141,-9.849745750427246,0.47884035110473633,0.0026618109550327063,-0.005057440605014563,-0.0066545275039970875
2074670602637,0.5722141861915588,-9.84376049041748,0.45848962664604187,0.0037265352439135313,-0.005589802749454975,-0.0071868896484375
2074671840000,0.5614402890205383,-9.841365814208984,0.4489128291606903,-0.0005323622026480734,0.005589802749454975,-0.006122165359556675
2074673077362,0.5746083855628967,-9.84495735168457,0.4836287498474121,0.0010647244052961469,0.00452507846057415,-0.01224433071911335
2074674314750,0.5877765417098999,-9.853337287902832,0.5171476006507874,0.0015970865497365594,-0.0021294488105922937,-0.00984870083630085
2074675552100,0.5901707410812378,-9.853337287902832,0.4704606235027313,0.00452507846057415,0.0023956298828125,-0.0066545275039970875
2074676789462,0.5530605912208557,-9.819818496704102,0.4991910457611084,-0.0005323622026480734,0.0026618109550327063,-0.005855984054505825
2074678026837,0.568622887134552,-9.798270225524902,0.5051765441894531,0.005057440605014563,-0.003460354171693325,-0.0021294488105922937
2074679264200,0.5758054852485657,-9.816226959228516,0.47405195236206055,0.0063883461989462376,0.0005323622026480734,-0.010647243820130825
2074680501562,0.6129156351089478,-9.827000617980957,0.4704606235027313,0.0053236219100654125,-0.0007985432748682797,-0.00984870083630085
2074681738925,0.5949591398239136,-9.834183692932129,0.46327802538871765,0.01171196810901165,-0.0042588976211845875,-0.0037265352439135313
2074682976275,0.5901707410812378,-9.827000617980957,0.48961424827575684,0.006122165359556675,0.0013309054775163531,-0.01224433071911335
2074684213650,0.5494692921638489,-9.798270225524902,0.47165775299072266,0.005057440605014563,-0.0023956298828125,-0.008517795242369175
2074685451000,0.608127236366272,-9.841365814208984,0.5422866940498352,0.00958251953125,0.0010647244052961469,-0.0063883461989462376
2074686688400,0.6177040338516235,-9.818621635437012,0.4429273307323456,0.0071868896484375,0.0005323622026480734,-0.0071868896484375
2074687925737,0.6033388376235962,-9.816226959228516,0.5039794445037842,0.008251613937318325,-0.0021294488105922937,-0.00931633822619915
2074689163100,0.6344634294509888,-9.816226959228516,0.48602294921875,0.006122165359556675,0.0013309054775163531,-0.008251613937318325
2074690400475,0.5841852426528931,-9.757569313049316,0.4812345504760742,0.005057440605014563,0.0029279920272529125,-0.004791259765625
2074691637825,0.5949591398239136,-9.819818496704102,0.4776432514190674,0.0066545275039970875,0.0053236219100654125,-0.008783976547420025
2074692875200,0.6093243360519409,-9.81263542175293,0.4967968463897705,0.0063883461989462376,-0.004791259765625,-0.0090501569211483
2074694112562,0.5554547905921936,-9.834183692932129,0.4489128291606903,0.0090501569211483,-0.0071868896484375,-0.00958251953125
2074695349937,0.5710170865058899,-9.823410034179688,0.45010992884635925,0.0114457868039608,-0.005589802749454975,-0.0066545275039970875
2074696587287,0.5758054852485657,-9.840168952941895,0.4537012279033661,0.010913425125181675,-0.0063883461989462376,-0.0071868896484375
2074697824662,0.5949591398239136,-9.81024169921875,0.46327802538871765,0.008783976547420025,-0.0021294488105922937,-0.007453070487827063
2074699062037,0.5985504388809204,-9.798270225524902,0.45848962664604187,0.01597086526453495,-0.0031941730994731188,-0.0021294488105922937
2074700299400,0.5626373887062073,-9.816226959228516,0.45489832758903503,0.0157046839594841,-0.005855984054505825,-0.00452507846057415
2074701536750,0.6033388376235962,-9.824606895446777,0.5291185975074768,0.012776692397892475,0.0002661811013240367,-0.0042588976211845875
2074702774125,0.5973533391952515,-9.821015357971191,0.45250412821769714,0.01463996060192585,0.0015970865497365594,-0.007985432632267475
2074704011500,0.6009446382522583,-9.819818496704102,0.46327802538871765,0.0157046839594841,0.0005323622026480734,-0.005057440605014563
2074705248850,0.6165069341659546,-9.813833236694336,0.4944026470184326,0.01650322787463665,-0.0021294488105922937,-0.0053236219100654125
2074706486200,0.6524199843406677,-9.786299705505371,0.4728548526763916,0.014906140975654125,-0.0031941730994731188,-0.005589802749454975
2074707723562,0.5805939435958862,-9.841365814208984,0.48961424827575684,0.01171196810901165,-0.0037265352439135313,-0.005589802749454975
2074708960925,0.6129156351089478,-9.837775230407715,0.46088382601737976,0.015438503585755825,-0.0018632676219567657,-0.0042588976211845875
2074710198300,0.5734112858772278,-9.803058624267578,0.45250412821769714,0.0181003138422966,-0.0010647244052961469,-0.003460354171693325
2074711435675,0.5841852426528931,-9.799468040466309,0.5063736438751221,0.01650322787463665,-0.0039927163161337376,-0.0018632676219567657
2074712673025,0.6416460871696472,-9.786299705505371,0.5039794445037842,0.014906140975654125,-0.0018632676219567657,-0.00931633822619915
2074713910387,0.6200982332229614,-9.804256439208984,0.48961424827575684,0.013042873702943325,-0.0005323622026480734,-0.00958251953125
2074715147737,0.6165069341659546,-9.794679641723633,0.5159504413604736,0.0138414166867733,-0.0042588976211845875,-0.005589802749454975
2074716385112,0.6165069341659546,-9.799468040466309,0.48482584953308105,0.0138414166867733,-0.0066545275039970875,-0.0063883461989462376
2074717622475,0.5650315880775452,-9.806650161743164,0.5063736438751221,0.0157046839594841,-0.0018632676219567657,-0.015438503585755825
2074718859837,0.5734112858772278,-9.803058624267578,0.49559974670410156,0.0162370465695858,-0.0053236219100654125,-0.0066545275039970875
2074720097212,0.6248866319656372,-9.821015357971191,0.4692635238170624,0.0119781494140625,-0.0090501569211483,-0.0042588976211845875
2074721334575,0.5734112858772278,-9.805453300476074,0.4752490520477295,0.012510511092841625,-0.0015970865497365594,-0.005057440605014563
2074722571937,0.6033388376235962,-9.817423820495605,0.5159504413604736,0.015172322280704975,-0.005057440605014563,-0.0013309054775163531
2074723809300,0.6260837316513062,-9.865307807922363,0.4800374507904053,0.0181003138422966,-0.0007985432748682797,-0.008517795242369175
2074725046675,0.6033388376235962,-9.827000617980957,0.4752490520477295,0.02182685025036335,-0.0039927163161337376,-0.00692070834338665
2074726284037,0.6105214357376099,-9.813833236694336,0.49799394607543945,0.01943122036755085,-0.0007985432748682797,-0.00452507846057415
2074727521387,0.628477931022644,-9.84256362915039,0.5051765441894531,0.02182685025036335,-0.007453070487827063,-0.00452507846057415
2074728758787,0.6428431868553162,-9.813833236694336,0.46806642413139343,0.0223592109978199,-0.0053236219100654125,-0.0042588976211845875
2074729996125,0.6045359373092651,-9.821015357971191,0.48961424827575684,0.0173017717897892,-0.003460354171693325,-0.01117960549890995
2074731233500,0.606930136680603,-9.832986831665039,0.4836287498474121,0.01703559048473835,-0.005589802749454975,-0.005057440605014563
2074732470862,0.6165069341659546,-9.837775230407715,0.47884035110473633,0.01943122036755085,-0.003460354171693325,-0.0010647244052961469
2074733708225,0.6548141837120056,-9.84376049041748,0.4908113479614258,0.0210283063352108,-0.0063883461989462376,-0.00692070834338665
2074734945600,0.6380547285079956,-9.806650161743164,0.5051765441894531,0.0186326764523983,-0.0053236219100654125,-0.0077192517928779125
2074736182962,0.6392518877983093,-9.824606895446777,0.5147533416748047,0.0186326764523983,-0.0029279920272529125,-0.010381062515079975
2074737420325,0.6524199843406677,-9.825803756713867,0.5051765441894531,0.01943122036755085,-0.008251613937318325,-0.00692070834338665
2074738657687,0.606930136680603,-9.829395294189453,0.4668693244457245,0.01703559048473835,-0.00452507846057415,-0.0031941730994731188
2074739895037,0.6165069341659546,-9.801861763000488,0.5147533416748047,0.02262539230287075,-0.005589802749454975,-0.004791259765625
2074741132425,0.5973533391952515,-9.836577415466309,0.5111620426177979,0.02369011752307415,-0.007985432632267475,-0.0023956298828125
2074742369775,0.6272808313369751,-9.769539833068848,0.4920084476470947,0.02262539230287075,-0.010913425125181675,-0.0002661811013240367
2074743607150,0.5985504388809204,-9.803058624267578,0.5039794445037842,0.0186326764523983,-0.00692070834338665,-0.0031941730994731188
2074744844512,0.646434485912323,-9.785102844238281,0.4908113479614258,0.0223592109978199,-0.007985432632267475,-0.0031941730994731188
2074746081862,0.6392518877983093,-9.806650161743164,0.47405195236206055,0.02315775491297245,-0.012776692397892475,-0.0010647244052961469
2074747319225,0.6105214357376099,-9.829395294189453,0.5219359993934631,0.0228915736079216,-0.0119781494140625,-0.0031941730994731188
2074748556600,0.6200982332229614,-9.763554573059082,0.4572925269603729,0.02608574740588665,-0.00931633822619915,-0.0026618109550327063
2074749793962,0.6117185354232788,-9.821015357971191,0.49320554733276367,0.0276828333735466,-0.01597086526453495,-0.0015970865497365594
2074751031325,0.646434485912323,-9.781511306762695,0.4991910457611084,0.0252872034907341,-0.012510511092841625,0.0023956298828125
2074752268687,0.5997475385665894,-9.81263542175293,0.4920084476470947,0.0223592109978199,-0.012510511092841625,-0.0010647244052961469
2074753506062,0.6392518877983093,-9.819818496704102,0.52552729845047,0.02608574740588665,-0.0138414166867733,-0.0007985432748682797
2074754743412,0.6093243360519409,-9.80904483795166,0.4884171485900879,0.02794901467859745,-0.01463996060192585,-0.00452507846057415
2074755980787,0.6272808313369751,-9.793481826782227,0.5039794445037842,0.0247548408806324,-0.010114881210029125,-0.0013309054775163531
2074757218150,0.5901707410812378,-9.835380554199219,0.4776432514190674,0.02022976242005825,-0.0066545275039970875,-0.0026618109550327063
2074758455512,0.6332663297653198,-9.824606895446777,0.45250412821769714,0.0263519287109375,-0.012510511092841625,-0.0015970865497365594
2074759692875,0.6320692300796509,-9.794679641723633,0.5351040959358215,0.02422248013317585,-0.0119781494140625,0.0037265352439135313
2074760930212,0.6057330369949341,-9.771934509277344,0.5662286877632141,0.0244886614382267,-0.0138414166867733,0.0042588976211845875
2074762167600,0.5997475385665894,-9.806650161743164,0.4920084476470947,0.01889885775744915,-0.01171196810901165,-0.0037265352439135313
2074763404975,0.6200982332229614,-9.795876502990723,0.5363011956214905,0.02502102218568325,-0.0157046839594841,-0.0023956298828125
2074764642312,0.6165069341659546,-9.860519409179688,0.5135562419891357,0.02741665206849575,-0.015172322280704975,0.005855984054505825
2074765879700,0.6165069341659546,-9.803058624267578,0.4967968463897705,0.0282151959836483,-0.015172322280704975,0.0053236219100654125
2074767117062,0.667982280254364,-9.758766174316406,0.4800374507904053,0.0244886614382267,-0.01650322787463665,0.005589802749454975
2074768354425,0.6057330369949341,-9.816226959228516,0.4991910457611084,0.0268842913210392,-0.0119781494140625,-0.0023956298828125
2074769591787,0.6212953329086304,-9.821015357971191,0.5027823448181152,0.02874755859375,-0.014373779296875,0.0023956298828125
2074770829162,0.6260837316513062,-9.853337287902832,0.4920084476470947,0.0282151959836483,-0.0181003138422966,0.0063883461989462376
2074772066512,0.6033388376235962,-9.816226959228516,0.5231330990791321,0.02874755859375,-0.0138414166867733,0.0029279920272529125
2074773303887,0.645237386226654,-9.824606895446777,0.5063736438751221,0.03034464456140995,-0.02022976242005825,0.0037265352439135313
2074774541250,0.545877993106842,-9.803058624267578,0.4944026470184326,0.03034464456140995,-0.0258195661008358,-0.0002661811013240367
2074775778600,0.5758054852485657,-9.795876502990723,0.5111620426177979,0.0314093679189682,-0.01836649514734745,0.0005323622026480734
2074777015975,0.6200982332229614,-9.817423820495605,0.48602294921875,0.0338049978017807,-0.0204959437251091,0.004791259765625
2074778253350,0.6236895322799683,-9.822212219238281,0.4800374507904053,0.0343373604118824,-0.02129448764026165,0.0029279920272529125
2074779490700,0.5949591398239136,-9.804256439208984,0.5015852451324463,0.02315775491297245,-0.01463996060192585,-0.0010647244052961469
2074780728075,0.606930136680603,-9.830592155456543,0.5111620426177979,0.0322079136967659,-0.02182685025036335,-0.0005323622026480734
2074781965425,0.5973533391952515,-9.830592155456543,0.4920084476470947,0.0327402763068676,-0.02129448764026165,0.0
2074783202812,0.6308721303939819,-9.861717224121094,0.5446808934211731,0.0322079136967659,-0.0186326764523983,0.0021294488105922937
2074784440162,0.5901707410812378,-9.864110946655273,0.5099649429321289,0.02901373989880085,-0.02422248013317585,-0.0002661811013240367
2074785677525,0.628477931022644,-9.84495735168457,0.5183447003364563,0.0276828333735466,-0.01756795309484005,-0.00958251953125
2074786914887,0.5758054852485657,-9.849745750427246,0.48243165016174316,0.0330064557492733,-0.0210283063352108,-0.0029279920272529125
2074788152262,0.5770025849342346,-9.848548889160156,0.4596867263317108,0.0314093679189682,-0.0186326764523983,0.0002661811013240367
2074789389637,0.5997475385665894,-9.862914085388184,0.5123591423034668,0.0324740931391716,-0.02129448764026165,-0.0002661811013240367
2074790626975,0.6153098344802856,-9.884461402893066,0.5410895943641663,0.0351359061896801,-0.0215606689453125,0.0002661811013240367
2074791864337,0.6165069341659546,-9.872490882873535,0.4991910457611084,0.0330064557492733,-0.01836649514734745,-0.0013309054775163531
2074793101712,0.5925649404525757,-9.852140426635742,0.45848962664604187,0.0324740931391716,-0.0215606689453125,0.0026618109550327063
2074794339062,0.6033388376235962,-9.850942611694336,0.545877993106842,0.0340711809694767,-0.0228915736079216,0.003460354171693325
2074795576450,0.5925649404525757,-9.9000244140625,0.5327098965644836,0.0367329902946949,-0.01703559048473835,-0.0007985432748682797
2074796813800,0.5961562395095825,-9.884461402893066,0.5027823448181152,0.0343373604118824,-0.02022976242005825,-0.0053236219100654125
2074798051175,0.5650315880775452,-9.880870819091797,0.5351040959358215,0.0295461006462574,-0.02022976242005825,-0.0015970865497365594
2074799288537,0.5901707410812378,-9.928754806518555,0.5327098965644836,0.0359344482421875,-0.01783413253724575,0.00452507846057415
2074800525900,0.6093243360519409,-9.873687744140625,0.5051765441894531,0.0324740931391716,-0.02129448764026165,-0.0018632676219567657
2074801763250,0.5722141861915588,-9.86770248413086,0.5494692921638489,0.0346035435795784,-0.01943122036755085,-0.0002661811013240367
2074803000625,0.569819986820221,-9.86650562286377,0.5446808934211731,0.0322079136967659,-0.0204959437251091,0.003460354171693325
2074804237987,0.6153098344802856,-9.847352027893066,0.5602431893348694,0.0311431884765625,-0.02262539230287075,0.0007985432748682797
2074805475375,0.5829881429672241,-9.907206535339355,0.5195418000221252,0.0348697230219841,-0.0181003138422966,-0.0010647244052961469
2074806712725,0.6057330369949341,-9.87967300415039,0.5363011956214905,0.0338049978017807,-0.0215606689453125,-0.0015970865497365594
2074807950087,0.6200982332229614,-9.854534149169922,0.5219359993934631,0.0348697230219841,-0.0234239362180233,-0.0021294488105922937
2074809187437,0.606930136680603,-9.838972091674805,0.5482721924781799,0.0343373604118824,-0.023956298828125,-0.0007985432748682797
2074810424812,0.6189011335372925,-9.836577415466309,0.5710170865058899,0.02981228195130825,-0.0223592109978199,-0.0021294488105922937
2074811662175,0.6320692300796509,-9.892841339111328,0.5374982953071594,0.0362006276845932,-0.02502102218568325,-0.0010647244052961469
2074812899537,0.5793968439102173,-9.9000244140625,0.5518634915351868,0.0354020856320858,-0.02315775491297245,-0.0037265352439135313
2074814136912,0.6177040338516235,-9.897629737854004,0.5662286877632141,0.0354020856320858,-0.01996358297765255,0.0013309054775163531
2074815374262,0.5841852426528931,-9.871294021606445,0.5291185975074768,0.0359344482421875,-0.01996358297765255,0.0005323622026480734
2074816611637,0.5793968439102173,-9.892841339111328,0.5231330990791321,0.0364668108522892,-0.02502102218568325,0.003460354171693325
2074817849025,0.5841852426528931,-9.888052940368652,0.5913678407669067,0.0372653529047966,-0.0220930315554142,0.0010647244052961469
2074819086387,0.568622887134552,-9.86650562286377,0.5542576909065247,0.0330064557492733,-0.0157046839594841,-0.004791259765625
2074820323725,0.6093243360519409,-9.864110946655273,0.5626373887062073,0.033538818359375,-0.01783413253724575,0.0007985432748682797
2074821561100,0.5961562395095825,-9.87967300415039,0.5279214978218079,0.0369991734623909,-0.0252872034907341,0.0018632676219567657
2074822798450,0.6189011335372925,-9.853337287902832,0.5506663918495178,0.0372653529047966,-0.0252872034907341,0.0013309054775163531
2074824035812,0.6368576288223267,-9.87967300415039,0.5327098965644836,0.0377977155148983,-0.01756795309484005,-0.0023956298828125
2074825273175,0.5817910432815552,-9.861717224121094,0.5363011956214905,0.0330064557492733,-0.0234239362180233,0.0
2074826510562,0.5949591398239136,-9.920374870300293,0.5770025849342346,0.0338049978017807,-0.02422248013317585,0.0
2074827747912,0.5949591398239136,-9.850942611694336,0.5650315880775452,0.0354020856320858,-0.0204959437251091,0.003460354171693325
2074828985287,0.606930136680603,-9.880870819091797,0.5518634915351868,0.0364668108522892,-0.023956298828125,0.0018632676219567657
2074830222637,0.6165069341659546,-9.889249801635742,0.5434837937355042,0.0316755510866642,-0.02262539230287075,0.0
2074831460012,0.5985504388809204,-9.904812812805176,0.5291185975074768,0.0351359061896801,-0.0220930315554142,-0.0007985432748682797
2074832697375,0.5746083855628967,-9.854534149169922,0.48243165016174316,0.0364668108522892,-0.0191650390625,-0.0015970865497365594
2074833934750,0.6141127347946167,-9.891644477844238,0.5746083855628967,0.033272635191679,-0.02369011752307415,-0.0002661811013240367
2074835172100,0.6260837316513062,-9.884461402893066,0.5554547905921936,0.0327402763068676,-0.02661811001598835,0.0010647244052961469
2074836409475,0.6141127347946167,-9.9000244140625,0.4991910457611084,0.0359344482421875,-0.0204959437251091,-0.0005323622026480734
2074837646825,0.5758054852485657,-9.84495735168457,0.585382342338562,0.0375315360724926,-0.01836649514734745,0.0021294488105922937
2074838884187,0.5949591398239136,-9.849745750427246,0.5590460896492004,0.0359344482421875,-0.0204959437251091,0.0010647244052961469
2074840121575,0.5674257874488831,-9.87967300415039,0.5279214978218079,0.0327402763068676,-0.0223592109978199,-0.00692070834338665
2074841358925,0.586579442024231,-9.847352027893066,0.5410895943641663,0.0322079136967659,-0.0228915736079216,-0.0039927163161337376
2074842596275,0.5746083855628967,-9.86650562286377,0.5374982953071594,0.033538818359375,-0.02262539230287075,-0.003460354171693325
2074843833662,0.6141127347946167,-9.928754806518555,0.5518634915351868,0.0375315360724926,-0.02182685025036335,-0.0013309054775163531
2074845071012,0.6105214357376099,-9.908403396606445,0.5722141861915588,0.0391286201775074,-0.01889885775744915,-0.0013309054775163531
2074846308375,0.5949591398239136,-9.861717224121094,0.5674257874488831,0.0359344482421875,-0.0220930315554142,-0.007985432632267475
2074847545737,0.6141127347946167,-9.852140426635742,0.5506663918495178,0.0351359061896801,-0.02076212503015995,-0.0053236219100654125
2074848783112,0.5781997442245483,-9.880870819091797,0.5506663918495178,0.0346035435795784,-0.02182685025036335,-0.0018632676219567657
2074850020487,0.6021417379379272,-9.895236015319824,0.5710170865058899,0.038330078125,-0.0204959437251091,-0.003460354171693325
2074851257837,0.5710170865058899,-9.917980194091797,0.5901707410812378,0.0388624407351017,-0.0223592109978199,-0.0015970865497365594
2074852495212,0.6021417379379272,-9.86650562286377,0.5351040959358215,0.0362006276845932,-0.02129448764026165,-0.0042588976211845875
2074853732562,0.5973533391952515,-9.87967300415039,0.5626373887062073,0.0354020856320858,-0.01650322787463665,-0.0063883461989462376
2074854969950,0.5554547905921936,-9.880870819091797,0.547075092792511,0.0338049978017807,-0.015172322280704975,-0.005589802749454975
2074856207300,0.5734112858772278,-9.911994934082031,0.52552729845047,0.0375315360724926,-0.0173017717897892,-0.007985432632267475
2074857444662,0.6153098344802856,-9.894038200378418,0.5506663918495178,0.0338049978017807,-0.0191650390625,-0.0037265352439135313
2074858682012,0.5841852426528931,-9.873687744140625,0.5746083855628967,0.0324740931391716,-0.0186326764523983,-0.0023956298828125
2074859919400,0.5913678407669067,-9.915586471557617,0.5386953949928284,0.0367329902946949,-0.01943122036755085,-0.00452507846057415
2074861156750,0.6380547285079956,-9.906009674072266,0.5291185975074768,0.0343373604118824,-0.0228915736079216,-0.0037265352439135313
2074862394125,0.5805939435958862,-9.830592155456543,0.5650315880775452,0.0330064557492733,-0.0191650390625,-0.003460354171693325
2074863631487,0.5638344883918762,-9.897629737854004,0.5817910432815552,0.0364668108522892,-0.023956298828125,-0.0066545275039970875
2074864868850,0.5841852426528931,-9.858125686645508,0.5817910432815552,0.0346035435795784,-0.0271504707634449,-0.012510511092841625
2074866106200,0.6117185354232788,-9.872490882873535,0.547075092792511,0.0351359061896801,-0.0204959437251091,-0.010114881210029125
2074867343587,0.585382342338562,-9.877279281616211,0.5901707410812378,0.0338049978017807,-0.0204959437251091,-0.003460354171693325
2074868580950,0.5626373887062073,-9.874884605407715,0.5374982953071594,0.0324740931391716,-0.0186326764523983,-0.010381062515079975
2074869818300,0.568622887134552,-9.872490882873535,0.5650315880775452,0.0327402763068676,-0.0196974016726017,-0.013042873702943325
2074871055662,0.5805939435958862,-9.906009674072266,0.5267243981361389,0.0356682650744915,-0.0234239362180233,-0.0023956298828125
2074872293037,0.5877765417098999,-9.889249801635742,0.5829881429672241,0.0319417305290699,-0.01889885775744915,-0.0031941730994731188
2074873530400,0.6117185354232788,-9.877279281616211,0.608127236366272,0.0338049978017807,-0.0215606689453125,-0.0007985432748682797
2074874767775,0.5734112858772278,-9.871294021606445,0.5961562395095825,0.0348697230219841,-0.02182685025036335,-0.0007985432748682797
2074876005125,0.6272808313369751,-9.876082420349121,0.6189011335372925,0.0346035435795784,-0.0196974016726017,-0.008251613937318325
2074877242500,0.586579442024231,-9.895236015319824,0.5446808934211731,0.0356682650744915,-0.0196974016726017,-0.0013309054775163531
2074878479862,0.5638344883918762,-9.891644477844238,0.5279214978218079,0.0300784632563591,-0.02129448764026165,0.0015970865497365594
2074879717212,0.5626373887062073,-9.86650562286377,0.5889736413955688,0.0348697230219841,-0.0186326764523983,-0.0018632676219567657
2074880954587,0.5710170865058899,-9.898826599121094,0.5734112858772278,0.0340711809694767,-0.0220930315554142,0.0007985432748682797
2074882191950,0.6344634294509888,-9.896432876586914,0.5674257874488831,0.0324740931391716,-0.0173017717897892,0.0005323622026480734
2074883429312,0.6117185354232788,-9.872490882873535,0.5781997442245483,0.0322079136967659,-0.0173017717897892,-0.0031941730994731188
2074884666675,0.5889736413955688,-9.877279281616211,0.6045359373092651,0.0343373604118824,-0.02182685025036335,-0.0010647244052961469
2074885904050,0.5889736413955688,-9.897629737854004,0.5339069962501526,0.0316755510866642,-0.0215606689453125,0.0021294488105922937
2074887141412,0.6224924325942993,-9.891644477844238,0.5710170865058899,0.0316755510866642,-0.01650322787463665,0.003460354171693325
2074888378762,0.6117185354232788,-9.874884605407715,0.5422866940498352,0.0300784632563591,-0.01943122036755085,0.0002661811013240367
2074889616125,0.6320692300796509,-9.873687744140625,0.5650315880775452,0.0322079136967659,-0.01597086526453495,0.0002661811013240367
2074890853512,0.5961562395095825,-9.86889934539795,0.5446808934211731,0.0340711809694767,-0.01943122036755085,0.010647243820130825
2074892090875,0.6236895322799683,-9.864110946655273,0.5363011956214905,0.03034464456140995,-0.01783413253724575,0.00931633822619915
2074893328237,0.6356605291366577,-9.852140426635742,0.5327098965644836,0.0282151959836483,-0.014906140975654125,0.0026618109550327063
2074894565612,0.6045359373092651,-9.86770248413086,0.5434837937355042,0.0311431884765625,-0.0173017717897892,-0.0007985432748682797
2074895802962,0.5973533391952515,-9.81143856048584,0.5614402890205383,0.0372653529047966,-0.01836649514734745,0.0063883461989462376
2074897040337,0.6428431868553162,-9.818621635437012,0.547075092792511,0.0311431884765625,-0.01943122036755085,0.0037265352439135313
2074898277675,0.6236895322799683,-9.854534149169922,0.5805939435958862,0.02981228195130825,-0.012776692397892475,-0.005589802749454975
2074899515062,0.5530605912208557,-9.864110946655273,0.5327098965644836,0.0263519287109375,-0.0138414166867733,-0.0063883461989462376
2074900752425,0.569819986820221,-9.882067680358887,0.5374982953071594,0.03034464456140995,-0.0167694091796875,0.0010647244052961469
2074901989775,0.6045359373092651,-9.904812812805176,0.50876784324646,0.0322079136967659,-0.02182685025036335,0.0037265352439135313
2074903227137,0.5913678407669067,-9.897629737854004,0.5291185975074768,0.02741665206849575,-0.02129448764026165,0.0018632676219567657
2074904464500,0.5949591398239136,-9.890447616577148,0.5817910432815552,0.0263519287109375,-0.015438503585755825,0.0037265352439135313
2074905701875,0.5614402890205383,-9.853337287902832,0.5614402890205383,0.02848137728869915,-0.0162370465695858,0.0007985432748682797
2074906939237,0.5722141861915588,-9.861717224121094,0.5518634915351868,0.02794901467859745,-0.01889885775744915,0.0013309054775163531
2074908176600,0.5901707410812378,-9.876082420349121,0.5638344883918762,0.0268842913210392,-0.01357523538172245,-0.0005323622026480734
2074909413962,0.6021417379379272,-9.877279281616211,0.569819986820221,0.02874755859375,-0.01597086526453495,-0.0021294488105922937
2074910651337,0.5734112858772278,-9.916783332824707,0.5578489899635315,0.0244886614382267,-0.014373779296875,-0.003460354171693325
2074911888687,0.5913678407669067,-9.880870819091797,0.4967968463897705,0.0247548408806324,-0.015438503585755825,0.0010647244052961469
2074913126075,0.6129156351089478,-9.873687744140625,0.5494692921638489,0.02502102218568325,-0.01703559048473835,0.0029279920272529125
2074914363425,0.628477931022644,-9.886856079101562,0.5291185975074768,0.0282151959836483,-0.0186326764523983,0.005057440605014563
2074915600800,0.585382342338562,-9.850942611694336,0.5877765417098999,0.02661811001598835,-0.01117960549890995,0.0013309054775163531
2074916838162,0.6308721303939819,-9.86889934539795,0.5207388997077942,0.02422248013317585,-0.0119781494140625,0.0005323622026480734
2074918075537,0.6607996821403503,-9.897629737854004,0.5386953949928284,0.02422248013317585,-0.01889885775744915,0.0002661811013240367
2074919312862,0.586579442024231,-9.840168952941895,0.5542576909065247,0.0276828333735466,-0.01836649514734745,-0.0018632676219567657
2074920550250,0.6332663297653198,-9.892841339111328,0.5961562395095825,0.0220930315554142,-0.013309055007994175,0.0002661811013240367
2074921787625,0.6105214357376099,-9.84376049041748,0.5614402890205383,0.015172322280704975,-0.01117960549890995,0.0026618109550327063
2074923024975,0.6248866319656372,-9.86889934539795,0.5793968439102173,0.0196974016726017,-0.012510511092841625,0.0029279920272529125
2074924262337,0.6344634294509888,-9.877279281616211,0.568622887134552,0.0186326764523983,-0.01463996060192585,0.0010647244052961469
2074925499712,0.6045359373092651,-9.858125686645508,0.5434837937355042,0.02182685025036335,-0.01756795309484005,0.005589802749454975
2074926737087,0.6320692300796509,-9.84256362915039,0.5734112858772278,0.02555338479578495,-0.01889885775744915,0.0026618109550327063
2074927974450,0.6129156351089478,-9.828198432922363,0.5662286877632141,0.0196974016726017,-0.0186326764523983,-0.0002661811013240367
2074929211812,0.628477931022644,-9.852140426635742,0.5351040959358215,0.0173017717897892,-0.015438503585755825,0.0026618109550327063
2074930449162,0.6404489874839783,-9.84256362915039,0.5793968439102173,0.0157046839594841,-0.01703559048473835,0.007985432632267475
2074931686550,0.5542576909065247,-9.861717224121094,0.5327098965644836,0.0157046839594841,-0.0138414166867733,0.0018632676219567657
2074932923900,0.5889736413955688,-9.873687744140625,0.5626373887062073,0.015172322280704975,-0.010913425125181675,0.0018632676219567657
2074934161262,0.5973533391952515,-9.858125686645508,0.6117185354232788,0.01650322787463665,-0.015172322280704975,0.0018632676219567657
2074935398612,0.6129156351089478,-9.84615421295166,0.5829881429672241,0.01463996060192585,-0.0138414166867733,0.0018632676219567657
2074936635987,0.6057330369949341,-9.882067680358887,0.6009446382522583,0.01889885775744915,-0.01410759799182415,0.0002661811013240367
2074937873350,0.5841852426528931,-9.889249801635742,0.547075092792511,0.01597086526453495,-0.0173017717897892,-0.0005323622026480734
2074939110725,0.5829881429672241,-9.864110946655273,0.5542576909065247,0.01463996060192585,-0.01996358297765255,0.0002661811013240367
2074940348087,0.5901707410812378,-9.910798072814941,0.5997475385665894,0.01650322787463665,-0.01410759799182415,-0.0010647244052961469
2074941585462,0.6248866319656372,-9.889249801635742,0.547075092792511,0.0191650390625,-0.013309055007994175,0.004791259765625
2074942822812,0.6021417379379272,-9.886856079101562,0.5530605912208557,0.0138414166867733,-0.01597086526453495,0.0071868896484375
2074944060187,0.6141127347946167,-9.891644477844238,0.5614402890205383,0.01117960549890995,-0.0157046839594841,-0.0031941730994731188
2074945297537,0.6165069341659546,-9.859322547912598,0.5267243981361389,0.0162370465695858,-0.010114881210029125,0.0007985432748682797
2074946534912,0.5877765417098999,-9.883264541625977,0.569819986820221,0.01783413253724575,-0.010381062515079975,0.0031941730994731188
2074947772287,0.608127236366272,-9.859322547912598,0.5949591398239136,0.01410759799182415,-0.013042873702943325,0.0010647244052961469
2074949009625,0.5925649404525757,-9.817423820495605,0.5602431893348694,0.0167694091796875,-0.013309055007994175,0.0007985432748682797
2074950247000,0.6141127347946167,-9.876082420349121,0.569819986820221,0.01703559048473835,-0.015438503585755825,0.0
2074951484362,0.5722141861915588,-9.841365814208984,0.5434837937355042,0.014373779296875,-0.010114881210029125,0.0063883461989462376
2074952721737,0.6129156351089478,-9.871294021606445,0.5674257874488831,0.015172322280704975,-0.0119781494140625,0.0026618109550327063
2074953959087,0.6117185354232788,-9.890447616577148,0.5183447003364563,0.01650322787463665,-0.0119781494140625,0.0018632676219567657
2074955196462,0.6332663297653198,-9.86770248413086,0.6033388376235962,0.01463996060192585,-0.0138414166867733,0.0039927163161337376
2074956433837,0.608127236366272,-9.853337287902832,0.6033388376235962,0.012776692397892475,-0.015172322280704975,0.0013309054775163531
2074957671187,0.6093243360519409,-9.831789016723633,0.5650315880775452,0.01357523538172245,-0.010647243820130825,0.0002661811013240367
2074958908562,0.6356605291366577,-9.90122127532959,0.6117185354232788,0.008783976547420025,-0.005855984054505825,0.0053236219100654125
2074960145912,0.5973533391952515,-9.853337287902832,0.5746083855628967,0.0119781494140625,-0.00984870083630085,-0.0005323622026480734
2074961383275,0.6117185354232788,-9.838972091674805,0.585382342338562,0.015438503585755825,-0.010114881210029125,-0.005589802749454975
2074962620650,0.6416460871696472,-9.854534149169922,0.5422866940498352,0.0138414166867733,-0.0114457868039608,0.0023956298828125
2074963858025,0.6308721303939819,-9.829395294189453,0.5482721924781799,0.0138414166867733,-0.015172322280704975,0.0031941730994731188
2074965095387,0.6045359373092651,-9.859322547912598,0.5566518902778625,0.01756795309484005,-0.014373779296875,0.008517795242369175
2074966332750,0.6332663297653198,-9.832986831665039,0.547075092792511,0.0157046839594841,-0.010913425125181675,0.0037265352439135313
2074967570100,0.6117185354232788,-9.854534149169922,0.5578489899635315,0.0204959437251091,-0.015438503585755825,0.0031941730994731188
2074968807450,0.6260837316513062,-9.864110946655273,0.5805939435958862,0.0157046839594841,-0.0157046839594841,0.0031941730994731188
2074970044837,0.5781997442245483,-9.829395294189453,0.5734112858772278,0.014906140975654125,-0.008517795242369175,0.0005323622026480734
2074971282200,0.608127236366272,-9.853337287902832,0.5279214978218079,0.01410759799182415,-0.01410759799182415,-0.0010647244052961469
2074972519575,0.568622887134552,-9.849745750427246,0.5506663918495178,0.0114457868039608,-0.005057440605014563,0.0037265352439135313
2074973756950,0.5434837937355042,-9.834183692932129,0.5674257874488831,0.013042873702943325,-0.008783976547420025,0.003460354171693325
2074974994275,0.5817910432815552,-9.824606895446777,0.5710170865058899,0.015172322280704975,-0.008783976547420025,0.007985432632267475
2074976231675,0.6141127347946167,-9.783905029296875,0.5554547905921936,0.02022976242005825,-0.00958251953125,0.0037265352439135313
2074977469025,0.6153098344802856,-9.815030097961426,0.5674257874488831,0.023956298828125,-0.015172322280704975,0.0039927163161337376
2074978706400,0.6524199843406677,-9.827000617980957,0.5758054852485657,0.01756795309484005,-0.010381062515079975,0.00984870083630085
2074979943762,0.5961562395095825,-9.80904483795166,0.5997475385665894,0.0181003138422966,-0.00958251953125,0.010381062515079975
2074981181125,0.6536170840263367,-9.821015357971191,0.585382342338562,0.0191650390625,-0.01117960549890995,0.005589802749454975
2074982418500,0.6272808313369751,-9.80904483795166,0.5578489899635315,0.0234239362180233,-0.01117960549890995,0.006122165359556675
2074983655837,0.6272808313369751,-9.824606895446777,0.5829881429672241,0.0263519287109375,-0.00931633822619915,0.010913425125181675
2074984893212,0.6248866319656372,-9.829395294189453,0.5937620401382446,0.0223592109978199,-0.01117960549890995,0.00958251953125
2074986130575,0.6105214357376099,-9.834183692932129,0.585382342338562,0.02182685025036335,-0.013309055007994175,0.00692070834338665
2074987367925,0.6356605291366577,-9.795876502990723,0.5817910432815552,0.02502102218568325,-0.012776692397892475,0.010114881210029125
2074988605312,0.6332663297653198,-9.825803756713867,0.5770025849342346,0.0191650390625,-0.005855984054505825,0.0071868896484375
2074989842687,0.606930136680603,-9.84615421295166,0.5925649404525757,0.02182685025036335,-0.004791259765625,0.0063883461989462376
2074991080037,0.6236895322799683,-9.813833236694336,0.5877765417098999,0.023956298828125,-0.00692070834338665,0.010647243820130825
2074992317400,0.5961562395095825,-9.800664901733398,0.586579442024231,0.0228915736079216,-0.00692070834338665,0.005855984054505825
2074993554762,0.5363011956214905,-9.827000617980957,0.5722141861915588,0.0247548408806324,-0.008251613937318325,0.008783976547420025
2074994792150,0.6332663297653198,-9.803058624267578,0.6045359373092651,0.01836649514734745,-0.00692070834338665,0.0063883461989462376
2074996029500,0.5877765417098999,-9.850942611694336,0.5626373887062073,0.0204959437251091,-0.00692070834338665,0.008251613937318325
2074997266875,0.6165069341659546,-9.828198432922363,0.5746083855628967,0.01996358297765255,-0.010647243820130825,0.00452507846057415
2074998504262,0.6392518877983093,-9.841365814208984,0.5518634915351868,0.02369011752307415,-0.00931633822619915,0.00692070834338665
2074999741600,0.5961562395095825,-9.835380554199219,0.545877993106842,0.02741665206849575,-0.007453070487827063,0.008783976547420025
2075000978962,0.6248866319656372,-9.856928825378418,0.5638344883918762,0.02661811001598835,-0.0066545275039970875,0.00984870083630085
2075002216337,0.5590460896492004,-9.837775230407715,0.6057330369949341,0.0263519287109375,-0.008783976547420025,0.01117960549890995
2075003453687,0.6356605291366577,-9.835380554199219,0.5674257874488831,0.02661811001598835,-0.01117960549890995,0.00931633822619915
2075004691050,0.6476315855979919,-9.84256362915039,0.5841852426528931,0.02076212503015995,-0.005057440605014563,0.01171196810901165
2075005928425,0.6105214357376099,-9.860519409179688,0.5374982953071594,0.0223592109978199,-0.0053236219100654125,0.00692070834338665
2075007165787,0.5889736413955688,-9.830592155456543,0.5530605912208557,0.0244886614382267,-0.007453070487827063,0.007985432632267475
2075008403162,0.5770025849342346,-9.865307807922363,0.5674257874488831,0.02369011752307415,-0.0066545275039970875,0.010647243820130825
2075009640525,0.5829881429672241,-9.860519409179688,0.5398924946784973,0.0292799212038517,-0.006122165359556675,0.0114457868039608
2075010877887,0.585382342338562,-9.861717224121094,0.5746083855628967,0.02315775491297245,-0.005589802749454975,0.0066545275039970875
2075012115250,0.5710170865058899,-9.880870819091797,0.5961562395095825,0.0228915736079216,-0.007985432632267475,0.00692070834338665
2075013352600,0.5758054852485657,-9.856928825378418,0.586579442024231,0.0247548408806324,-0.0018632676219567657,0.0010647244052961469
2075014589987,0.5398924946784973,-9.871294021606445,0.5662286877632141,0.0244886614382267,-0.0031941730994731188,0.0026618109550327063
2075015827350,0.5841852426528931,-9.853337287902832,0.5746083855628967,0.02981228195130825,-0.004791259765625,0.010913425125181675
2075017064700,0.6093243360519409,-9.896432876586914,0.5781997442245483,0.02369011752307415,-0.003460354171693325,0.008517795242369175
2075018302075,0.6129156351089478,-9.86770248413086,0.5829881429672241,0.0247548408806324,-0.0026618109550327063,0.007985432632267475
2075019539437,0.5746083855628967,-9.827000617980957,0.5793968439102173,0.0263519287109375,-0.0037265352439135313,0.00692070834338665
2075020776812,0.5710170865058899,-9.90122127532959,0.5578489899635315,0.0268842913210392,-0.003460354171693325,0.0023956298828125
2075022014187,0.5734112858772278,-9.830592155456543,0.5518634915351868,0.0215606689453125,-0.0013309054775163531,0.0002661811013240367
2075023251537,0.6057330369949341,-9.84376049041748,0.5327098965644836,0.0181003138422966,-0.0023956298828125,0.0042588976211845875
2075024488900,0.5817910432815552,-9.87967300415039,0.5913678407669067,0.01756795309484005,-0.0066545275039970875,0.00452507846057415
2075025726250,0.5817910432815552,-9.84615421295166,0.5494692921638489,0.01943122036755085,-0.0053236219100654125,0.00692070834338665
2075026963637,0.6021417379379272,-9.84376049041748,0.5805939435958862,0.0204959437251091,-0.0007985432748682797,0.008517795242369175
2075028200987,0.6093243360519409,-9.837775230407715,0.5734112858772278,0.0210283063352108,0.0021294488105922937,0.0002661811013240367
2075029438362,0.6021417379379272,-9.874884605407715,0.5925649404525757,0.0220930315554142,0.0002661811013240367,0.0039927163161337376
2075030675725,0.5710170865058899,-9.850942611694336,0.568622887134552,0.023956298828125,-0.0023956298828125,0.0039927163161337376
2075031913075,0.5758054852485657,-9.84615421295166,0.6200982332229614,0.023956298828125,-0.0031941730994731188,0.004791259765625
2075033150450,0.5410895943641663,-9.864110946655273,0.5901707410812378,0.023956298828125,-0.0039927163161337376,0.0026618109550327063
2075034387837,0.5542576909065247,-9.890447616577148,0.6129156351089478,0.01889885775744915,-0.0029279920272529125,0.006122165359556675
2075035625187,0.6129156351089478,-9.889249801635742,0.5889736413955688,0.0204959437251091,-0.0029279920272529125,0.0066545275039970875
2075036862550,0.585382342338562,-9.891644477844238,0.5554547905921936,0.0210283063352108,-0.0005323622026480734,0.003460354171693325
2075038099912,0.569819986820221,-9.861717224121094,0.6129156351089478,0.0234239362180233,-0.0005323622026480734,0.003460354171693325
2075039337287,0.5674257874488831,-9.890447616577148,0.5518634915351868,0.0204959437251091,0.0013309054775163531,0.007453070487827063
2075040574625,0.6500257849693298,-9.877279281616211,0.6105214357376099,0.01650322787463665,0.00452507846057415,0.0029279920272529125
2075041812000,0.6344634294509888,-9.862914085388184,0.5770025849342346,0.0157046839594841,0.0013309054775163531,0.0031941730994731188
2075043049387,0.6093243360519409,-9.872490882873535,0.5434837937355042,0.0191650390625,-0.0039927163161337376,0.0037265352439135313
2075044286737,0.5793968439102173,-9.862914085388184,0.5961562395095825,0.0210283063352108,-0.0005323622026480734,0.0018632676219567657
2075045524100,0.5841852426528931,-9.888052940368652,0.5961562395095825,0.0191650390625,0.0039927163161337376,0.00452507846057415
2075046761462,0.5949591398239136,-9.877279281616211,0.5710170865058899,0.0157046839594841,0.0010647244052961469,0.006122165359556675
2075047998837,0.586579442024231,-9.892841339111328,0.6045359373092651,0.015172322280704975,-0.0029279920272529125,0.0090501569211483
2075049236200,0.5973533391952515,-9.86650562286377,0.5841852426528931,0.0196974016726017,-0.0007985432748682797,0.0037265352439135313
2075050473575,0.6236895322799683,-9.892841339111328,0.5626373887062073,0.01836649514734745,0.0015970865497365594,0.0013309054775163531
2075051710925,0.5722141861915588,-9.90122127532959,0.5805939435958862,0.0181003138422966,-0.0007985432748682797,0.0005323622026480734
2075052948300,0.5985504388809204,-9.84256362915039,0.6260837316513062,0.014906140975654125,0.0015970865497365594,0.0005323622026480734
2075054185662,0.5937620401382446,-9.84376049041748,0.6200982332229614,0.0167694091796875,0.0023956298828125,0.0039927163161337376
2075055423025,0.6344634294509888,-9.876082420349121,0.5303156971931458,0.0173017717897892,0.0010647244052961469,0.0026618109550327063
2075056660387,0.5734112858772278,-9.891644477844238,0.568622887134552,0.01889885775744915,0.0029279920272529125,-0.0015970865497365594
2075057897762,0.6248866319656372,-9.872490882873535,0.5997475385665894,0.0157046839594841,0.0,-0.003460354171693325
2075059135125,0.6057330369949341,-9.84615421295166,0.606930136680603,0.01650322787463665,0.0015970865497365594,-0.0021294488105922937
2075060372487,0.6009446382522583,-9.888052940368652,0.5949591398239136,0.0191650390625,0.0023956298828125,-0.0018632676219567657
2075061609862,0.5973533391952515,-9.8784761428833,0.5829881429672241,0.015438503585755825,0.0026618109550327063,-0.0002661811013240367
2075062847237,0.5961562395095825,-9.850942611694336,0.545877993106842,0.01410759799182415,0.0026618109550327063,-0.0042588976211845875
2075064084575,0.5937620401382446,-9.889249801635742,0.5758054852485657,0.012776692397892475,0.0026618109550327063,-0.004791259765625
2075065321925,0.6404489874839783,-9.892841339111328,0.608127236366272,0.01224433071911335,0.0021294488105922937,-0.0018632676219567657
2075066559300,0.6117185354232788,-9.848548889160156,0.5578489899635315,0.0119781494140625,0.004791259765625,-0.0023956298828125
2075067796675,0.6177040338516235,-9.920374870300293,0.5638344883918762,0.012776692397892475,0.0053236219100654125,-0.0013309054775163531
2075069034050,0.5973533391952515,-9.827000617980957,0.5722141861915588,0.01410759799182415,-0.0010647244052961469,-0.0023956298828125
2075070271400,0.5674257874488831,-9.911994934082031,0.5901707410812378,0.0162370465695858,-0.0002661811013240367,-0.004791259765625
2075071508750,0.6404489874839783,-9.865307807922363,0.5937620401382446,0.014373779296875,0.0010647244052961469,-0.0063883461989462376
2075072746125,0.6368576288223267,-9.848548889160156,0.5674257874488831,0.0157046839594841,-0.0013309054775163531,-0.0021294488105922937
2075073983487,0.6332663297653198,-9.8784761428833,0.5626373887062073,0.0114457868039608,-0.0018632676219567657,-0.0023956298828125
2075075220887,0.6356605291366577,-9.856928825378418,0.6272808313369751,0.00984870083630085,0.0023956298828125,-0.0053236219100654125
2075076458225,0.6117185354232788,-9.865307807922363,0.6045359373092651,0.0114457868039608,0.0013309054775163531,0.0005323622026480734
2075077695600,0.6200982332229614,-9.854534149169922,0.6093243360519409,0.01171196810901165,-0.0023956298828125,0.0013309054775163531
2075078932950,0.5901707410812378,-9.874884605407715,0.5901707410812378,0.014373779296875,0.0005323622026480734,-0.003460354171693325
2075080170325,0.6727706789970398,-9.859322547912598,0.5841852426528931,0.0196974016726017,0.0,-0.005057440605014563
2075081407687,0.6033388376235962,-9.876082420349121,0.5877765417098999,0.0173017717897892,0.0013309054775163531,-0.005855984054505825
2075082645050,0.6236895322799683,-9.840168952941895,0.6117185354232788,0.01224433071911335,0.0,-0.0039927163161337376
2075083882437,0.6344634294509888,-9.840168952941895,0.5949591398239136,0.0181003138422966,0.0023956298828125,-0.0031941730994731188
2075085119787,0.6129156351089478,-9.850942611694336,0.5722141861915588,0.0119781494140625,0.0018632676219567657,-0.005057440605014563
2075086357150,0.6236895322799683,-9.896432876586914,0.5662286877632141,0.007985432632267475,0.0007985432748682797,-0.0031941730994731188
2075087594512,0.6392518877983093,-9.841365814208984,0.5758054852485657,0.01357523538172245,-0.0007985432748682797,-0.0023956298828125
2075088831887,0.5734112858772278,-9.850942611694336,0.5710170865058899,0.01463996060192585,0.0,-0.0066545275039970875
2075090069262,0.6320692300796509,-9.894038200378418,0.6200982332229614,0.0138414166867733,0.0013309054775163531,-0.0039927163161337376
2075091306625,0.6165069341659546,-9.865307807922363,0.6105214357376099,0.0162370465695858,0.00452507846057415,-0.004791259765625
2075092543975,0.6189011335372925,-9.847352027893066,0.6117185354232788,0.01224433071911335,-0.0013309054775163531,-0.005057440605014563
2075093781350,0.6416460871696472,-9.894038200378418,0.5638344883918762,0.01117960549890995,0.0005323622026480734,-0.00984870083630085
2075095018712,0.6248866319656372,-9.836577415466309,0.6117185354232788,0.01410759799182415,0.0021294488105922937,-0.0037265352439135313
2075096256075,0.6320692300796509,-9.852140426635742,0.5710170865058899,0.0191650390625,0.0005323622026480734,-0.008251613937318325
2075097493450,0.5949591398239136,-9.854534149169922,0.6045359373092651,0.0157046839594841,-0.00452507846057415,-0.0071868896484375
2075098730825,0.6165069341659546,-9.870096206665039,0.5829881429672241,0.014373779296875,-0.0039927163161337376,-0.0029279920272529125
2075099968175,0.6057330369949341,-9.904812812805176,0.5793968439102173,0.01410759799182415,-0.0023956298828125,-0.005855984054505825
2075101205537,0.6189011335372925,-9.895236015319824,0.5841852426528931,0.0167694091796875,0.0005323622026480734,-0.0071868896484375
2075102442912,0.6224924325942993,-9.864110946655273,0.568622887134552,0.014373779296875,0.0029279920272529125,-0.0077192517928779125
2075103680275,0.6428431868553162,-9.84256362915039,0.5901707410812378,0.01357523538172245,-0.0018632676219567657,-0.006122165359556675
2075104917637,0.6380547285079956,-9.848548889160156,0.5638344883918762,0.013042873702943325,0.0007985432748682797,0.0007985432748682797
2075106155000,0.6248866319656372,-9.840168952941895,0.5554547905921936,0.01357523538172245,0.0005323622026480734,-0.0013309054775163531
2075107392362,0.6129156351089478,-9.828198432922363,0.5781997442245483,0.010647243820130825,0.0,-0.005855984054505825
2075108629737,0.6572083830833435,-9.86650562286377,0.545877993106842,0.013309055007994175,-0.0037265352439135313,-0.0002661811013240367
2075109867087,0.6751648783683777,-9.86770248413086,0.5758054852485657,0.015438503585755825,-0.007985432632267475,-0.0026618109550327063
2075111104437,0.6212953329086304,-9.856928825378418,0.5710170865058899,0.01410759799182415,-0.0005323622026480734,-0.0031941730994731188
2075112341825,0.6488286852836609,-9.86650562286377,0.5638344883918762,0.01117960549890995,-0.0005323622026480734,-0.0005323622026480734
2075113579175,0.6476315855979919,-9.894038200378418,0.5374982953071594,0.01224433071911335,-0.0023956298828125,-0.0053236219100654125
2075114816550,0.6607996821403503,-9.883264541625977,0.5662286877632141,0.012510511092841625,-0.0007985432748682797,-0.005855984054505825
2075116053925,0.6344634294509888,-9.86889934539795,0.5674257874488831,0.013042873702943325,-0.003460354171693325,-0.0015970865497365594
2075117291287,0.5901707410812378,-9.870096206665039,0.6009446382522583,0.010114881210029125,0.0018632676219567657,-0.004791259765625
2075118528662,0.6057330369949341,-9.840168952941895,0.5770025849342346,0.0114457868039608,-0.0015970865497365594,-0.004791259765625
2075119766012,0.6643909811973572,-9.861717224121094,0.608127236366272,0.0114457868039608,-0.0021294488105922937,-0.0029279920272529125
2075121003375,0.6200982332229614,-9.84615421295166,0.6105214357376099,0.01117960549890995,-0.0021294488105922937,-0.006122165359556675
2075122240762,0.6619967818260193,-9.852140426635742,0.6260837316513062,0.00692070834338665,-0.0066545275039970875,-0.010114881210029125
2075123478112,0.6404489874839783,-9.86770248413086,0.6416460871696472,0.01224433071911335,-0.0037265352439135313,-0.0031941730994731188
2075124715475,0.6260837316513062,-9.825803756713867,0.5770025849342346,0.01996358297765255,0.0002661811013240367,-0.0031941730994731188
2075125952837,0.6380547285079956,-9.84615421295166,0.5614402890205383,0.0162370465695858,-0.0013309054775163531,-0.0042588976211845875
2075127190225,0.6272808313369751,-9.847352027893066,0.5542576909065247,0.010913425125181675,-0.0010647244052961469,-0.0053236219100654125
2075128427575,0.6260837316513062,-9.81024169921875,0.5578489899635315,0.01410759799182415,-0.0013309054775163531,-0.0063883461989462376
2075129664937,0.669179379940033,-9.849745750427246,0.5410895943641663,0.0167694091796875,-0.006122165359556675,-0.0042588976211845875
2075130902312,0.6572083830833435,-9.856928825378418,0.5770025849342346,0.010647243820130825,-0.0010647244052961469,0.0021294488105922937
2075132139675,0.6548141837120056,-9.850942611694336,0.5758054852485657,0.01117960549890995,-0.0007985432748682797,-0.0013309054775163531
2075133377037,0.6332663297653198,-9.854534149169922,0.5434837937355042,0.0167694091796875,-0.004791259765625,-0.005855984054505825
2075134614400,0.6500257849693298,-9.862914085388184,0.5602431893348694,0.012510511092841625,-0.006122165359556675,-0.005855984054505825
2075135851750,0.6260837316513062,-9.84495735168457,0.5542576909065247,0.0138414166867733,-0.0029279920272529125,0.0002661811013240367
2075137089137,0.6440402865409851,-9.885659217834473,0.5590460896492004,0.01597086526453495,-0.007453070487827063,-0.0007985432748682797
2075138326475,0.6165069341659546,-9.836577415466309,0.5566518902778625,0.01357523538172245,-0.005057440605014563,-0.0031941730994731188
2075139563850,0.606930136680603,-9.834183692932129,0.5770025849342346,0.00984870083630085,-0.0031941730994731188,-0.0015970865497365594
2075140801237,0.6248866319656372,-9.889249801635742,0.5901707410812378,0.01703559048473835,-0.005855984054505825,0.0002661811013240367
2075142038575,0.6655880808830261,-9.86889934539795,0.6212953329086304,0.012776692397892475,0.0013309054775163531,-0.0015970865497365594
2075143275937,0.6236895322799683,-9.855731010437012,0.5410895943641663,0.01410759799182415,0.0005323622026480734,-0.004791259765625
2075144513325,0.6141127347946167,-9.822212219238281,0.5518634915351868,0.012510511092841625,-0.006122165359556675,-0.0029279920272529125
2075145750687,0.6619967818260193,-9.84615421295166,0.6141127347946167,0.012510511092841625,-0.006122165359556675,0.0029279920272529125
2075146988050,0.6153098344802856,-9.872490882873535,0.586579442024231,0.0196974016726017,0.0010647244052961469,0.0037265352439135313
2075148225425,0.6392518877983093,-9.850942611694336,0.5877765417098999,0.01224433071911335,-0.0002661811013240367,-0.0010647244052961469
2075149462775,0.6368576288223267,-9.86889934539795,0.6260837316513062,0.0077192517928779125,-0.0002661811013240367,0.0018632676219567657
2075150700150,0.6189011335372925,-9.841365814208984,0.5913678407669067,0.010114881210029125,-0.004791259765625,0.0053236219100654125
2075151937512,0.6141127347946167,-9.86770248413086,0.5722141861915588,0.008251613937318325,-0.0018632676219567657,0.0015970865497365594
2075153174875,0.6643909811973572,-9.865307807922363,0.6356605291366577,0.01650322787463665,0.0029279920272529125,0.0005323622026480734
2075154412250,0.6512228846549988,-9.853337287902832,0.629675030708313,0.010647243820130825,-0.0018632676219567657,-0.0002661811013240367
2075155649600,0.629675030708313,-9.815030097961426,0.5961562395095825,0.00958251953125,-0.0021294488105922937,-0.0021294488105922937
2075156886975,0.6248866319656372,-9.84495735168457,0.568622887134552,0.012510511092841625,-0.0023956298828125,-0.0002661811013240367
2075158124325,0.6141127347946167,-9.854534149169922,0.5841852426528931,0.01410759799182415,-0.0026618109550327063,0.00452507846057415
2075159361712,0.6404489874839783,-9.877279281616211,0.5889736413955688,0.014906140975654125,-0.00931633822619915,0.0039927163161337376
2075160599087,0.6045359373092651,-9.830592155456543,0.5542576909065247,0.01357523538172245,-0.007985432632267475,0.0010647244052961469
2075161836437,0.6200982332229614,-9.849745750427246,0.6021417379379272,0.013309055007994175,-0.0063883461989462376,0.0
2075163073825,0.6596025824546814,-9.84615421295166,0.6129156351089478,0.00958251953125,-0.0018632676219567657,0.0026618109550327063
2075164311175,0.6835445761680603,-9.870096206665039,0.5901707410812378,0.0157046839594841,-0.0026618109550327063,0.006122165359556675
2075165548525,0.6165069341659546,-9.877279281616211,0.6224924325942993,0.0167694091796875,-0.00452507846057415,0.0005323622026480734
2075166785887,0.6212953329086304,-9.824606895446777,0.6260837316513062,0.012776692397892475,-0.00931633822619915,-0.0021294488105922937
2075168023250,0.6823474764823914,-9.81143856048584,0.5817910432815552,0.014906140975654125,-0.0066545275039970875,0.00452507846057415
2075169260625,0.5746083855628967,-9.847352027893066,0.6248866319656372,0.014373779296875,-0.00452507846057415,0.0066545275039970875
2075170497987,0.6260837316513062,-9.871294021606445,0.5817910432815552,0.013309055007994175,-0.0063883461989462376,0.005855984054505825
2075171735350,0.6212953329086304,-9.84256362915039,0.5518634915351868,0.00931633822619915,-0.0042588976211845875,-0.0005323622026480734
2075172972712,0.5889736413955688,-9.825803756713867,0.5434837937355042,0.00958251953125,-0.0021294488105922937,-0.0015970865497365594
2075174210100,0.6344634294509888,-9.813833236694336,0.5566518902778625,0.00984870083630085,-0.0015970865497365594,0.0053236219100654125
2075175447462,0.6177040338516235,-9.890447616577148,0.5913678407669067,0.010114881210029125,-0.0026618109550327063,0.006122165359556675
2075176684837,0.6320692300796509,-9.871294021606445,0.5829881429672241,0.014906140975654125,-0.0039927163161337376,0.005589802749454975
2075177922187,0.6260837316513062,-9.831789016723633,0.5602431893348694,0.010647243820130825,-0.0053236219100654125,0.00692070834338665
2075179159562,0.6548141837120056,-9.855731010437012,0.6033388376235962,0.010913425125181675,-0.00692070834338665,0.0066545275039970875
2075180396912,0.6093243360519409,-9.872490882873535,0.6105214357376099,0.00931633822619915,-0.0021294488105922937,0.0037265352439135313
2075181634287,0.606930136680603,-9.895236015319824,0.5542576909065247,0.012510511092841625,-0.0037265352439135313,0.008517795242369175
2075182871637,0.6248866319656372,-9.841365814208984,0.6093243360519409,0.01117960549890995,-0.00984870083630085,0.00984870083630085
2075184109025,0.6344634294509888,-9.831789016723633,0.5997475385665894,0.01224433071911335,-0.005057440605014563,0.0077192517928779125
2075185346387,0.608127236366272,-9.886856079101562,0.5674257874488831,0.01783413253724575,-0.0063883461989462376,0.012776692397892475
2075186583737,0.6727706789970398,-9.853337287902832,0.5889736413955688,0.01224433071911335,-0.005855984054505825,0.012510511092841625
2075187821100,0.6200982332229614,-9.856928825378418,0.6033388376235962,0.0077192517928779125,-0.0071868896484375,0.006122165359556675
2075189058462,0.6548141837120056,-9.854534149169922,0.5781997442245483,0.0071868896484375,-0.0071868896484375,0.008251613937318325
2075190295837,0.6500257849693298,-9.847352027893066,0.5961562395095825,0.01171196810901165,-0.0039927163161337376,0.010114881210029125
2075191533200,0.6703764796257019,-9.84256362915039,0.586579442024231,0.013309055007994175,-0.0010647244052961469,0.012776692397892475
2075192770575,0.6560112833976746,-9.860519409179688,0.6212953329086304,0.008783976547420025,-0.0063883461989462376,0.0114457868039608
2075194007937,0.6308721303939819,-9.885659217834473,0.6224924325942993,0.006122165359556675,-0.0042588976211845875,0.01117960549890995
2075195245300,0.6021417379379272,-9.856928825378418,0.5506663918495178,0.00984870083630085,-0.00692070834338665,0.0090501569211483
2075196482650,0.6368576288223267,-9.865307807922363,0.5674257874488831,0.012510511092841625,-0.005589802749454975,0.007985432632267475
2075197720025,0.6212953329086304,-9.8784761428833,0.5949591398239136,0.0157046839594841,-0.0031941730994731188,0.01117960549890995
2075198957412,0.6607996821403503,-9.834183692932129,0.5817910432815552,0.013309055007994175,-0.0071868896484375,0.00984870083630085
2075200194750,0.6224924325942993,-9.859322547912598,0.608127236366272,0.007453070487827063,-0.00984870083630085,0.0039927163161337376
2075201432137,0.6619967818260193,-9.855731010437012,0.5817910432815552,0.007985432632267475,-0.0063883461989462376,0.005855984054505825
2075202669487,0.6584054827690125,-9.856928825378418,0.5913678407669067,0.012776692397892475,-0.007453070487827063,0.0071868896484375
2075203906850,0.6715735793113708,-9.836577415466309,0.586579442024231,0.0138414166867733,-0.0018632676219567657,0.008783976547420025
2075205144237,0.6248866319656372,-9.862914085388184,0.5985504388809204,0.0114457868039608,-0.0029279920272529125,0.004791259765625
2075206381600,0.6536170840263367,-9.853337287902832,0.6141127347946167,0.01357523538172245,-0.0026618109550327063,0.0077192517928779125
2075207618937,0.6212953329086304,-9.805453300476074,0.629675030708313,0.008783976547420025,-0.00931633822619915,0.0114457868039608
2075208856312,0.6428431868553162,-9.870096206665039,0.5913678407669067,0.0063883461989462376,-0.007985432632267475,0.013309055007994175
2075210093687,0.6332663297653198,-9.824606895446777,0.6009446382522583,0.012776692397892475,-0.008251613937318325,0.012510511092841625
2075211331062,0.6404489874839783,-9.827000617980957,0.5770025849342346,0.013309055007994175,-0.00931633822619915,0.013042873702943325
2075212568412,0.6308721303939819,-9.86770248413086,0.5793968439102173,0.00931633822619915,-0.010114881210029125,0.013309055007994175
2075213805787,0.6955155730247498,-9.841365814208984,0.6165069341659546,0.0114457868039608,-0.008517795242369175,0.005855984054505825
2075215043150,0.6979097723960876,-9.864110946655273,0.5422866940498352,0.01224433071911335,-0.007453070487827063,0.006122165359556675
2075216280512,0.6488286852836609,-9.835380554199219,0.5961562395095825,0.00984870083630085,-0.0090501569211483,0.00692070834338665
2075217517887,0.6224924325942993,-9.824606895446777,0.6117185354232788,0.007985432632267475,-0.013042873702943325,0.00931633822619915
2075218755250,0.6763619780540466,-9.861717224121094,0.6117185354232788,0.0039927163161337376,-0.01117960549890995,0.010381062515079975
2075219992612,0.6572083830833435,-9.856928825378418,0.6153098344802856,0.01357523538172245,-0.010381062515079975,0.01224433071911335
2075221229987,0.5758054852485657,-9.860519409179688,0.5710170865058899,0.010913425125181675,-0.0063883461989462376,0.00958251953125
2075222467350,0.6129156351089478,-9.840168952941895,0.6105214357376099,0.015438503585755825,-0.01463996060192585,0.010114881210029125
2075223704725,0.6356605291366577,-9.815030097961426,0.5961562395095825,0.0119781494140625,-0.010913425125181675,0.01410759799182415
2075224942087,0.629675030708313,-9.840168952941895,0.6248866319656372,0.01117960549890995,-0.0077192517928779125,0.00452507846057415
2075226179437,0.6009446382522583,-9.858125686645508,0.6153098344802856,0.012510511092841625,-0.00984870083630085,0.0090501569211483
2075227416812,0.6153098344802856,-9.853337287902832,0.5925649404525757,0.014906140975654125,-0.010913425125181675,0.012776692397892475
2075228654150,0.646434485912323,-9.86770248413086,0.5374982953071594,0.0119781494140625,-0.0090501569211483,0.00692070834338665
2075229891537,0.6153098344802856,-9.865307807922363,0.6105214357376099,0.00984870083630085,-0.01171196810901165,0.007453070487827063
2075231128912,0.6560112833976746,-9.848548889160156,0.6260837316513062,0.010114881210029125,-0.01836649514734745,0.008783976547420025
2075232366287,0.6141127347946167,-9.858125686645508,0.5985504388809204,0.013309055007994175,-0.0167694091796875,0.01357523538172245
2075233603625,0.5937620401382446,-9.827000617980957,0.5650315880775452,0.013042873702943325,-0.0157046839594841,0.008517795242369175
2075234841012,0.6368576288223267,-9.829395294189453,0.6224924325942993,0.01224433071911335,-0.013309055007994175,0.0077192517928779125
2075236078375,0.628477931022644,-9.859322547912598,0.6165069341659546,0.00984870083630085,-0.014906140975654125,0.0071868896484375
2075237315737,0.6248866319656372,-9.86770248413086,0.6165069341659546,0.01117960549890995,-0.01889885775744915,0.0053236219100654125
2075238553087,0.6607996821403503,-9.84495735168457,0.5722141861915588,0.013309055007994175,-0.012776692397892475,0.003460354171693325
2075239790462,0.6799532771110535,-9.829395294189453,0.5674257874488831,0.010647243820130825,-0.012776692397892475,0.004791259765625
2075241027837,0.6811503767967224,-9.84256362915039,0.6332663297653198,0.012776692397892475,-0.014906140975654125,0.00452507846057415
2075242265200,0.6248866319656372,-9.86889934539795,0.6260837316513062,0.00958251953125,-0.0167694091796875,0.0042588976211845875
2075243502575,0.5973533391952515,-9.822212219238281,0.5973533391952515,0.010114881210029125,-0.013309055007994175,0.0010647244052961469
2075244739950,0.6356605291366577,-9.849745750427246,0.5793968439102173,0.013042873702943325,-0.013042873702943325,0.0037265352439135313
2075245977287,0.6308721303939819,-9.84256362915039,0.6500257849693298,0.0223592109978199,-0.01889885775744915,0.0042588976211845875
2075247214662,0.6763619780540466,-9.849745750427246,0.5793968439102173,0.014373779296875,-0.01783413253724575,-0.0005323622026480734
2075248452037,0.6332663297653198,-9.860519409179688,0.6440402865409851,0.010381062515079975,-0.0186326764523983,-0.0021294488105922937
2075249689400,0.6021417379379272,-9.836577415466309,0.6344634294509888,0.0114457868039608,-0.01889885775744915,0.0010647244052961469
2075250926750,0.6332663297653198,-9.848548889160156,0.5937620401382446,0.007453070487827063,-0.0167694091796875,-0.0007985432748682797
2075252164125,0.6153098344802856,-9.892841339111328,0.5901707410812378,0.01117960549890995,-0.0167694091796875,0.0053236219100654125
2075253401500,0.6524199843406677,-9.86770248413086,0.5961562395095825,0.008517795242369175,-0.0196974016726017,-0.0007985432748682797
2075254638875,0.6835445761680603,-9.849745750427246,0.5961562395095825,0.01357523538172245,-0.0167694091796875,-0.0002661811013240367
2075255876237,0.6751648783683777,-9.831789016723633,0.628477931022644,0.0138414166867733,-0.01703559048473835,0.0031941730994731188
2075257113587,0.6536170840263367,-9.874884605407715,0.5937620401382446,0.012776692397892475,-0.01597086526453495,0.004791259765625
2075258350962,0.6153098344802856,-9.847352027893066,0.6117185354232788,0.0138414166867733,-0.0186326764523983,0.0031941730994731188
2075259588325,0.6248866319656372,-9.853337287902832,0.5781997442245483,0.015438503585755825,-0.02608574740588665,-0.0005323622026480734
2075260825687,0.5973533391952515,-9.858125686645508,0.6344634294509888,0.0114457868039608,-0.02315775491297245,-0.0031941730994731188
2075262063050,0.6141127347946167,-9.883264541625977,0.6440402865409851,0.010913425125181675,-0.01756795309484005,0.0018632676219567657
2075263300425,0.6619967818260193,-9.806650161743164,0.6236895322799683,0.01703559048473835,-0.02182685025036335,0.0023956298828125
2075264537787,0.6548141837120056,-9.854534149169922,0.6260837316513062,0.01597086526453495,-0.0215606689453125,0.0007985432748682797
2075265775162,0.6153098344802856,-9.883264541625977,0.5985504388809204,0.013309055007994175,-0.0210283063352108,0.0031941730994731188
2075267012512,0.6763619780540466,-9.854534149169922,0.6500257849693298,0.01224433071911335,-0.0162370465695858,0.0015970865497365594
2075268249875,0.6775590777397156,-9.854534149169922,0.6129156351089478,0.01357523538172245,-0.01943122036755085,0.0015970865497365594
2075269487237,0.6536170840263367,-9.823410034179688,0.6093243360519409,0.01224433071911335,-0.02608574740588665,-0.0013309054775163531
2075270724625,0.6332663297653198,-9.896432876586914,0.6344634294509888,0.010114881210029125,-0.0263519287109375,-0.0013309054775163531
2075271961987,0.6607996821403503,-9.86889934539795,0.6236895322799683,0.015172322280704975,-0.02661811001598835,-0.0029279920272529125
2075273199337,0.6320692300796509,-9.880870819091797,0.6368576288223267,0.01410759799182415,-0.02182685025036335,-0.0015970865497365594
2075274436712,0.6787561774253845,-9.856928825378418,0.5937620401382446,0.00984870083630085,-0.02422248013317585,-0.0029279920272529125
2075275674087,0.6440402865409851,-9.872490882873535,0.6045359373092651,0.01171196810901165,-0.0244886614382267,-0.0007985432748682797
2075276911475,0.6033388376235962,-9.849745750427246,0.629675030708313,0.00958251953125,-0.02262539230287075,-0.0039927163161337376
2075278148812,0.608127236366272,-9.891644477844238,0.6332663297653198,0.0066545275039970875,-0.01996358297765255,-0.0066545275039970875
2075279386175,0.6440402865409851,-9.880870819091797,0.6021417379379272,0.010913425125181675,-0.02315775491297245,0.0013309054775163531
2075280623550,0.6308721303939819,-9.871294021606445,0.6153098344802856,0.0138414166867733,-0.0234239362180233,-0.003460354171693325
2075281860912,0.6165069341659546,-9.855731010437012,0.6272808313369751,0.010647243820130825,-0.0282151959836483,-0.005855984054505825
2075283098275,0.628477931022644,-9.870096206665039,0.5793968439102173,0.0066545275039970875,-0.0295461006462574,-0.0090501569211483
2075284335637,0.629675030708313,-9.830592155456543,0.6236895322799683,0.008251613937318325,-0.01996358297765255,-0.005057440605014563
2075285573012,0.6033388376235962,-9.883264541625977,0.6236895322799683,0.0114457868039608,-0.0234239362180233,-0.004791259765625
2075286810375,0.6560112833976746,-9.870096206665039,0.5817910432815552,0.01463996060192585,-0.02608574740588665,-0.0029279920272529125
2075288047750,0.6189011335372925,-9.858125686645508,0.5889736413955688,0.0114457868039608,-0.0268842913210392,-0.0053236219100654125
2075289285100,0.6212953329086304,-9.853337287902832,0.6153098344802856,0.006122165359556675,-0.0271504707634449,-0.008517795242369175
2075290522500,0.6655880808830261,-9.873687744140625,0.5770025849342346,0.005589802749454975,-0.0268842913210392,-0.00984870083630085
2075291759850,0.6093243360519409,-9.884461402893066,0.6476315855979919,0.00931633822619915,-0.0282151959836483,-0.005589802749454975
2075292997200,0.6105214357376099,-9.897629737854004,0.6320692300796509,0.010381062515079975,-0.02794901467859745,-0.0039927163161337376
2075294234587,0.6643909811973572,-9.880870819091797,0.608127236366272,0.008783976547420025,-0.0258195661008358,-0.004791259765625
2075295471937,0.6859387755393982,-9.831789016723633,0.6009446382522583,0.013042873702943325,-0.0263519287109375,-0.0071868896484375
2075296709312,0.6548141837120056,-9.84495735168457,0.585382342338562,0.014373779296875,-0.02555338479578495,-0.005855984054505825
2075297946662,0.6440402865409851,-9.827000617980957,0.6021417379379272,0.00958251953125,-0.0263519287109375,-0.005057440605014563
2075299184050,0.628477931022644,-9.847352027893066,0.6224924325942993,0.012776692397892475,-0.0295461006462574,-0.010381062515079975
2075300421400,0.5973533391952515,-9.815030097961426,0.5913678407669067,0.014906140975654125,-0.02608574740588665,-0.010114881210029125
2075301658750,0.608127236366272,-9.87967300415039,0.6524199843406677,0.0063883461989462376,-0.0268842913210392,-0.0090501569211483
2075302896137,0.6643909811973572,-9.835380554199219,0.6224924325942993,0.01224433071911335,-0.0292799212038517,-0.004791259765625
2075304133500,0.6212953329086304,-9.873687744140625,0.6189011335372925,0.010647243820130825,-0.03087700717151165,-0.00692070834338665
2075305370862,0.6476315855979919,-9.847352027893066,0.6033388376235962,0.00692070834338665,-0.0343373604118824,-0.008517795242369175
2075306608225,0.6129156351089478,-9.823410034179688,0.6476315855979919,0.010114881210029125,-0.033272635191679,0.0005323622026480734
2075307845600,0.6045359373092651,-9.855731010437012,0.667982280254364,0.00984870083630085,-0.0300784632563591,-0.0023956298828125
2075309082962,0.5961562395095825,-9.862914085388184,0.5913678407669067,0.00931633822619915,-0.02981228195130825,-0.0066545275039970875
2075310320325,0.6165069341659546,-9.852140426635742,0.6117185354232788,0.010114881210029125,-0.0300784632563591,-0.006122165359556675
2075311557700,0.6727706789970398,-9.861717224121094,0.6189011335372925,0.0114457868039608,-0.03087700717151165,-0.007985432632267475
2075312795062,0.5961562395095825,-9.874884605407715,0.5482721924781799,0.01117960549890995,-0.0322079136967659,-0.005589802749454975
2075314032437,0.6153098344802856,-9.876082420349121,0.5889736413955688,0.010913425125181675,-0.0292799212038517,-0.010913425125181675
2075315269787,0.6272808313369751,-9.894038200378418,0.5925649404525757,0.00958251953125,-0.0295461006462574,-0.010381062515079975
2075316507162,0.6093243360519409,-9.832986831665039,0.586579442024231,0.0071868896484375,-0.0359344482421875,-0.00452507846057415
2075317744537,0.6224924325942993,-9.884461402893066,0.5889736413955688,-0.0002661811013240367,-0.0300784632563591,-0.010647243820130825
2075318981900,0.6117185354232788,-9.90241813659668,0.6105214357376099,0.004791259765625,-0.03087700717151165,-0.008783976547420025
2075320219275,0.5805939435958862,-9.914389610290527,0.6272808313369751,0.008251613937318325,-0.0319417305290699,-0.0042588976211845875
2075321456637,0.6009446382522583,-9.90241813659668,0.6045359373092651,0.00958251953125,-0.0271504707634449,-0.005589802749454975
2075322694000,0.5829881429672241,-9.855731010437012,0.6488286852836609,0.0077192517928779125,-0.0300784632563591,-0.004791259765625
2075323931350,0.5722141861915588,-9.916783332824707,0.5901707410812378,0.0090501569211483,-0.0330064557492733,-0.0063883461989462376
2075325168737,0.6368576288223267,-9.907206535339355,0.6236895322799683,0.0090501569211483,-0.02981228195130825,-0.005855984054505825
2075326406100,0.5937620401382446,-9.874884605407715,0.5746083855628967,0.01117960549890995,-0.0292799212038517,0.0031941730994731188
2075327643475,0.6200982332229614,-9.872490882873535,0.6129156351089478,0.010114881210029125,-0.0369991734623909,0.0007985432748682797
2075328880850,0.6200982332229614,-9.913191795349121,0.5746083855628967,0.01410759799182415,-0.0327402763068676,-0.010647243820130825
2075330118187,0.6045359373092651,-9.889249801635742,0.586579442024231,0.010114881210029125,-0.0316755510866642,-0.0005323622026480734
2075331355562,0.6045359373092651,-9.853337287902832,0.6141127347946167,0.010913425125181675,-0.0359344482421875,-0.0007985432748682797
2075332592925,0.606930136680603,-9.925163269042969,0.6189011335372925,0.007453070487827063,-0.0356682650744915,-0.007985432632267475
2075333830300,0.585382342338562,-9.884461402893066,0.5722141861915588,0.006122165359556675,-0.0292799212038517,-0.010913425125181675
2075335067662,0.5770025849342346,-9.854534149169922,0.5925649404525757,0.007985432632267475,-0.02848137728869915,-0.008783976547420025
2075336305037,0.6440402865409851,-9.882067680358887,0.6248866319656372,0.004791259765625,-0.0295461006462574,-0.0066545275039970875
2075337542412,0.5949591398239136,-9.907206535339355,0.6224924325942993,0.005057440605014563,-0.02901373989880085,-0.005855984054505825
2075338779737,0.5626373887062073,-9.822212219238281,0.568622887134552,0.0037265352439135313,-0.03087700717151165,-0.004791259765625
2075340017112,0.628477931022644,-9.877279281616211,0.5770025849342346,0.0039927163161337376,-0.02901373989880085,-0.0053236219100654125
2075341254475,0.5841852426528931,-9.838972091674805,0.6272808313369751,0.00452507846057415,-0.02874755859375,-0.004791259765625
2075342491862,0.5841852426528931,-9.840168952941895,0.5626373887062073,0.0063883461989462376,-0.0276828333735466,-0.004791259765625
2075343729225,0.5793968439102173,-9.823410034179688,0.6105214357376099,0.0023956298828125,-0.0215606689453125,-0.007985432632267475
2075344966587,0.6177040338516235,-9.873687744140625,0.586579442024231,0.0005323622026480734,-0.02901373989880085,-0.0031941730994731188
2075346203962,0.5734112858772278,-9.856928825378418,0.5781997442245483,0.00958251953125,-0.0306108258664608,-0.00452507846057415
2075347441325,0.5805939435958862,-9.821015357971191,0.5973533391952515,0.005855984054505825,-0.0330064557492733,-0.0031941730994731188
2075348678662,0.5650315880775452,-9.829395294189453,0.6021417379379272,0.0077192517928779125,-0.0295461006462574,-0.0010647244052961469
2075349916050,0.6177040338516235,-9.834183692932129,0.5997475385665894,0.003460354171693325,-0.02981228195130825,-0.00452507846057415
2075351153425,0.6200982332229614,-9.888052940368652,0.6093243360519409,-0.0023956298828125,-0.0268842913210392,-0.0119781494140625
2075352390787,0.606930136680603,-9.837775230407715,0.6009446382522583,0.006122165359556675,-0.0295461006462574,-0.0090501569211483
2075353628137,0.5985504388809204,-9.874884605407715,0.6129156351089478,0.0042588976211845875,-0.02661811001598835,-0.0063883461989462376
2075354865525,0.5781997442245483,-9.829395294189453,0.6033388376235962,0.0077192517928779125,-0.02741665206849575,-0.0039927163161337376
2075356102887,0.6260837316513062,-9.920374870300293,0.5913678407669067,0.0013309054775163531,-0.0271504707634449,-0.0063883461989462376
2075357340262,0.5674257874488831,-9.858125686645508,0.6607996821403503,0.0031941730994731188,-0.02502102218568325,-0.0031941730994731188
2075358577612,0.608127236366272,-9.874884605407715,0.628477931022644,0.004791259765625,-0.02555338479578495,-0.0021294488105922937
2075359814987,0.5925649404525757,-9.889249801635742,0.6117185354232788,0.0071868896484375,-0.0268842913210392,-0.00452507846057415
2075361052350,0.5758054852485657,-9.837775230407715,0.5913678407669067,0.006122165359556675,-0.02555338479578495,-0.0029279920272529125
2075362289725,0.5949591398239136,-9.864110946655273,0.5913678407669067,0.0029279920272529125,-0.0300784632563591,-0.0023956298828125
2075363527087,0.6129156351089478,-9.84376049041748,0.5554547905921936,0.0029279920272529125,-0.02608574740588665,-0.0042588976211845875
2075364764462,0.5817910432815552,-9.84495735168457,0.568622887134552,0.0029279920272529125,-0.0252872034907341,-0.0042588976211845875
2075366001787,0.6165069341659546,-9.862914085388184,0.6584054827690125,0.0023956298828125,-0.02901373989880085,-0.005057440605014563
2075367239175,0.6177040338516235,-9.832986831665039,0.6165069341659546,0.005855984054505825,-0.02502102218568325,-0.0029279920272529125
2075368476537,0.6165069341659546,-9.860519409179688,0.5925649404525757,0.0071868896484375,-0.02369011752307415,-0.0021294488105922937
2075369713912,0.5973533391952515,-9.838972091674805,0.5985504388809204,0.005057440605014563,-0.02422248013317585,-0.0018632676219567657
2075370951300,0.5997475385665894,-9.835380554199219,0.5590460896492004,0.0077192517928779125,-0.0210283063352108,-0.0071868896484375
2075372188637,0.5793968439102173,-9.819818496704102,0.5494692921638489,0.006122165359556675,-0.0252872034907341,-0.005855984054505825
2075373426000,0.5817910432815552,-9.829395294189453,0.6189011335372925,0.00452507846057415,-0.02182685025036335,-0.0063883461989462376
2075374663387,0.5973533391952515,-9.832986831665039,0.5877765417098999,0.00931633822619915,-0.0215606689453125,-0.0037265352439135313
2075375900737,0.6165069341659546,-9.834183692932129,0.6189011335372925,0.01171196810901165,-0.0247548408806324,-0.0010647244052961469
2075377138100,0.6775590777397156,-9.807847023010254,0.6332663297653198,0.00984870083630085,-0.02262539230287075,-0.005589802749454975
2075378375462,0.5925649404525757,-9.830592155456543,0.5817910432815552,0.0039927163161337376,-0.02182685025036335,-0.0042588976211845875
2075379612837,0.6524199843406677,-9.853337287902832,0.6045359373092651,0.008251613937318325,-0.02315775491297245,-0.0037265352439135313
2075380850200,0.6189011335372925,-9.84256362915039,0.6117185354232788,0.005589802749454975,-0.02182685025036335,-0.0063883461989462376
2075382087562,0.5793968439102173,-9.855731010437012,0.6332663297653198,0.0007985432748682797,-0.02076212503015995,-0.0042588976211845875
2075383324950,0.5614402890205383,-9.861717224121094,0.6009446382522583,0.0029279920272529125,-0.0204959437251091,-0.005057440605014563
2075384562312,0.5758054852485657,-9.848548889160156,0.6093243360519409,0.005855984054505825,-0.023956298828125,-0.003460354171693325
2075385799687,0.5997475385665894,-9.856928825378418,0.5901707410812378,0.00984870083630085,-0.01889885775744915,-0.0077192517928779125
2075387037050,0.5662286877632141,-9.850942611694336,0.6260837316513062,0.00452507846057415,-0.015438503585755825,-0.008251613937318325
2075388274412,0.5805939435958862,-9.865307807922363,0.6512228846549988,0.005855984054505825,-0.0204959437251091,-0.0039927163161337376
2075389511787,0.586579442024231,-9.84495735168457,0.6380547285079956,0.00931633822619915,-0.023956298828125,-0.0031941730994731188
2075390749150,0.5925649404525757,-9.836577415466309,0.6009446382522583,0.0090501569211483,-0.02369011752307415,-0.005855984054505825
2075391986512,0.6117185354232788,-9.84256362915039,0.5937620401382446,0.008517795242369175,-0.0215606689453125,-0.00931633822619915
2075393223875,0.628477931022644,-9.876082420349121,0.6416460871696472,0.008517795242369175,-0.0220930315554142,-0.00452507846057415
2075394461237,0.6021417379379272,-9.806650161743164,0.6356605291366577,0.0090501569211483,-0.02129448764026165,-0.0039927163161337376
2075395698600,0.646434485912323,-9.831789016723633,0.6320692300796509,0.008251613937318325,-0.02022976242005825,-0.0039927163161337376
2075396935962,0.5626373887062073,-9.852140426635742,0.5746083855628967,0.010913425125181675,-0.0220930315554142,-0.010913425125181675
2075398173350,0.6033388376235962,-9.852140426635742,0.6380547285079956,0.008517795242369175,-0.0220930315554142,-0.0090501569211483
2075399410725,0.6584054827690125,-9.821015357971191,0.628477931022644,0.008251613937318325,-0.01943122036755085,-0.0077192517928779125
2075400648075,0.6308721303939819,-9.818621635437012,0.6308721303939819,0.0071868896484375,-0.0244886614382267,-0.004791259765625
2075401885437,0.6356605291366577,-9.817423820495605,0.6200982332229614,0.008251613937318325,-0.0220930315554142,-0.005589802749454975
2075403122812,0.5997475385665894,-9.817423820495605,0.5985504388809204,0.013042873702943325,-0.0247548408806324,-0.008517795242369175
2075404360162,0.6093243360519409,-9.824606895446777,0.5602431893348694,0.008251613937318325,-0.0186326764523983,-0.008517795242369175
2075405597550,0.6248866319656372,-9.81263542175293,0.6212953329086304,0.00931633822619915,-0.01996358297765255,-0.007453070487827063
2075406834912,0.5913678407669067,-9.84615421295166,0.606930136680603,0.01224433071911335,-0.01836649514734745,-0.005855984054505825
2075408072287,0.6272808313369751,-9.864110946655273,0.6368576288223267,0.012510511092841625,-0.01650322787463665,-0.007985432632267475
2075409309650,0.5746083855628967,-9.838972091674805,0.5937620401382446,0.007985432632267475,-0.01756795309484005,-0.0071868896484375
2075410547025,0.6105214357376099,-9.848548889160156,0.6344634294509888,0.010647243820130825,-0.01463996060192585,-0.00958251953125
2075411784362,0.6057330369949341,-9.856928825378418,0.6332663297653198,0.0138414166867733,-0.0181003138422966,-0.005057440605014563
2075413021737,0.6476315855979919,-9.841365814208984,0.6488286852836609,0.012510511092841625,-0.02022976242005825,-0.005589802749454975
2075414259100,0.6428431868553162,-9.817423820495605,0.6141127347946167,0.010647243820130825,-0.0191650390625,-0.005855984054505825
2075415496475,0.6212953329086304,-9.854534149169922,0.5889736413955688,0.01410759799182415,-0.0234239362180233,-0.0026618109550327063
2075416733837,0.5829881429672241,-9.836577415466309,0.6200982332229614,0.010647243820130825,-0.02129448764026165,-0.00984870083630085
2075417971200,0.6153098344802856,-9.835380554199219,0.6177040338516235,0.013309055007994175,-0.015172322280704975,-0.008783976547420025
2075419208587,0.608127236366272,-9.853337287902832,0.6500257849693298,0.01171196810901165,-0.01783413253724575,-0.005057440605014563
2075420445937,0.6380547285079956,-9.834183692932129,0.6320692300796509,0.010114881210029125,-0.02129448764026165,-0.004791259765625
2075421683325,0.5662286877632141,-9.894038200378418,0.6572083830833435,0.01463996060192585,-0.02022976242005825,-0.008251613937318325
2075422920675,0.6236895322799683,-9.876082420349121,0.5973533391952515,0.0162370465695858,-0.01410759799182415,-0.015438503585755825
2075424158025,0.5817910432815552,-9.819818496704102,0.545877993106842,0.013042873702943325,-0.0196974016726017,-0.013042873702943325
2075425395412,0.6272808313369751,-9.84376049041748,0.6093243360519409,0.008783976547420025,-0.0167694091796875,-0.008251613937318325
