timestamp_ns,accel_x,accel_y,accel_z,gyro_x,gyro_y,gyro_z
17966444718737,0.8068459630012512,-9.835380554199219,0.8068459630012512,0.003460354171693325,0.0031941730994731188,0.0157046839594841
17966445955900,0.7481880187988281,-9.850942611694336,0.829590916633606,-0.0007985432748682797,0.0031941730994731188,0.01224433071911335
17966447193087,0.7864952683448792,-9.840168952941895,0.8391677141189575,0.0010647244052961469,0.00452507846057415,0.0077192517928779125
17966448430275,0.727837324142456,-9.799468040466309,0.8583213090896606,-0.0015970865497365594,0.0026618109550327063,0.012510511092841625
17966449667450,0.751779317855835,-9.791088104248047,0.828393816947937,0.0005323622026480734,0.0007985432748682797,0.01117960549890995
17966450904612,0.751779317855835,-9.835380554199219,0.8032546639442444,0.0039927163161337376,0.0010647244052961469,0.014373779296875
17966452141800,0.7481880187988281,-9.822212219238281,0.8619126081466675,-0.0023956298828125,0.0021294488105922937,0.0181003138422966
17966453378962,0.7362170219421387,-9.823410034179688,0.8463503122329712,0.0013309054775163531,-0.0026618109550327063,0.0138414166867733
17966454616150,0.7182605266571045,-9.829395294189453,0.8319851160049438,-0.0013309054775163531,-0.0023956298828125,0.01357523538172245
17966455853337,0.7350199222564697,-9.847352027893066,0.8164227604866028,-0.0018632676219567657,-0.0013309054775163531,0.014373779296875
17966457090500,0.7457938194274902,-9.827000617980957,0.8607155084609985,0.0010647244052961469,0.0029279920272529125,0.0138414166867733
17966458327662,0.7625532746315002,-9.847352027893066,0.8259996175765991,0.0015970865497365594,0.0018632676219567657,0.01224433071911335
17966459564837,0.7146692276000977,-9.829395294189453,0.8439561128616333,0.0026618109550327063,0.0002661811013240367,0.01357523538172245
17966460802037,0.7721300721168518,-9.807847023010254,0.8391677141189575,-0.0018632676219567657,0.0039927163161337376,0.01597086526453495
17966462039200,0.7493851184844971,-9.783905029296875,0.8451532125473022,0.0005323622026480734,0.005589802749454975,0.02022976242005825
17966463276387,0.7529764175415039,-9.859322547912598,0.8319851160049438,-0.0021294488105922937,0.0037265352439135313,0.01703559048473835
17966464513537,0.7410054206848145,-9.81143856048584,0.8678981065750122,-0.003460354171693325,0.0010647244052961469,0.01224433071911335
17966465750725,0.7577648162841797,-9.841365814208984,0.8152256608009338,0.0018632676219567657,-0.0031941730994731188,0.01889885775744915
17966466987912,0.7745242714881897,-9.789891242980957,0.8343793153762817,0.0039927163161337376,0.0023956298828125,0.01943122036755085
17966468225087,0.7852981686592102,-9.819818496704102,0.8463503122329712,-0.0021294488105922937,0.0029279920272529125,0.02129448764026165
17966469462262,0.8176198601722717,-9.825803756713867,0.8367735147476196,-0.0042588976211845875,-0.0005323622026480734,0.0215606689453125
17966470699425,0.7829039692878723,-9.828198432922363,0.8607155084609985,-0.0002661811013240367,-0.0026618109550327063,0.0167694091796875
17966471936612,0.7793126702308655,-9.832986831665039,0.8738836050033569,-0.0023956298828125,0.0002661811013240367,0.0186326764523983
17966473173787,0.7445967197418213,-9.835380554199219,0.8619126081466675,-0.0005323622026480734,0.0013309054775163531,0.01996358297765255
17966474410962,0.7793126702308655,-9.831789016723633,0.8319851160049438,-0.00692070834338665,0.005589802749454975,0.01756795309484005
17966475648150,0.7613561749458313,-9.801861763000488,0.8583213090896606,-0.01224433071911335,0.006122165359556675,0.02076212503015995
17966476885325,0.7589619159698486,-9.803058624267578,0.8559271097183228,-0.005855984054505825,0.0013309054775163531,0.01597086526453495
17966478122487,0.751779317855835,-9.854534149169922,0.7948749661445618,-0.003460354171693325,0.0002661811013240367,0.012510511092841625
17966479359662,0.7709329724311829,-9.805453300476074,0.8667010068893433,-0.0023956298828125,0.0013309054775163531,0.0157046839594841
17966480596837,0.7649474740028381,-9.819818496704102,0.8379706144332886,-0.004791259765625,0.003460354171693325,0.0215606689453125
17966481834012,0.7553706169128418,-9.801861763000488,0.8655039072036743,0.0031941730994731188,-0.0018632676219567657,0.0234239362180233
17966483071200,0.7781155705451965,-9.838972091674805,0.8343793153762817,0.0,-0.0013309054775163531,0.0157046839594841
17966484308362,0.7457938194274902,-9.823410034179688,0.8176198601722717,-0.005589802749454975,-0.0015970865497365594,0.0191650390625
17966485545537,0.7661445736885071,-9.818621635437012,0.8750807046890259,-0.0077192517928779125,-0.0018632676219567657,0.0204959437251091
17966486782725,0.790086567401886,-9.822212219238281,0.8690952062606812,-0.0071868896484375,-0.0018632676219567657,0.01463996060192585
17966488019900,0.7613561749458313,-9.831789016723633,0.8547300100326538,-0.0039927163161337376,0.0023956298828125,0.0191650390625
17966489257075,0.812831461429596,-9.834183692932129,0.8164227604866028,-0.005057440605014563,-0.0021294488105922937,0.01783413253724575
17966490494250,0.7817068696022034,-9.791088104248047,0.8463503122329712,-0.005855984054505825,-0.0005323622026480734,0.01597086526453495
17966491731425,0.7721300721168518,-9.827000617980957,0.8343793153762817,-0.005589802749454975,-0.0031941730994731188,0.0138414166867733
17966492968600,0.7852981686592102,-9.81143856048584,0.8427590131759644,-0.0029279920272529125,-0.0015970865497365594,0.0173017717897892
17966494205775,0.7697358727455139,-9.804256439208984,0.8331822156906128,0.0018632676219567657,-0.0021294488105922937,0.01756795309484005
17966495442975,0.7457938194274902,-9.824606895446777,0.8020575642585754,-0.0002661811013240367,-0.0026618109550327063,0.0210283063352108
17966496680137,0.7697358727455139,-9.774328231811523,0.8667010068893433,-0.0015970865497365594,-0.0005323622026480734,0.02315775491297245
17966497917312,0.7481880187988281,-9.783905029296875,0.8200140595436096,-0.0037265352439135313,-0.00931633822619915,0.02129448764026165
17966499154487,0.7625532746315002,-9.818621635437012,0.8547300100326538,-0.0002661811013240367,-0.00958251953125,0.02076212503015995
17966500391662,0.7433996200561523,-9.785102844238281,0.8319851160049438,-0.0002661811013240367,0.0,0.01836649514734745
17966501628850,0.7565677165985107,-9.806650161743164,0.8475474119186401,0.0013309054775163531,-0.00984870083630085,0.02022976242005825
17966502866000,0.8092401623725891,-9.822212219238281,0.8331822156906128,-0.0002661811013240367,-0.0031941730994731188,0.01836649514734745
17966504103200,0.8164227604866028,-9.815030097961426,0.828393816947937,-0.0013309054775163531,-0.005057440605014563,0.01889885775744915
17966505340362,0.7386112213134766,-9.793481826782227,0.8702923059463501,-0.005057440605014563,-0.0029279920272529125,0.0173017717897892
17966506577537,0.7469909191131592,-9.816226959228516,0.8810662031173706,-0.0021294488105922937,-0.0013309054775163531,0.0210283063352108
17966507814712,0.8008604645729065,-9.80904483795166,0.8451532125473022,-0.0013309054775163531,-0.0031941730994731188,0.01836649514734745
17966509051887,0.768538773059845,-9.819818496704102,0.828393816947937,0.005855984054505825,-0.0090501569211483,0.015172322280704975
17966510289075,0.7481880187988281,-9.791088104248047,0.8655039072036743,0.0037265352439135313,-0.00931633822619915,0.015438503585755825
17966511526262,0.767341673374176,-9.763554573059082,0.8152256608009338,0.0037265352439135313,-0.005057440605014563,0.0215606689453125
17966512763425,0.7350199222564697,-9.789891242980957,0.8307880163192749,0.0039927163161337376,-0.008783976547420025,0.0196974016726017
17966514000600,0.750582218170166,-9.769539833068848,0.8068459630012512,0.0,-0.007453070487827063,0.013042873702943325
17966515237762,0.730231523513794,-9.834183692932129,0.8583213090896606,-0.0039927163161337376,-0.0071868896484375,0.0167694091796875
17966516474950,0.7709329724311829,-9.805453300476074,0.811634361743927,-0.0031941730994731188,-0.01117960549890995,0.0191650390625
17966517712150,0.7577648162841797,-9.77552604675293,0.7829039692878723,0.0042588976211845875,-0.007985432632267475,0.01783413253724575
17966518949300,0.7541735172271729,-9.798270225524902,0.851138710975647,0.0042588976211845875,-0.0053236219100654125,0.01703559048473835
17966520186487,0.7481880187988281,-9.800664901733398,0.8870517611503601,0.0015970865497365594,-0.007985432632267475,0.0138414166867733
17966521423650,0.751779317855835,-9.769539833068848,0.8391677141189575,0.0010647244052961469,-0.010913425125181675,0.012776692397892475
17966522660837,0.7577648162841797,-9.806650161743164,0.8439561128616333,-0.0013309054775163531,-0.006122165359556675,0.010913425125181675
17966523898012,0.7374141216278076,-9.835380554199219,0.8547300100326538,0.0,-0.008517795242369175,0.01597086526453495
17966525135187,0.729034423828125,-9.797073364257812,0.8619126081466675,0.0002661811013240367,-0.008251613937318325,0.01783413253724575
17966526372362,0.7206547260284424,-9.813833236694336,0.8439561128616333,-0.0037265352439135313,-0.0039927163161337376,0.013309055007994175
17966527609550,0.7493851184844971,-9.819818496704102,0.8403648138046265,0.0018632676219567657,-0.008251613937318325,0.014906140975654125
17966528846725,0.7541735172271729,-9.78869342803955,0.8379706144332886,0.0037265352439135313,-0.00984870083630085,0.01703559048473835
17966530083900,0.7158663272857666,-9.768342971801758,0.8774749040603638,0.0002661811013240367,-0.010647243820130825,0.01171196810901165
17966531321062,0.6859387755393982,-9.841365814208984,0.8475474119186401,-0.0007985432748682797,-0.00958251953125,0.0119781494140625
17966532558250,0.7326257228851318,-9.806650161743164,0.812831461429596,-0.0005323622026480734,-0.01171196810901165,0.0119781494140625
17966533795425,0.7386112213134766,-9.798270225524902,0.8535329103469849,0.0005323622026480734,-0.008783976547420025,0.00958251953125
17966535032587,0.7326257228851318,-9.86650562286377,0.8475474119186401,0.0002661811013240367,-0.00931633822619915,0.007453070487827063
17966536269787,0.7206547260284424,-9.841365814208984,0.849941611289978,0.003460354171693325,-0.010114881210029125,0.01224433071911335
17966537506937,0.7398083209991455,-9.797073364257812,0.8427590131759644,0.007985432632267475,-0.0053236219100654125,0.01171196810901165
17966538744125,0.7170634269714355,-9.830592155456543,0.8547300100326538,0.0063883461989462376,-0.007453070487827063,0.008517795242369175
17966539981312,0.707486629486084,-9.828198432922363,0.8535329103469849,0.0,-0.008517795242369175,0.010381062515079975
17966541218475,0.7326257228851318,-9.783905029296875,0.8331822156906128,0.003460354171693325,-0.0037265352439135313,0.010381062515079975
17966542455650,0.7182605266571045,-9.823410034179688,0.8571242094039917,0.0005323622026480734,-0.006122165359556675,0.008783976547420025
17966543692837,0.6967126727104187,-9.838972091674805,0.871489405632019,0.003460354171693325,-0.00958251953125,0.00692070834338665
17966544930012,0.689530074596405,-9.81263542175293,0.8822633624076843,0.0007985432748682797,-0.007453070487827063,0.007985432632267475
17966546167200,0.7086837291717529,-9.792284965515137,0.8140285611152649,0.0026618109550327063,-0.006122165359556675,0.010114881210029125
17966547404350,0.6799532771110535,-9.84376049041748,0.8619126081466675,-0.0002661811013240367,-0.008517795242369175,0.00931633822619915
17966548641550,0.7026982307434082,-9.801861763000488,0.8583213090896606,0.003460354171693325,-0.00984870083630085,0.010647243820130825
17966549878712,0.767341673374176,-9.806650161743164,0.889445960521698,0.005057440605014563,-0.0071868896484375,0.010114881210029125
17966551115875,0.6871358752250671,-9.804256439208984,0.8487445116043091,0.0023956298828125,-0.00692070834338665,0.008783976547420025
17966552353062,0.7242460250854492,-9.815030097961426,0.8583213090896606,0.0026618109550327063,-0.00958251953125,0.0138414166867733
17966553590250,0.7122750282287598,-9.813833236694336,0.8331822156906128,-0.0002661811013240367,-0.008783976547420025,0.008517795242369175
17966554827400,0.7541735172271729,-9.81143856048584,0.8032546639442444,0.0018632676219567657,-0.0023956298828125,0.0037265352439135313
17966556064600,0.7314286231994629,-9.815030097961426,0.8523358106613159,0.007985432632267475,-0.00452507846057415,0.0071868896484375
17966557301787,0.6943184733390808,-9.813833236694336,0.8535329103469849,0.005855984054505825,-0.00692070834338665,0.0066545275039970875
17966558538950,0.7242460250854492,-9.855731010437012,0.8164227604866028,0.0066545275039970875,-0.00984870083630085,0.010114881210029125
17966559776112,0.751779317855835,-9.77672290802002,0.828393816947937,0.008517795242369175,-0.0114457868039608,0.008251613937318325
17966561013300,0.7086837291717529,-9.816226959228516,0.8188169598579407,0.0042588976211845875,-0.008251613937318325,0.0114457868039608
17966562250487,0.7230489253997803,-9.855731010437012,0.8415619134902954,0.0039927163161337376,-0.005057440605014563,0.012776692397892475
17966563487650,0.7134721279144287,-9.793481826782227,0.8786720037460327,0.00452507846057415,-0.008251613937318325,0.00958251953125
17966564724837,0.7110779285430908,-9.801861763000488,0.851138710975647,0.0077192517928779125,-0.01463996060192585,0.01224433071911335
17966565962012,0.7098808288574219,-9.815030097961426,0.8343793153762817,0.00692070834338665,-0.012510511092841625,0.010114881210029125
17966567199162,0.6991068720817566,-9.770737648010254,0.8224083185195923,0.0002661811013240367,-0.01224433071911335,0.008251613937318325
17966568436362,0.7350199222564697,-9.795876502990723,0.8188169598579407,0.00452507846057415,-0.010647243820130825,0.008517795242369175
17966569673550,0.7206547260284424,-9.816226959228516,0.8403648138046265,0.0053236219100654125,-0.007985432632267475,0.008783976547420025
17966570910712,0.7266402244567871,-9.789891242980957,0.8607155084609985,0.0023956298828125,-0.01117960549890995,0.013309055007994175
17966572147875,0.6931213736534119,-9.818621635437012,0.8786720037460327,0.003460354171693325,-0.008783976547420025,0.013309055007994175
17966573385062,0.7206547260284424,-9.791088104248047,0.8403648138046265,0.0063883461989462376,-0.007985432632267475,0.00931633822619915
17966574622225,0.7529764175415039,-9.798270225524902,0.829590916633606,0.0029279920272529125,-0.00931633822619915,0.010647243820130825
17966575859425,0.7457938194274902,-9.786299705505371,0.8343793153762817,0.00958251953125,-0.0077192517928779125,0.008783976547420025
17966577096600,0.7481880187988281,-9.80904483795166,0.8607155084609985,0.0015970865497365594,-0.0063883461989462376,0.008783976547420025
17966578333775,0.7015011310577393,-9.803058624267578,0.8834604620933533,0.003460354171693325,-0.010647243820130825,0.010381062515079975
17966579570950,0.7194576263427734,-9.837775230407715,0.8774749040603638,0.0066545275039970875,-0.007985432632267475,0.01357523538172245
17966580808112,0.7026982307434082,-9.848548889160156,0.8690952062606812,0.0,-0.0066545275039970875,0.010913425125181675
17966582045300,0.7338228225708008,-9.81263542175293,0.8164227604866028,0.00452507846057415,-0.010114881210029125,0.005057440605014563
17966583282475,0.7230489253997803,-9.815030097961426,0.8547300100326538,0.00692070834338665,-0.007985432632267475,0.00984870083630085
17966584519650,0.7134721279144287,-9.823410034179688,0.8307880163192749,0.0026618109550327063,-0.0071868896484375,0.013042873702943325
17966585756825,0.7266402244567871,-9.84376049041748,0.8583213090896606,0.0042588976211845875,-0.00452507846057415,0.0114457868039608
17966586994000,0.7433996200561523,-9.837775230407715,0.8032546639442444,0.0063883461989462376,-0.0023956298828125,0.013309055007994175
17966588231187,0.7026982307434082,-9.797073364257812,0.8403648138046265,-0.0013309054775163531,-0.005057440605014563,0.012776692397892475
17966589468362,0.7374141216278076,-9.825803756713867,0.8475474119186401,0.003460354171693325,-0.006122165359556675,0.0138414166867733
17966590705537,0.707486629486084,-9.818621635437012,0.8451532125473022,0.00452507846057415,-0.005057440605014563,0.010114881210029125
17966591942712,0.7182605266571045,-9.824606895446777,0.8355764150619507,0.0023956298828125,-0.004791259765625,0.01171196810901165
17966593179875,0.7481880187988281,-9.815030097961426,0.8391677141189575,0.0005323622026480734,-0.0063883461989462376,0.0119781494140625
17966594417050,0.7086837291717529,-9.830592155456543,0.8690952062606812,0.0023956298828125,-0.005855984054505825,0.006122165359556675
17966595654237,0.6931213736534119,-9.86889934539795,0.851138710975647,0.0002661811013240367,-0.0053236219100654125,0.010381062515079975
17966596891412,0.6919242739677429,-9.795876502990723,0.8319851160049438,-0.0005323622026480734,0.0018632676219567657,0.013309055007994175
17966598128587,0.6931213736534119,-9.813833236694336,0.7852981686592102,0.0039927163161337376,-0.0023956298828125,0.010647243820130825
17966599365762,0.7362170219421387,-9.789891242980957,0.8176198601722717,0.0037265352439135313,-0.0039927163161337376,0.0090501569211483
17966600602937,0.6775590777397156,-9.823410034179688,0.8343793153762817,-0.0010647244052961469,-0.005057440605014563,0.00931633822619915
17966601840112,0.7314286231994629,-9.84615421295166,0.8044517636299133,0.0,-0.006122165359556675,0.005589802749454975
17966603077312,0.7194576263427734,-9.81263542175293,0.8655039072036743,0.0026618109550327063,-0.008783976547420025,0.013309055007994175
17966604314487,0.7122750282287598,-9.805453300476074,0.8307880163192749,0.0007985432748682797,-0.0037265352439135313,0.01357523538172245
17966605551650,0.6811503767967224,-9.84376049041748,0.8319851160049438,-0.0002661811013240367,-0.0031941730994731188,0.0138414166867733
17966606788825,0.7338228225708008,-9.84376049041748,0.8535329103469849,-0.0005323622026480734,-0.0021294488105922937,0.01224433071911335
17966608025987,0.6979097723960876,-9.807847023010254,0.8918401598930359,0.0026618109550327063,-0.003460354171693325,0.0114457868039608
17966609263175,0.7026982307434082,-9.813833236694336,0.8391677141189575,-0.0007985432748682797,-0.0042588976211845875,0.010647243820130825
17966610500350,0.6727706789970398,-9.835380554199219,0.8403648138046265,-0.0039927163161337376,0.0007985432748682797,0.0114457868039608
17966611737537,0.7314286231994629,-9.77552604675293,0.828393816947937,-0.0023956298828125,0.0002661811013240367,0.013042873702943325
17966612974687,0.7493851184844971,-9.795876502990723,0.8822633624076843,0.0,-0.0023956298828125,0.010114881210029125
17966614211875,0.6967126727104187,-9.795876502990723,0.8678981065750122,-0.0007985432748682797,-0.0010647244052961469,0.0090501569211483
17966615449050,0.6823474764823914,-9.819818496704102,0.849941611289978,0.0026618109550327063,-0.0039927163161337376,0.0114457868039608
17966616686225,0.7242460250854492,-9.817423820495605,0.8583213090896606,0.00452507846057415,-0.004791259765625,0.0173017717897892
17966617923425,0.7122750282287598,-9.80904483795166,0.8224083185195923,0.0015970865497365594,0.0018632676219567657,0.01117960549890995
17966619160575,0.7242460250854492,-9.801861763000488,0.8786720037460327,0.0,0.0021294488105922937,0.00692070834338665
17966620397750,0.7661445736885071,-9.794679641723633,0.8307880163192749,-0.0018632676219567657,-0.0002661811013240367,0.010647243820130825
17966621634937,0.6883329749107361,-9.759963035583496,0.8631097078323364,0.0013309054775163531,-0.0026618109550327063,0.007985432632267475
17966622872112,0.7182605266571045,-9.7791166305542,0.8655039072036743,0.003460354171693325,0.0015970865497365594,0.01171196810901165
17966624109275,0.7194576263427734,-9.847352027893066,0.8583213090896606,0.004791259765625,-0.0007985432748682797,0.01410759799182415
17966625346462,0.7003040313720703,-9.794679641723633,0.8224083185195923,0.0037265352439135313,-0.0042588976211845875,0.0119781494140625
17966626583637,0.7038953304290771,-9.799468040466309,0.8571242094039917,0.0010647244052961469,-0.0023956298828125,0.010647243820130825
17966627820825,0.7098808288574219,-9.78869342803955,0.8391677141189575,0.0013309054775163531,-0.0023956298828125,0.00958251953125
17966629057987,0.7374141216278076,-9.780314445495605,0.8427590131759644,-0.0015970865497365594,0.003460354171693325,0.010114881210029125
17966630295175,0.7457938194274902,-9.829395294189453,0.8379706144332886,0.0013309054775163531,0.0053236219100654125,0.006122165359556675
17966631532337,0.7457938194274902,-9.787496566772461,0.8774749040603638,0.0031941730994731188,0.0018632676219567657,0.00984870083630085
17966632769512,0.7254431247711182,-9.816226959228516,0.8415619134902954,0.0021294488105922937,0.0013309054775163531,0.0090501569211483
17966634006700,0.730231523513794,-9.799468040466309,0.7996633648872375,0.003460354171693325,0.0002661811013240367,0.01224433071911335
17966635243875,0.7338228225708008,-9.804256439208984,0.8631097078323364,0.0023956298828125,-0.0053236219100654125,0.01171196810901165
17966636481050,0.7158663272857666,-9.81024169921875,0.8415619134902954,0.0013309054775163531,0.0,0.0114457868039608
17966637718237,0.7254431247711182,-9.78869342803955,0.8212112188339233,0.0002661811013240367,0.0026618109550327063,0.01117960549890995
17966638955412,0.7529764175415039,-9.823410034179688,0.8595184087753296,0.0039927163161337376,0.0013309054775163531,0.00452507846057415
17966640192587,0.7445967197418213,-9.819818496704102,0.8248025178909302,0.00452507846057415,-0.0007985432748682797,0.0053236219100654125
17966641429775,0.7422025203704834,-9.825803756713867,0.8331822156906128,0.0031941730994731188,0.0023956298828125,0.0066545275039970875
17966642666937,0.7422025203704834,-9.836577415466309,0.8678981065750122,0.0013309054775163531,-0.0023956298828125,0.005057440605014563
17966643904100,0.7457938194274902,-9.803058624267578,0.8271967172622681,0.0021294488105922937,0.0013309054775163531,0.0042588976211845875
17966645141287,0.729034423828125,-9.84615421295166,0.8631097078323364,0.0013309054775163531,0.0021294488105922937,0.005589802749454975
17966646378450,0.7218518257141113,-9.816226959228516,0.8403648138046265,0.00452507846057415,0.0018632676219567657,0.00692070834338665
17966647615637,0.7230489253997803,-9.798270225524902,0.8427590131759644,0.005057440605014563,0.0010647244052961469,0.0042588976211845875
17966648852812,0.751779317855835,-9.871294021606445,0.8463503122329712,0.0029279920272529125,0.005855984054505825,-0.0007985432748682797
17966650090000,0.7206547260284424,-9.836577415466309,0.851138710975647,-0.0010647244052961469,0.005057440605014563,0.0007985432748682797
17966651327175,0.7386112213134766,-9.815030097961426,0.829590916633606,0.0023956298828125,0.0029279920272529125,0.0042588976211845875
17966652564350,0.7050924301147461,-9.798270225524902,0.8822633624076843,0.0021294488105922937,0.0021294488105922937,0.008783976547420025
17966653801525,0.7374141216278076,-9.78869342803955,0.8942343592643738,0.0007985432748682797,-0.0013309054775163531,0.007985432632267475
17966655038687,0.7422025203704834,-9.813833236694336,0.8367735147476196,0.003460354171693325,-0.0010647244052961469,0.0037265352439135313
17966656275887,0.7601590752601624,-9.769539833068848,0.828393816947937,-0.0031941730994731188,0.0018632676219567657,0.00452507846057415
17966657513075,0.7697358727455139,-9.840168952941895,0.8427590131759644,0.0039927163161337376,0.0,0.0066545275039970875
17966658750225,0.7757213711738586,-9.835380554199219,0.8044517636299133,0.005057440605014563,0.0005323622026480734,0.0042588976211845875
17966659987400,0.768538773059845,-9.805453300476074,0.8427590131759644,-0.0007985432748682797,0.0002661811013240367,0.004791259765625
17966661224562,0.7709329724311829,-9.817423820495605,0.8379706144332886,-0.0007985432748682797,0.0007985432748682797,0.0026618109550327063
17966662461762,0.7194576263427734,-9.835380554199219,0.8571242094039917,0.0015970865497365594,0.0002661811013240367,0.0066545275039970875
17966663698937,0.7230489253997803,-9.861717224121094,0.8858546614646912,0.005589802749454975,-0.0002661811013240367,0.00958251953125
17966664936125,0.730231523513794,-9.831789016723633,0.829590916633606,0.0042588976211845875,0.0015970865497365594,0.00984870083630085
17966666173287,0.7422025203704834,-9.849745750427246,0.8188169598579407,0.0007985432748682797,0.0029279920272529125,0.005057440605014563
17966667410450,0.7170634269714355,-9.813833236694336,0.8307880163192749,0.004791259765625,-0.0018632676219567657,0.0042588976211845875
17966668647637,0.7637503743171692,-9.862914085388184,0.872686505317688,0.00452507846057415,0.0023956298828125,0.0063883461989462376
17966669884825,0.767341673374176,-9.828198432922363,0.8810662031173706,0.003460354171693325,0.0010647244052961469,0.0010647244052961469
17966671122000,0.730231523513794,-9.817423820495605,0.8439561128616333,0.005589802749454975,0.0005323622026480734,0.0066545275039970875
17966672359162,0.7709329724311829,-9.818621635437012,0.8846575617790222,0.0007985432748682797,0.004791259765625,0.0063883461989462376
17966673596337,0.7350199222564697,-9.801861763000488,0.829590916633606,0.0031941730994731188,0.003460354171693325,0.0037265352439135313
17966674833512,0.707486629486084,-9.838972091674805,0.8355764150619507,0.0018632676219567657,-0.0005323622026480734,0.0018632676219567657
17966676070700,0.729034423828125,-9.818621635437012,0.9002198576927185,-0.0031941730994731188,0.0018632676219567657,0.0021294488105922937
17966677307875,0.7194576263427734,-9.832986831665039,0.8463503122329712,0.0023956298828125,0.0005323622026480734,0.0071868896484375
17966678545062,0.7697358727455139,-9.803058624267578,0.8463503122329712,0.0066545275039970875,-0.0029279920272529125,0.007453070487827063
17966679782237,0.7481880187988281,-9.821015357971191,0.8379706144332886,0.0029279920272529125,0.0002661811013240367,0.0
17966681019400,0.7469909191131592,-9.831789016723633,0.8080430626869202,0.0037265352439135313,0.0005323622026480734,0.0021294488105922937
17966682256587,0.7445967197418213,-9.806650161743164,0.8379706144332886,-0.00452507846057415,-0.0026618109550327063,0.003460354171693325
17966683493750,0.7637503743171692,-9.838972091674805,0.8690952062606812,-0.0021294488105922937,0.0,0.0037265352439135313
17966684730937,0.7541735172271729,-9.86650562286377,0.8678981065750122,0.0023956298828125,0.0,0.0
17966685968112,0.767341673374176,-9.84376049041748,0.8690952062606812,0.0015970865497365594,-0.0010647244052961469,0.0021294488105922937
17966687205275,0.7649474740028381,-9.84376049041748,0.8678981065750122,0.0063883461989462376,-0.0029279920272529125,0.0021294488105922937
17966688442450,0.790086567401886,-9.818621635437012,0.8774749040603638,0.0066545275039970875,-0.0026618109550327063,0.0018632676219567657
17966689679625,0.768538773059845,-9.852140426635742,0.8535329103469849,0.0018632676219567657,-0.0015970865497365594,0.0018632676219567657
17966690916812,0.7817068696022034,-9.847352027893066,0.851138710975647,0.0021294488105922937,-0.003460354171693325,0.0002661811013240367
17966692153987,0.7481880187988281,-9.86889934539795,0.8535329103469849,0.005855984054505825,-0.0018632676219567657,0.007453070487827063
17966693391162,0.7098808288574219,-9.865307807922363,0.849941611289978,0.00452507846057415,0.0010647244052961469,0.007453070487827063
17966694628337,0.7422025203704834,-9.861717224121094,0.8702923059463501,0.004791259765625,-0.003460354171693325,0.0007985432748682797
17966695865537,0.7817068696022034,-9.86650562286377,0.8906430602073669,0.004791259765625,-0.0037265352439135313,0.0039927163161337376
17966697102687,0.7170634269714355,-9.84615421295166,0.871489405632019,0.0037265352439135313,-0.0029279920272529125,0.0018632676219567657
17966698339887,0.7649474740028381,-9.894038200378418,0.8331822156906128,0.0026618109550327063,-0.0007985432748682797,0.0002661811013240367
17966699577050,0.7757213711738586,-9.877279281616211,0.8643068075180054,-0.0005323622026480734,-0.0063883461989462376,0.0031941730994731188
17966700814225,0.7003040313720703,-9.828198432922363,0.871489405632019,0.0007985432748682797,-0.004791259765625,0.005057440605014563
17966702051387,0.7469909191131592,-9.859322547912598,0.8463503122329712,0.0005323622026480734,0.0005323622026480734,0.007985432632267475
17966703288575,0.7314286231994629,-9.873687744140625,0.8571242094039917,0.0021294488105922937,-0.005589802749454975,0.0039927163161337376
17966704525775,0.767341673374176,-9.84615421295166,0.872686505317688,-0.0031941730994731188,-0.003460354171693325,-0.0007985432748682797
17966705762937,0.7589619159698486,-9.861717224121094,0.8619126081466675,-0.003460354171693325,-0.0015970865497365594,0.0042588976211845875
17966707000100,0.7457938194274902,-9.838972091674805,0.8044517636299133,0.0002661811013240367,-0.004791259765625,0.0042588976211845875
17966708237300,0.7481880187988281,-9.84376049041748,0.8415619134902954,0.0002661811013240367,-0.0042588976211845875,0.0005323622026480734
17966709474462,0.7829039692878723,-9.840168952941895,0.829590916633606,-0.00452507846057415,-0.0023956298828125,0.005855984054505825
17966710711637,0.7553706169128418,-9.821015357971191,0.829590916633606,-0.0002661811013240367,-0.0029279920272529125,0.01463996060192585
17966711948825,0.7457938194274902,-9.828198432922363,0.8391677141189575,0.0005323622026480734,-0.0063883461989462376,0.010381062515079975
17966713185987,0.7469909191131592,-9.804256439208984,0.8475474119186401,-0.0018632676219567657,-0.0039927163161337376,0.0077192517928779125
17966714423162,0.750582218170166,-9.853337287902832,0.8271967172622681,0.0042588976211845875,-0.0015970865497365594,0.00452507846057415
17966715660337,0.7852981686592102,-9.886856079101562,0.8559271097183228,-0.0021294488105922937,-0.00452507846057415,0.005057440605014563
17966716897500,0.8188169598579407,-9.860519409179688,0.8595184087753296,-0.0031941730994731188,-0.010647243820130825,0.0063883461989462376
17966718134687,0.7182605266571045,-9.838972091674805,0.8379706144332886,-0.0015970865497365594,-0.0042588976211845875,0.00931633822619915
17966719371875,0.7757213711738586,-9.806650161743164,0.8104372620582581,-0.0018632676219567657,0.0010647244052961469,0.0138414166867733
17966720609075,0.706289529800415,-9.830592155456543,0.8475474119186401,-0.0031941730994731188,-0.0018632676219567657,0.01171196810901165
17966721846225,0.7422025203704834,-9.84615421295166,0.8487445116043091,-0.0018632676219567657,-0.00692070834338665,0.008251613937318325
17966723083400,0.751779317855835,-9.84376049041748,0.8690952062606812,-0.0002661811013240367,-0.0063883461989462376,0.007453070487827063
17966724320600,0.751779317855835,-9.821015357971191,0.8248025178909302,0.0005323622026480734,-0.0015970865497365594,0.010913425125181675
17966725557762,0.7529764175415039,-9.860519409179688,0.7912836670875549,-0.006122165359556675,-0.0013309054775163531,0.0037265352439135313
17966726794937,0.7350199222564697,-9.86889934539795,0.8535329103469849,-0.0039927163161337376,-0.0018632676219567657,0.0077192517928779125
17966728032112,0.7386112213134766,-9.872490882873535,0.829590916633606,-0.0023956298828125,-0.005589802749454975,0.013042873702943325
17966729269287,0.7182605266571045,-9.856928825378418,0.8188169598579407,0.0007985432748682797,-0.008251613937318325,0.010114881210029125
17966730506450,0.7170634269714355,-9.880870819091797,0.9133879542350769,0.0010647244052961469,0.0013309054775163531,0.01171196810901165
17966731743650,0.7541735172271729,-9.895236015319824,0.8391677141189575,-0.0005323622026480734,-0.0042588976211845875,0.01703559048473835
17966732980800,0.7158663272857666,-9.883264541625977,0.8092401623725891,-0.0063883461989462376,-0.0042588976211845875,0.01357523538172245
17966734217975,0.7350199222564697,-9.874884605407715,0.8331822156906128,-0.005057440605014563,-0.00452507846057415,0.0119781494140625
17966735455162,0.7050924301147461,-9.872490882873535,0.8391677141189575,-0.007453070487827063,-0.0042588976211845875,0.012776692397892475
17966736692362,0.7350199222564697,-9.884461402893066,0.8655039072036743,-0.00958251953125,-0.0039927163161337376,0.0114457868039608
17966737929512,0.7852981686592102,-9.849745750427246,0.849941611289978,-0.00692070834338665,-0.0023956298828125,0.01117960549890995
17966739166700,0.751779317855835,-9.835380554199219,0.8858546614646912,-0.00958251953125,-0.0023956298828125,0.01410759799182415
17966740403862,0.7230489253997803,-9.849745750427246,0.8571242094039917,-0.00958251953125,-0.003460354171693325,0.014906140975654125
17966741641062,0.7086837291717529,-9.848548889160156,0.8367735147476196,-0.005589802749454975,-0.0042588976211845875,0.01463996060192585
17966742878237,0.7038953304290771,-9.896432876586914,0.8343793153762817,-0.00958251953125,-0.0013309054775163531,0.0167694091796875
17966744115400,0.7410054206848145,-9.861717224121094,0.8559271097183228,-0.0053236219100654125,-0.0026618109550327063,0.01650322787463665
17966745352575,0.7038953304290771,-9.849745750427246,0.8331822156906128,-0.0053236219100654125,-0.003460354171693325,0.014906140975654125
17966746589775,0.7146692276000977,-9.872490882873535,0.8307880163192749,-0.0063883461989462376,-0.0013309054775163531,0.01224433071911335
17966747826937,0.707486629486084,-9.856928825378418,0.8547300100326538,-0.0090501569211483,-0.0042588976211845875,0.01597086526453495
17966749064100,0.7170634269714355,-9.865307807922363,0.8607155084609985,-0.010114881210029125,-0.00692070834338665,0.015172322280704975
17966750301300,0.6967126727104187,-9.837775230407715,0.8643068075180054,-0.0066545275039970875,-0.0010647244052961469,0.015438503585755825
17966751538462,0.7781155705451965,-9.861717224121094,0.8427590131759644,-0.0037265352439135313,-0.0018632676219567657,0.01756795309484005
17966752775625,0.6931213736534119,-9.837775230407715,0.8379706144332886,-0.0066545275039970875,-0.0023956298828125,0.0114457868039608
17966754012825,0.7326257228851318,-9.823410034179688,0.7864952683448792,-0.010913425125181675,0.0015970865497365594,0.010114881210029125
17966755250000,0.7086837291717529,-9.850942611694336,0.8523358106613159,-0.01117960549890995,0.0021294488105922937,0.01889885775744915
17966756487162,0.7326257228851318,-9.80904483795166,0.8331822156906128,-0.01410759799182415,-0.0010647244052961469,0.01703559048473835
17966757724350,0.7589619159698486,-9.855731010437012,0.8415619134902954,-0.01171196810901165,-0.0021294488105922937,0.01357523538172245
17966758961537,0.7326257228851318,-9.870096206665039,0.8607155084609985,-0.01463996060192585,-0.0037265352439135313,0.0119781494140625
17966760198712,0.7242460250854492,-9.848548889160156,0.8451532125473022,-0.012510511092841625,-0.0037265352439135313,0.01650322787463665
17966761435875,0.7158663272857666,-9.853337287902832,0.8870517611503601,-0.01171196810901165,-0.00452507846057415,0.0186326764523983
17966762673062,0.750582218170166,-9.862914085388184,0.8319851160049438,-0.00958251953125,-0.005057440605014563,0.01703559048473835
17966763910237,0.7326257228851318,-9.84256362915039,0.8595184087753296,-0.012776692397892475,-0.0021294488105922937,0.0157046839594841
17966765147412,0.7134721279144287,-9.824606895446777,0.828393816947937,-0.013042873702943325,-0.0021294488105922937,0.0114457868039608
17966766384587,0.7122750282287598,-9.864110946655273,0.8152256608009338,-0.01783413253724575,-0.0015970865497365594,0.01703559048473835
17966767621775,0.6847416758537292,-9.858125686645508,0.8343793153762817,-0.015438503585755825,-0.0037265352439135313,0.0162370465695858
17966768858937,0.7266402244567871,-9.86650562286377,0.8667010068893433,-0.0114457868039608,-0.003460354171693325,0.012510511092841625
17966770096125,0.7110779285430908,-9.80904483795166,0.8391677141189575,-0.008783976547420025,-0.0007985432748682797,0.00984870083630085
17966771333287,0.707486629486084,-9.803058624267578,0.829590916633606,-0.0119781494140625,-0.0026618109550327063,0.01463996060192585
17966772570450,0.730231523513794,-9.799468040466309,0.829590916633606,-0.013042873702943325,-0.0018632676219567657,0.01650322787463665
17966773807637,0.750582218170166,-9.818621635437012,0.849941611289978,-0.008783976547420025,0.0015970865497365594,0.0119781494140625
17966775044825,0.7134721279144287,-9.840168952941895,0.7972691655158997,-0.00984870083630085,-0.0002661811013240367,0.010913425125181675
17966776281987,0.7457938194274902,-9.81024169921875,0.7996633648872375,-0.01117960549890995,-0.0007985432748682797,0.010114881210029125
17966777519162,0.7134721279144287,-9.848548889160156,0.8834604620933533,-0.008517795242369175,-0.0015970865497365594,0.010647243820130825
17966778756337,0.7230489253997803,-9.848548889160156,0.8307880163192749,-0.010913425125181675,-0.0053236219100654125,0.010647243820130825
17966779993525,0.7362170219421387,-9.836577415466309,0.8463503122329712,-0.0090501569211483,0.0031941730994731188,0.008783976547420025
17966781230712,0.7338228225708008,-9.787496566772461,0.8236054182052612,-0.00958251953125,0.0018632676219567657,0.0114457868039608
17966782467862,0.729034423828125,-9.791088104248047,0.8619126081466675,-0.01410759799182415,-0.0015970865497365594,0.015172322280704975
17966783705062,0.7194576263427734,-9.804256439208984,0.8559271097183228,-0.012510511092841625,-0.0013309054775163531,0.010913425125181675
17966784942237,0.730231523513794,-9.840168952941895,0.8307880163192749,-0.008517795242369175,-0.00452507846057415,0.0119781494140625
17966786179412,0.7457938194274902,-9.806650161743164,0.8451532125473022,-0.005057440605014563,-0.0039927163161337376,0.007453070487827063
17966787416587,0.729034423828125,-9.789891242980957,0.8056488633155823,-0.008517795242369175,-0.0013309054775163531,0.00984870083630085
17966788653762,0.751779317855835,-9.800664901733398,0.7924807667732239,-0.010114881210029125,0.0026618109550327063,0.010647243820130825
17966789890937,0.7445967197418213,-9.824606895446777,0.8140285611152649,-0.008517795242369175,-0.0005323622026480734,0.00958251953125
17966791128112,0.750582218170166,-9.801861763000488,0.8355764150619507,-0.0077192517928779125,-0.0007985432748682797,0.008251613937318325
17966792365287,0.7015011310577393,-9.797073364257812,0.8451532125473022,-0.0066545275039970875,-0.0018632676219567657,0.01117960549890995
17966793602487,0.7398083209991455,-9.77672290802002,0.7852981686592102,-0.0039927163161337376,-0.0021294488105922937,0.0119781494140625
17966794839650,0.7529764175415039,-9.84495735168457,0.7960720658302307,-0.010913425125181675,0.0013309054775163531,0.00692070834338665
17966796076812,0.7410054206848145,-9.816226959228516,0.8439561128616333,-0.0090501569211483,0.0018632676219567657,0.00931633822619915
17966797313987,0.751779317855835,-9.78869342803955,0.8319851160049438,-0.0002661811013240367,0.0018632676219567657,0.010913425125181675
17966798551187,0.7386112213134766,-9.822212219238281,0.8020575642585754,-0.0063883461989462376,0.0007985432748682797,0.008251613937318325
17966799788350,0.7601590752601624,-9.823410034179688,0.8164227604866028,-0.0053236219100654125,-0.0021294488105922937,0.006122165359556675
17966801025525,0.7912836670875549,-9.81263542175293,0.811634361743927,-0.008251613937318325,0.0007985432748682797,0.005057440605014563
17966802262712,0.7242460250854492,-9.792284965515137,0.811634361743927,-0.0077192517928779125,-0.005589802749454975,0.008251613937318325
17966803499887,0.7182605266571045,-9.78869342803955,0.8547300100326538,-0.008251613937318325,-0.0015970865497365594,0.007985432632267475
17966804737050,0.7194576263427734,-9.807847023010254,0.8487445116043091,-0.012776692397892475,0.0007985432748682797,0.0071868896484375
17966805974225,0.7386112213134766,-9.829395294189453,0.8343793153762817,-0.00958251953125,0.0010647244052961469,0.00452507846057415
17966807211412,0.7469909191131592,-9.803058624267578,0.8092401623725891,-0.0063883461989462376,0.0029279920272529125,0.005057440605014563
17966808448575,0.7637503743171692,-9.795876502990723,0.812831461429596,-0.008783976547420025,-0.0005323622026480734,0.0077192517928779125
17966809685762,0.7493851184844971,-9.774328231811523,0.811634361743927,-0.008517795242369175,-0.0018632676219567657,0.010913425125181675
17966810922950,0.7481880187988281,-9.803058624267578,0.8331822156906128,-0.008517795242369175,0.0042588976211845875,0.005589802749454975
17966812160112,0.767341673374176,-9.800664901733398,0.828393816947937,-0.0077192517928779125,0.0013309054775163531,0.008251613937318325
17966813397287,0.6883329749107361,-9.78869342803955,0.7565677165985107,-0.005057440605014563,0.0026618109550327063,0.0090501569211483
17966814634475,0.7386112213134766,-9.824606895446777,0.828393816947937,-0.0042588976211845875,-0.0007985432748682797,0.01357523538172245
17966815871650,0.7314286231994629,-9.798270225524902,0.8176198601722717,-0.006122165359556675,-0.0015970865497365594,0.007985432632267475
17966817108825,0.7410054206848145,-9.791088104248047,0.8104372620582581,-0.008517795242369175,-0.0010647244052961469,0.0042588976211845875
17966818346012,0.7410054206848145,-9.832986831665039,0.8367735147476196,-0.005855984054505825,0.0015970865497365594,0.0042588976211845875
17966819583187,0.707486629486084,-9.821015357971191,0.8176198601722717,-0.008251613937318325,0.0039927163161337376,0.0
17966820820362,0.7326257228851318,-9.805453300476074,0.8200140595436096,-0.00692070834338665,-0.0007985432748682797,0.0071868896484375
17966822057537,0.6991068720817566,-9.817423820495605,0.8367735147476196,-0.005057440605014563,-0.0007985432748682797,0.0063883461989462376
17966823294725,0.7781155705451965,-9.7791166305542,0.8224083185195923,-0.010647243820130825,0.0010647244052961469,0.0037265352439135313
17966824531887,0.7254431247711182,-9.7791166305542,0.8020575642585754,-0.004791259765625,0.0018632676219567657,0.007985432632267475
17966825769062,0.7433996200561523,-9.781511306762695,0.8164227604866028,-0.0037265352439135313,0.0005323622026480734,0.0066545275039970875
17966827006237,0.7757213711738586,-9.830592155456543,0.7960720658302307,-0.008783976547420025,-0.0010647244052961469,0.0053236219100654125
17966828243412,0.7469909191131592,-9.818621635437012,0.8248025178909302,-0.0023956298828125,0.0005323622026480734,0.0037265352439135313
17966829480587,0.7445967197418213,-9.861717224121094,0.8307880163192749,0.0,-0.0015970865497365594,0.010114881210029125
17966830717762,0.7481880187988281,-9.816226959228516,0.7912836670875549,-0.0026618109550327063,-0.0010647244052961469,0.007985432632267475
17966831954950,0.7362170219421387,-9.819818496704102,0.7996633648872375,-0.006122165359556675,0.0010647244052961469,0.00692070834338665
17966833192125,0.7601590752601624,-9.837775230407715,0.8140285611152649,-0.0071868896484375,0.005057440605014563,0.0066545275039970875
17966834429300,0.790086567401886,-9.80904483795166,0.8080430626869202,-0.005057440605014563,-0.0029279920272529125,0.005589802749454975
17966835666487,0.767341673374176,-9.835380554199219,0.8307880163192749,-0.008517795242369175,-0.0005323622026480734,0.00452507846057415
17966836903662,0.7817068696022034,-9.832986831665039,0.8080430626869202,-0.003460354171693325,-0.0039927163161337376,0.013309055007994175
17966838140825,0.7182605266571045,-9.794679641723633,0.828393816947937,-0.003460354171693325,-0.0023956298828125,0.010913425125181675
17966839378012,0.727837324142456,-9.795876502990723,0.8080430626869202,-0.005057440605014563,0.0007985432748682797,0.0071868896484375
17966840615175,0.7493851184844971,-9.837775230407715,0.8331822156906128,-0.0021294488105922937,0.0023956298828125,0.0063883461989462376
17966841852375,0.7410054206848145,-9.798270225524902,0.7864952683448792,-0.0005323622026480734,0.0015970865497365594,0.0063883461989462376
17966843089525,0.7086837291717529,-9.77552604675293,0.828393816947937,-0.0023956298828125,0.0,0.008783976547420025
17966844326725,0.7314286231994629,-9.800664901733398,0.790086567401886,-0.005057440605014563,-0.0002661811013240367,0.008517795242369175
17966845563875,0.7374141216278076,-9.803058624267578,0.7960720658302307,-0.0015970865497365594,0.0002661811013240367,0.01117960549890995
17966846801075,0.7206547260284424,-9.81263542175293,0.8008604645729065,-0.0010647244052961469,-0.0002661811013240367,0.010647243820130825
17966848038237,0.751779317855835,-9.787496566772461,0.828393816947937,-0.004791259765625,-0.0026618109550327063,0.010913425125181675
17966849275412,0.7493851184844971,-9.80904483795166,0.8068459630012512,0.0005323622026480734,-0.003460354171693325,0.01410759799182415
17966850512600,0.7134721279144287,-9.774328231811523,0.8379706144332886,-0.0010647244052961469,-0.003460354171693325,0.0157046839594841
17966851749775,0.6943184733390808,-9.795876502990723,0.7864952683448792,-0.0018632676219567657,-0.003460354171693325,0.0138414166867733
17966852986962,0.7122750282287598,-9.794679641723633,0.7661445736885071,-0.0042588976211845875,0.0010647244052961469,0.013309055007994175
17966854224125,0.7422025203704834,-9.799468040466309,0.7697358727455139,-0.0018632676219567657,-0.003460354171693325,0.010913425125181675
17966855461300,0.7254431247711182,-9.77552604675293,0.788889467716217,-0.0037265352439135313,-0.0031941730994731188,0.008251613937318325
17966856698475,0.750582218170166,-9.825803756713867,0.7745242714881897,-0.005057440605014563,-0.0013309054775163531,0.015438503585755825
17966857935650,0.7254431247711182,-9.860519409179688,0.8236054182052612,-0.0031941730994731188,-0.0010647244052961469,0.00958251953125
17966859172825,0.6775590777397156,-9.797073364257812,0.8140285611152649,-0.0031941730994731188,-0.0026618109550327063,0.010913425125181675
17966860410012,0.7242460250854492,-9.86889934539795,0.8259996175765991,-0.0037265352439135313,0.0002661811013240367,0.00931633822619915
17966861647187,0.7793126702308655,-9.854534149169922,0.7972691655158997,-0.003460354171693325,0.0015970865497365594,0.0114457868039608
17966862884375,0.7577648162841797,-9.831789016723633,0.8355764150619507,-0.00452507846057415,-0.004791259765625,0.0119781494140625
17966864121537,0.7613561749458313,-9.818621635437012,0.7769184708595276,-0.0013309054775163531,-0.0031941730994731188,0.010647243820130825
17966865358725,0.7565677165985107,-9.830592155456543,0.788889467716217,-0.0015970865497365594,-0.0002661811013240367,0.01224433071911335
17966866595900,0.7481880187988281,-9.852140426635742,0.8248025178909302,-0.0031941730994731188,0.0021294488105922937,0.010913425125181675
17966867833050,0.7529764175415039,-9.835380554199219,0.7852981686592102,-0.0029279920272529125,-0.0031941730994731188,0.008251613937318325
17966869070250,0.7314286231994629,-9.817423820495605,0.8200140595436096,-0.0007985432748682797,-0.005855984054505825,0.00958251953125
17966870307437,0.7110779285430908,-9.828198432922363,0.7864952683448792,-0.0023956298828125,-0.005057440605014563,0.0090501569211483
17966871544587,0.767341673374176,-9.828198432922363,0.8271967172622681,-0.0005323622026480734,-0.0029279920272529125,0.010381062515079975
17966872781775,0.7422025203704834,-9.813833236694336,0.7948749661445618,0.005057440605014563,-0.0031941730994731188,0.008517795242369175
17966874018937,0.7230489253997803,-9.837775230407715,0.811634361743927,0.0023956298828125,-0.0021294488105922937,0.015438503585755825
17966875256125,0.7422025203704834,-9.81263542175293,0.811634361743927,-0.0031941730994731188,-0.0021294488105922937,0.00958251953125
17966876493312,0.7697358727455139,-9.849745750427246,0.7829039692878723,0.0002661811013240367,-0.0090501569211483,0.015172322280704975
17966877730475,0.7422025203704834,-9.792284965515137,0.8212112188339233,-0.005057440605014563,-0.006122165359556675,0.0119781494140625
17966878967675,0.768538773059845,-9.80904483795166,0.811634361743927,-0.0063883461989462376,-0.0023956298828125,0.0090501569211483
17966880204837,0.7410054206848145,-9.831789016723633,0.8200140595436096,-0.0039927163161337376,-0.0042588976211845875,0.008517795242369175
17966881442025,0.7326257228851318,-9.821015357971191,0.7817068696022034,-0.0010647244052961469,-0.0010647244052961469,0.007453070487827063
17966882679200,0.7314286231994629,-9.78869342803955,0.8271967172622681,-0.0007985432748682797,-0.004791259765625,0.00958251953125
17966883916375,0.7242460250854492,-9.762357711791992,0.8571242094039917,-0.0037265352439135313,-0.0007985432748682797,0.00931633822619915
17966885153537,0.7374141216278076,-9.767146110534668,0.8188169598579407,-0.0010647244052961469,-0.00452507846057415,0.014373779296875
17966886390725,0.7398083209991455,-9.794679641723633,0.7912836670875549,-0.0013309054775163531,-0.0063883461989462376,0.010381062515079975
17966887627912,0.7158663272857666,-9.77672290802002,0.7793126702308655,-0.0039927163161337376,-0.0021294488105922937,0.014373779296875
17966888865075,0.7386112213134766,-9.822212219238281,0.768538773059845,-0.0031941730994731188,-0.0031941730994731188,0.014373779296875
17966890102250,0.7218518257141113,-9.77672290802002,0.812831461429596,-0.0026618109550327063,-0.0037265352439135313,0.0138414166867733
17966891339437,0.7589619159698486,-9.819818496704102,0.7817068696022034,-0.0039927163161337376,-0.0023956298828125,0.012510511092841625
17966892576612,0.751779317855835,-9.746795654296875,0.7876923680305481,0.0037265352439135313,-0.00692070834338665,0.013042873702943325
17966893813787,0.707486629486084,-9.743204116821289,0.768538773059845,-0.0007985432748682797,-0.0007985432748682797,0.01224433071911335
17966895050962,0.7529764175415039,-9.77672290802002,0.7912836670875549,-0.0039927163161337376,0.0023956298828125,0.01463996060192585
17966896288137,0.7218518257141113,-9.740809440612793,0.8212112188339233,0.0007985432748682797,-0.0015970865497365594,0.01783413253724575
17966897525325,0.7541735172271729,-9.756372451782227,0.7781155705451965,0.0031941730994731188,-0.0026618109550327063,0.0157046839594841
17966898762500,0.7374141216278076,-9.768342971801758,0.8212112188339233,-0.0007985432748682797,-0.007985432632267475,0.0157046839594841
17966899999675,0.7661445736885071,-9.763554573059082,0.8140285611152649,0.008517795242369175,-0.01117960549890995,0.0204959437251091
17966901236837,0.7338228225708008,-9.7791166305542,0.8343793153762817,0.0029279920272529125,-0.007985432632267475,0.0191650390625
17966902474025,0.7326257228851318,-9.77552604675293,0.8535329103469849,-0.0007985432748682797,-0.004791259765625,0.02182685025036335
17966903711212,0.7218518257141113,-9.7420072555542,0.8164227604866028,0.0029279920272529125,-0.0071868896484375,0.01597086526453495
17966904948375,0.7625532746315002,-9.734824180603027,0.8259996175765991,0.005057440605014563,-0.008517795242369175,0.0191650390625
17966906185562,0.7086837291717529,-9.708487510681152,0.7805097699165344,0.0042588976211845875,-0.0037265352439135313,0.0228915736079216
17966907422737,0.7481880187988281,-9.7420072555542,0.8056488633155823,0.005589802749454975,-0.005057440605014563,0.0186326764523983
17966908659925,0.706289529800415,-9.789891242980957,0.8080430626869202,0.0029279920272529125,-0.0063883461989462376,0.0186326764523983
17966909897075,0.7242460250854492,-9.774328231811523,0.851138710975647,0.0031941730994731188,-0.004791259765625,0.0173017717897892
17966911134262,0.7493851184844971,-9.764751434326172,0.8152256608009338,0.0042588976211845875,-0.0042588976211845875,0.0196974016726017
17966912371437,0.7433996200561523,-9.799468040466309,0.7829039692878723,0.00984870083630085,-0.010381062515079975,0.0191650390625
17966913608625,0.7122750282287598,-9.77791976928711,0.767341673374176,0.0090501569211483,-0.0071868896484375,0.015438503585755825
17966914845787,0.7122750282287598,-9.765949249267578,0.7649474740028381,0.005057440605014563,-0.0039927163161337376,0.01783413253724575
17966916082962,0.7254431247711182,-9.823410034179688,0.8595184087753296,0.010114881210029125,-0.007985432632267475,0.012776692397892475
17966917320137,0.7134721279144287,-9.865307807922363,0.8248025178909302,0.0090501569211483,-0.0114457868039608,0.01463996060192585
17966918557325,0.7003040313720703,-9.877279281616211,0.811634361743927,0.00984870083630085,-0.008251613937318325,0.0186326764523983
17966919794500,0.7015011310577393,-9.84495735168457,0.788889467716217,0.010647243820130825,-0.008251613937318325,0.012776692397892475
17966921031675,0.7158663272857666,-9.876082420349121,0.8236054182052612,0.010114881210029125,-0.0071868896484375,0.010114881210029125
17966922268837,0.7254431247711182,-9.884461402893066,0.8092401623725891,0.007453070487827063,-0.00931633822619915,0.010647243820130825
17966923506025,0.7050924301147461,-9.86770248413086,0.7936778664588928,0.010647243820130825,-0.008517795242369175,0.01597086526453495
17966924743225,0.6835445761680603,-9.926360130310059,0.8307880163192749,0.008251613937318325,-0.00692070834338665,0.013042873702943325
17966925980400,0.7038953304290771,-9.916783332824707,0.811634361743927,0.007985432632267475,-0.0066545275039970875,0.014373779296875
17966927217562,0.6919242739677429,-9.906009674072266,0.8176198601722717,0.005589802749454975,-0.008251613937318325,0.01357523538172245
17966928454750,0.7098808288574219,-9.906009674072266,0.7781155705451965,0.0066545275039970875,-0.00984870083630085,0.014373779296875
17966929691912,0.6991068720817566,-9.938331604003906,0.8403648138046265,0.008783976547420025,-0.0090501569211483,0.01597086526453495
17966930929100,0.6991068720817566,-9.97065258026123,0.8367735147476196,0.0071868896484375,-0.01171196810901165,0.0162370465695858
17966932166275,0.6931213736534119,-9.939528465270996,0.8559271097183228,0.00958251953125,-0.012776692397892475,0.01224433071911335
17966933403437,0.690727174282074,-9.911994934082031,0.8200140595436096,0.0042588976211845875,-0.0066545275039970875,0.013042873702943325
17966934640625,0.7158663272857666,-9.952696800231934,0.8595184087753296,0.0063883461989462376,-0.010114881210029125,0.01357523538172245
17966935877812,0.6943184733390808,-9.93593692779541,0.8271967172622681,0.008251613937318325,-0.012776692397892475,0.0119781494140625
17966937114975,0.6979097723960876,-9.941922187805176,0.8786720037460327,0.0029279920272529125,-0.010913425125181675,0.010647243820130825
17966938352150,0.7230489253997803,-9.894038200378418,0.8104372620582581,0.0007985432748682797,-0.010114881210029125,0.00958251953125
17966939589325,0.706289529800415,-9.913191795349121,0.8547300100326538,0.005057440605014563,-0.0063883461989462376,0.013042873702943325
17966940826525,0.7194576263427734,-9.921571731567383,0.8379706144332886,0.0018632676219567657,-0.008251613937318325,0.0114457868039608
17966942063687,0.6931213736534119,-9.926360130310059,0.8523358106613159,0.0002661811013240367,-0.006122165359556675,0.005855984054505825
17966943300862,0.6835445761680603,-9.929951667785645,0.8391677141189575,0.0,-0.0063883461989462376,0.0077192517928779125
17966944538037,0.7003040313720703,-9.870096206665039,0.790086567401886,-0.0005323622026480734,-0.0037265352439135313,0.006122165359556675
17966945775200,0.6811503767967224,-9.919178009033203,0.8104372620582581,-0.0005323622026480734,-0.0063883461989462376,0.0077192517928779125
17966947012387,0.6751648783683777,-9.86770248413086,0.7936778664588928,-0.0026618109550327063,-0.0090501569211483,0.005855984054505825
17966948249575,0.6787561774253845,-9.871294021606445,0.7912836670875549,-0.0039927163161337376,-0.00931633822619915,0.0063883461989462376
17966949486750,0.6931213736534119,-9.883264541625977,0.812831461429596,0.0015970865497365594,-0.0114457868039608,0.0010647244052961469
17966950723925,0.6715735793113708,-9.850942611694336,0.8200140595436096,-0.0013309054775163531,-0.00692070834338665,0.0015970865497365594
17966951961100,0.6727706789970398,-9.860519409179688,0.8307880163192749,-0.005855984054505825,-0.006122165359556675,-0.0037265352439135313
17966953198275,0.7182605266571045,-9.907206535339355,0.790086567401886,0.0013309054775163531,-0.0063883461989462376,-0.0007985432748682797
17966954435450,0.6883329749107361,-9.890447616577148,0.8439561128616333,0.0,-0.010913425125181675,0.0023956298828125
17966955672650,0.6835445761680603,-9.892841339111328,0.8212112188339233,-0.00984870083630085,-0.0039927163161337376,0.0018632676219567657
17966956909800,0.6991068720817566,-9.864110946655273,0.8104372620582581,-0.00931633822619915,-0.0042588976211845875,-0.0007985432748682797
17966958146987,0.7050924301147461,-9.821015357971191,0.812831461429596,-0.008251613937318325,-0.00692070834338665,0.0015970865497365594
17966959384162,0.7218518257141113,-9.891644477844238,0.8236054182052612,-0.012776692397892475,-0.008517795242369175,-0.005855984054505825
17966960621325,0.7158663272857666,-9.892841339111328,0.8104372620582581,-0.013042873702943325,-0.012510511092841625,-0.0015970865497365594
17966961858500,0.7098808288574219,-9.9000244140625,0.8307880163192749,-0.0090501569211483,-0.01117960549890995,-0.006122165359556675
17966963095700,0.6380547285079956,-9.870096206665039,0.8044517636299133,-0.012510511092841625,-0.0037265352439135313,-0.008517795242369175
17966964332862,0.6751648783683777,-9.853337287902832,0.811634361743927,-0.013042873702943325,-0.005589802749454975,-0.006122165359556675
17966965570025,0.6955155730247498,-9.8784761428833,0.8020575642585754,-0.0114457868039608,-0.00931633822619915,-0.008783976547420025
17966966807212,0.6883329749107361,-9.861717224121094,0.8044517636299133,-0.012510511092841625,-0.01224433071911335,-0.010114881210029125
17966968044412,0.689530074596405,-9.858125686645508,0.8176198601722717,-0.015438503585755825,-0.007985432632267475,-0.008517795242369175
17966969281562,0.6883329749107361,-9.877279281616211,0.788889467716217,-0.01171196810901165,-0.003460354171693325,-0.01224433071911335
17966970518750,0.6811503767967224,-9.849745750427246,0.7625532746315002,-0.014906140975654125,-0.0114457868039608,-0.01171196810901165
17966971755937,0.7110779285430908,-9.84256362915039,0.7817068696022034,-0.015438503585755825,-0.008251613937318325,-0.0119781494140625
17966972993112,0.6787561774253845,-9.86650562286377,0.7972691655158997,-0.015438503585755825,-0.0037265352439135313,-0.01463996060192585
17966974230287,0.7015011310577393,-9.906009674072266,0.8547300100326538,-0.0196974016726017,-0.0010647244052961469,-0.008251613937318325
17966975467462,0.7050924301147461,-9.836577415466309,0.7924807667732239,-0.0167694091796875,-0.0026618109550327063,-0.008251613937318325
17966976704637,0.7003040313720703,-9.84376049041748,0.7960720658302307,-0.0157046839594841,-0.0077192517928779125,-0.01357523538172245
17966977941825,0.7206547260284424,-9.849745750427246,0.7948749661445618,-0.01836649514734745,-0.008251613937318325,-0.0119781494140625
17966979179000,0.7098808288574219,-9.84495735168457,0.8224083185195923,-0.01410759799182415,-0.008517795242369175,-0.013042873702943325
17966980416175,0.7481880187988281,-9.818621635437012,0.8092401623725891,-0.014373779296875,-0.005855984054505825,-0.0071868896484375
17966981653350,0.730231523513794,-9.836577415466309,0.8068459630012512,-0.01117960549890995,-0.0026618109550327063,-0.008251613937318325
17966982890512,0.7481880187988281,-9.81024169921875,0.8068459630012512,-0.01597086526453495,-0.0042588976211845875,-0.0090501569211483
17966984127675,0.7757213711738586,-9.786299705505371,0.8224083185195923,-0.01357523538172245,-0.0037265352439135313,-0.00692070834338665
17966985364887,0.7230489253997803,-9.780314445495605,0.8008604645729065,-0.014373779296875,-0.004791259765625,-0.0063883461989462376
17966986602037,0.7422025203704834,-9.758766174316406,0.8080430626869202,-0.0138414166867733,-0.004791259765625,-0.00692070834338665
17966987839212,0.7565677165985107,-9.762357711791992,0.8164227604866028,-0.007453070487827063,-0.0015970865497365594,-0.0053236219100654125
17966989076412,0.7086837291717529,-9.709685325622559,0.8307880163192749,-0.0066545275039970875,-0.0015970865497365594,-0.005589802749454975
17966990313575,0.7026982307434082,-9.732430458068848,0.7972691655158997,-0.006122165359556675,0.0,-0.0077192517928779125
17966991550750,0.729034423828125,-9.756372451782227,0.8140285611152649,-0.0090501569211483,0.0021294488105922937,-0.0066545275039970875
17966992787925,0.7350199222564697,-9.725247383117676,0.8152256608009338,-0.0031941730994731188,-0.0013309054775163531,-0.0023956298828125
17966994025112,0.7134721279144287,-9.706093788146973,0.8236054182052612,0.0021294488105922937,-0.0018632676219567657,0.0007985432748682797
17966995262287,0.7230489253997803,-9.690531730651855,0.8032546639442444,-0.0002661811013240367,0.0,0.0
17966996499462,0.7230489253997803,-9.724050521850586,0.7960720658302307,-0.0010647244052961469,0.0010647244052961469,-0.0031941730994731188
17966997736650,0.729034423828125,-9.690531730651855,0.7649474740028381,0.0007985432748682797,-0.0021294488105922937,-0.0005323622026480734
17966998973812,0.7410054206848145,-9.696516990661621,0.8056488633155823,-0.0023956298828125,0.0013309054775163531,0.003460354171693325
17967000211000,0.7350199222564697,-9.702502250671387,0.7709329724311829,-0.0013309054775163531,0.0013309054775163531,-0.0015970865497365594
17967001448162,0.7110779285430908,-9.714473724365234,0.7948749661445618,0.006122165359556675,-0.0005323622026480734,0.0015970865497365594
17967002685337,0.751779317855835,-9.68933391571045,0.7852981686592102,0.0042588976211845875,-0.0021294488105922937,0.0039927163161337376
17967003922525,0.7338228225708008,-9.708487510681152,0.7924807667732239,0.006122165359556675,0.0013309054775163531,0.010381062515079975
17967005159712,0.751779317855835,-9.700108528137207,0.8008604645729065,0.00958251953125,0.008251613937318325,0.00931633822619915
17967006396887,0.7398083209991455,-9.726444244384766,0.7948749661445618,0.006122165359556675,0.0071868896484375,0.010647243820130825
17967007634050,0.7146692276000977,-9.690531730651855,0.790086567401886,0.006122165359556675,0.0015970865497365594,0.010381062515079975
17967008871225,0.7050924301147461,-9.72285270690918,0.8032546639442444,0.008251613937318325,0.0021294488105922937,0.007453070487827063
17967010108412,0.7134721279144287,-9.740809440612793,0.7876923680305481,0.00984870083630085,0.0031941730994731188,0.0063883461989462376
17967011345587,0.729034423828125,-9.783905029296875,0.7709329724311829,0.010114881210029125,0.0021294488105922937,0.007985432632267475
17967012582775,0.730231523513794,-9.726444244384766,0.7805097699165344,0.010381062515079975,0.0029279920272529125,0.0066545275039970875
17967013819950,0.7529764175415039,-9.732430458068848,0.7817068696022034,0.0077192517928779125,-0.0007985432748682797,0.0090501569211483
17967015057100,0.7194576263427734,-9.758766174316406,0.7481880187988281,0.01597086526453495,0.0021294488105922937,0.015172322280704975
17967016294287,0.7182605266571045,-9.740809440612793,0.7733271718025208,0.0191650390625,0.0042588976211845875,0.008783976547420025
17967017531475,0.730231523513794,-9.75158405303955,0.767341673374176,0.0167694091796875,0.0002661811013240367,0.015438503585755825
17967018768650,0.730231523513794,-9.744400978088379,0.8176198601722717,0.012776692397892475,0.003460354171693325,0.013042873702943325
17967020005825,0.7242460250854492,-9.733627319335938,0.8331822156906128,0.0138414166867733,0.00452507846057415,0.012776692397892475
17967021243012,0.6919242739677429,-9.7420072555542,0.7972691655158997,0.015438503585755825,0.0037265352439135313,0.010647243820130825
17967022480187,0.7422025203704834,-9.75158405303955,0.768538773059845,0.01357523538172245,0.0071868896484375,0.0114457868039608
17967023717362,0.7158663272857666,-9.712079048156738,0.7637503743171692,0.0181003138422966,0.0077192517928779125,0.0138414166867733
17967024954525,0.730231523513794,-9.733627319335938,0.7960720658302307,0.01783413253724575,0.005855984054505825,0.00984870083630085
17967026191712,0.6787561774253845,-9.762357711791992,0.7757213711738586,0.01996358297765255,0.008517795242369175,0.00984870083630085
17967027428900,0.7445967197418213,-9.780314445495605,0.7757213711738586,0.0167694091796875,0.0119781494140625,0.014906140975654125
17967028666062,0.707486629486084,-9.762357711791992,0.7960720658302307,0.01597086526453495,0.00958251953125,0.013042873702943325
17967029903237,0.730231523513794,-9.763554573059082,0.7493851184844971,0.01836649514734745,0.0077192517928779125,0.012510511092841625
17967031140425,0.7709329724311829,-9.745597839355469,0.7637503743171692,0.0157046839594841,0.01224433071911335,0.0119781494140625
17967032377587,0.7457938194274902,-9.799468040466309,0.7876923680305481,0.0157046839594841,0.010647243820130825,0.0138414166867733
17967033614775,0.7625532746315002,-9.791088104248047,0.8248025178909302,0.01783413253724575,0.008251613937318325,0.01463996060192585
17967034851937,0.7433996200561523,-9.77791976928711,0.768538773059845,0.01597086526453495,0.0090501569211483,0.01597086526453495
17967036089137,0.7553706169128418,-9.797073364257812,0.7852981686592102,0.01650322787463665,0.0071868896484375,0.014373779296875
17967037326300,0.7338228225708008,-9.767146110534668,0.7841010689735413,0.015172322280704975,0.0157046839594841,0.0037265352439135313
17967038563487,0.7350199222564697,-9.744400978088379,0.7781155705451965,0.01650322787463665,0.0173017717897892,0.005855984054505825
17967039800662,0.7350199222564697,-9.771934509277344,0.8271967172622681,0.01996358297765255,0.010913425125181675,0.0167694091796875
17967041037837,0.727837324142456,-9.806650161743164,0.7864952683448792,0.0173017717897892,0.013309055007994175,0.012510511092841625
17967042275012,0.7457938194274902,-9.822212219238281,0.7912836670875549,0.01357523538172245,0.010381062515079975,0.013042873702943325
17967043512200,0.7541735172271729,-9.75397777557373,0.811634361743927,0.01836649514734745,0.006122165359556675,0.01597086526453495
17967044749387,0.7230489253997803,-9.75517463684082,0.8403648138046265,0.015172322280704975,0.013042873702943325,0.010913425125181675
17967045986537,0.7457938194274902,-9.792284965515137,0.8307880163192749,0.0173017717897892,0.00958251953125,0.01703559048473835
17967047223725,0.7829039692878723,-9.791088104248047,0.8212112188339233,0.02076212503015995,0.005589802749454975,0.01783413253724575
17967048460912,0.768538773059845,-9.794679641723633,0.8427590131759644,0.01756795309484005,0.015438503585755825,0.0114457868039608
17967049698075,0.7733271718025208,-9.794679641723633,0.7948749661445618,0.01703559048473835,0.0119781494140625,0.015438503585755825
17967050935250,0.7493851184844971,-9.789891242980957,0.7912836670875549,0.014373779296875,0.008251613937318325,0.0173017717897892
17967052172437,0.7553706169128418,-9.805453300476074,0.7936778664588928,0.01889885775744915,0.01117960549890995,0.0157046839594841
17967053409612,0.7374141216278076,-9.793481826782227,0.8152256608009338,0.0228915736079216,0.010647243820130825,0.015172322280704975
17967054646800,0.7541735172271729,-9.787496566772461,0.8212112188339233,0.01889885775744915,0.007453070487827063,0.0162370465695858
17967055883962,0.7553706169128418,-9.830592155456543,0.8044517636299133,0.012510511092841625,0.00931633822619915,0.01463996060192585
17967057121162,0.7697358727455139,-9.773131370544434,0.8008604645729065,0.0186326764523983,0.007453070487827063,0.014906140975654125
17967058358312,0.768538773059845,-9.773131370544434,0.8176198601722717,0.01943122036755085,0.010114881210029125,0.010381062515079975
17967059595500,0.7553706169128418,-9.818621635437012,0.8798691034317017,0.02022976242005825,0.01117960549890995,0.013309055007994175
17967060832675,0.7565677165985107,-9.813833236694336,0.8607155084609985,0.02502102218568325,0.005855984054505825,0.01597086526453495
17967062069837,0.7793126702308655,-9.819818496704102,0.8547300100326538,0.0223592109978199,0.0039927163161337376,0.0119781494140625
17967063307025,0.7661445736885071,-9.829395294189453,0.8403648138046265,0.01943122036755085,0.0063883461989462376,0.008517795242369175
17967064544212,0.812831461429596,-9.792284965515137,0.8152256608009338,0.0162370465695858,0.006122165359556675,0.008517795242369175
17967065781387,0.8152256608009338,-9.815030097961426,0.8224083185195923,0.02182685025036335,0.0002661811013240367,0.01224433071911335
17967067018550,0.7924807667732239,-9.865307807922363,0.8068459630012512,0.02555338479578495,0.0018632676219567657,0.01889885775744915
17967068255725,0.7589619159698486,-9.795876502990723,0.8236054182052612,0.0210283063352108,0.0018632676219567657,0.01463996060192585
17967069492887,0.7637503743171692,-9.828198432922363,0.8188169598579407,0.01943122036755085,0.0002661811013240367,0.013309055007994175
17967070730087,0.7589619159698486,-9.860519409179688,0.8667010068893433,0.02129448764026165,-0.0015970865497365594,0.01224433071911335
17967071967262,0.7948749661445618,-9.870096206665039,0.8547300100326538,0.0186326764523983,0.0042588976211845875,0.01224433071911335
17967073204450,0.7876923680305481,-9.800664901733398,0.8307880163192749,0.02129448764026165,0.005589802749454975,0.0119781494140625
17967074441625,0.7637503743171692,-9.827000617980957,0.8463503122329712,0.02315775491297245,0.0029279920272529125,0.00931633822619915
17967075678800,0.7529764175415039,-9.794679641723633,0.8523358106613159,0.0181003138422966,0.0031941730994731188,0.0077192517928779125
17967076915962,0.7924807667732239,-9.836577415466309,0.8367735147476196,0.02129448764026165,-0.0018632676219567657,0.01224433071911335
17967078153150,0.790086567401886,-9.84376049041748,0.8571242094039917,0.0210283063352108,0.0021294488105922937,0.012510511092841625
17967079390325,0.7565677165985107,-9.830592155456543,0.8547300100326538,0.023956298828125,-0.003460354171693325,0.010913425125181675
17967080627500,0.7733271718025208,-9.827000617980957,0.8331822156906128,0.02182685025036335,-0.0018632676219567657,0.0138414166867733
17967081864675,0.8056488633155823,-9.841365814208984,0.849941611289978,0.01996358297765255,-0.00452507846057415,0.008251613937318325
17967083101837,0.7948749661445618,-9.806650161743164,0.8702923059463501,0.0228915736079216,-0.010381062515079975,0.0119781494140625
17967084339037,0.7864952683448792,-9.837775230407715,0.8667010068893433,0.01410759799182415,-0.0015970865497365594,0.012510511092841625
17967085576225,0.7817068696022034,-9.860519409179688,0.889445960521698,0.010114881210029125,-0.0029279920272529125,0.01357523538172245
17967086813387,0.7841010689735413,-9.849745750427246,0.8056488633155823,0.02076212503015995,-0.0053236219100654125,0.0114457868039608
17967088050562,0.788889467716217,-9.860519409179688,0.8451532125473022,0.0196974016726017,-0.008517795242369175,0.010913425125181675
17967089287737,0.7601590752601624,-9.871294021606445,0.8690952062606812,0.015438503585755825,-0.010114881210029125,0.0077192517928779125
17967090524925,0.8008604645729065,-9.86650562286377,0.8343793153762817,0.015172322280704975,-0.0119781494140625,0.0053236219100654125
17967091762100,0.788889467716217,-9.853337287902832,0.8667010068893433,0.0191650390625,-0.007985432632267475,0.0077192517928779125
17967092999287,0.811634361743927,-9.834183692932129,0.8858546614646912,0.01597086526453495,-0.010381062515079975,0.010114881210029125
17967094236450,0.8140285611152649,-9.872490882873535,0.9097966551780701,0.01836649514734745,-0.010114881210029125,0.01117960549890995
17967095473612,0.7733271718025208,-9.81143856048584,0.8583213090896606,0.013042873702943325,-0.0063883461989462376,0.0066545275039970875
17967096710800,0.7972691655158997,-9.832986831665039,0.912190854549408,0.010647243820130825,-0.0138414166867733,0.010913425125181675
17967097947950,0.7493851184844971,-9.876082420349121,0.851138710975647,0.01943122036755085,-0.015438503585755825,0.00958251953125
17967099185162,0.7565677165985107,-9.84256362915039,0.8786720037460327,0.0173017717897892,-0.0162370465695858,0.01357523538172245
17967100422325,0.7565677165985107,-9.872490882873535,0.8846575617790222,0.013042873702943325,-0.0204959437251091,0.003460354171693325
17967101659512,0.7469909191131592,-9.87967300415039,0.9085995554924011,0.015438503585755825,-0.01783413253724575,0.005057440605014563
17967102896700,0.7553706169128418,-9.865307807922363,0.8487445116043091,0.0181003138422966,-0.01410759799182415,0.013042873702943325
17967104133862,0.7433996200561523,-9.841365814208984,0.8655039072036743,0.01463996060192585,-0.0167694091796875,0.010647243820130825
17967105371037,0.8032546639442444,-9.855731010437012,0.872686505317688,0.015438503585755825,-0.01836649514734745,0.012510511092841625
17967106608225,0.7350199222564697,-9.856928825378418,0.8535329103469849,0.0210283063352108,-0.0252872034907341,0.01597086526453495
17967107845375,0.7709329724311829,-9.86889934539795,0.8307880163192749,0.01597086526453495,-0.01943122036755085,0.00984870083630085
17967109082575,0.7601590752601624,-9.850942611694336,0.8750807046890259,0.01410759799182415,-0.01597086526453495,0.010913425125181675
17967110319750,0.7601590752601624,-9.898826599121094,0.8906430602073669,0.01463996060192585,-0.02076212503015995,0.0114457868039608
17967111556925,0.7565677165985107,-9.885659217834473,0.8918401598930359,0.015438503585755825,-0.02555338479578495,0.010114881210029125
17967112794100,0.7410054206848145,-9.873687744140625,0.8595184087753296,0.0167694091796875,-0.02608574740588665,0.0114457868039608
17967114031275,0.7661445736885071,-9.872490882873535,0.8738836050033569,0.01357523538172245,-0.0263519287109375,0.008783976547420025
17967115268437,0.7433996200561523,-9.895236015319824,0.8678981065750122,0.01410759799182415,-0.0247548408806324,0.00931633822619915
17967116505637,0.7469909191131592,-9.883264541625977,0.8259996175765991,0.014373779296875,-0.02315775491297245,0.0026618109550327063
17967117742812,0.7158663272857666,-9.874884605407715,0.8870517611503601,0.0119781494140625,-0.0223592109978199,0.004791259765625
17967118979987,0.7649474740028381,-9.871294021606445,0.8535329103469849,0.013042873702943325,-0.0223592109978199,0.0063883461989462376
17967120217150,0.7565677165985107,-9.847352027893066,0.8559271097183228,0.01410759799182415,-0.02901373989880085,0.005589802749454975
17967121454337,0.7649474740028381,-9.895236015319824,0.8762778043746948,0.0167694091796875,-0.02422248013317585,0.005057440605014563
17967122691512,0.7481880187988281,-9.87967300415039,0.8822633624076843,0.014373779296875,-0.0204959437251091,0.0005323622026480734
17967123928712,0.7386112213134766,-9.883264541625977,0.8595184087753296,0.0157046839594841,-0.02608574740588665,0.0005323622026480734
17967125165875,0.6991068720817566,-9.920374870300293,0.8463503122329712,0.01117960549890995,-0.02369011752307415,0.006122165359556675
17967126403037,0.7398083209991455,-9.898826599121094,0.8798691034317017,0.0063883461989462376,-0.0167694091796875,0.005589802749454975
17967127640237,0.706289529800415,-9.880870819091797,0.8738836050033569,0.012776692397892475,-0.02022976242005825,0.0053236219100654125
17967128877400,0.690727174282074,-9.849745750427246,0.8954314589500427,0.00984870083630085,-0.0263519287109375,0.0023956298828125
17967130114600,0.7098808288574219,-9.932345390319824,0.8774749040603638,0.010114881210029125,-0.02315775491297245,0.004791259765625
17967131351762,0.7194576263427734,-9.897629737854004,0.8571242094039917,0.010647243820130825,-0.0191650390625,0.0037265352439135313
17967132588925,0.7206547260284424,-9.892841339111328,0.8391677141189575,0.00958251953125,-0.01889885775744915,0.0010647244052961469
17967133826112,0.7254431247711182,-9.908403396606445,0.8595184087753296,0.007453070487827063,-0.02022976242005825,0.0021294488105922937
17967135063275,0.7649474740028381,-9.894038200378418,0.8643068075180054,0.0077192517928779125,-0.02608574740588665,0.0077192517928779125
17967136300450,0.689530074596405,-9.90122127532959,0.872686505317688,0.0090501569211483,-0.0271504707634449,0.005057440605014563
17967137537650,0.6943184733390808,-9.86889934539795,0.849941611289978,0.003460354171693325,-0.0186326764523983,0.0005323622026480734
17967138774812,0.7242460250854492,-9.882067680358887,0.8667010068893433,0.003460354171693325,-0.02022976242005825,0.0
17967140011987,0.6835445761680603,-9.874884605407715,0.8822633624076843,0.006122165359556675,-0.01943122036755085,0.0037265352439135313
17967141249175,0.6979097723960876,-9.882067680358887,0.8858546614646912,0.0071868896484375,-0.0234239362180233,0.010647243820130825
17967142486325,0.6548141837120056,-9.892841339111328,0.8619126081466675,0.00452507846057415,-0.02182685025036335,0.00984870083630085
17967143723525,0.6859387755393982,-9.856928825378418,0.8786720037460327,0.004791259765625,-0.0244886614382267,0.005057440605014563
17967144960700,0.7326257228851318,-9.860519409179688,0.8858546614646912,0.0029279920272529125,-0.0204959437251091,0.0042588976211845875
17967146197887,0.7015011310577393,-9.8784761428833,0.8870517611503601,0.010381062515079975,-0.0162370465695858,0.00692070834338665
17967147435050,0.6703764796257019,-9.860519409179688,0.8846575617790222,0.0037265352439135313,-0.0181003138422966,0.0026618109550327063
17967148672237,0.6979097723960876,-9.832986831665039,0.8643068075180054,0.0015970865497365594,-0.01783413253724575,0.0037265352439135313
17967149909400,0.6943184733390808,-9.84495735168457,0.8212112188339233,0.0039927163161337376,-0.0191650390625,0.007985432632267475
17967151146600,0.6560112833976746,-9.850942611694336,0.8954314589500427,0.003460354171693325,-0.0196974016726017,0.0018632676219567657
17967152383775,0.6763619780540466,-9.87967300415039,0.8559271097183228,0.005057440605014563,-0.0167694091796875,0.0042588976211845875
17967153620950,0.706289529800415,-9.816226959228516,0.8738836050033569,0.0018632676219567657,-0.013042873702943325,0.0042588976211845875
17967154858125,0.6967126727104187,-9.81263542175293,0.9026140570640564,0.0026618109550327063,-0.0181003138422966,0.0013309054775163531
17967156095287,0.7218518257141113,-9.870096206665039,0.871489405632019,0.005057440605014563,-0.01117960549890995,0.005589802749454975
17967157332487,0.690727174282074,-9.832986831665039,0.8786720037460327,0.004791259765625,-0.01224433071911335,0.0042588976211845875
17967158569662,0.7146692276000977,-9.783905029296875,0.8798691034317017,0.005855984054505825,-0.0167694091796875,0.0039927163161337376
17967159806825,0.6943184733390808,-9.828198432922363,0.8702923059463501,0.003460354171693325,-0.01597086526453495,0.005855984054505825
17967161044000,0.6739677786827087,-9.828198432922363,0.8702923059463501,-0.0002661811013240367,-0.0119781494140625,0.0037265352439135313
17967162281162,0.707486629486084,-9.77672290802002,0.8427590131759644,-0.0013309054775163531,-0.01171196810901165,-0.0021294488105922937
17967163518362,0.6859387755393982,-9.769539833068848,0.8750807046890259,-0.0018632676219567657,-0.0114457868039608,0.0015970865497365594
17967164755525,0.6991068720817566,-9.770737648010254,0.849941611289978,0.0010647244052961469,-0.0090501569211483,0.0021294488105922937
17967165992712,0.6811503767967224,-9.792284965515137,0.8930372595787048,0.0015970865497365594,-0.004791259765625,0.0023956298828125
17967167229875,0.6991068720817566,-9.765949249267578,0.8248025178909302,-0.0015970865497365594,-0.0066545275039970875,0.005855984054505825
17967168467062,0.6500257849693298,-9.732430458068848,0.8655039072036743,-0.0037265352439135313,-0.004791259765625,0.0029279920272529125
17967169704250,0.6524199843406677,-9.783905029296875,0.8774749040603638,0.0010647244052961469,-0.00958251953125,0.0037265352439135313
17967170941437,0.7158663272857666,-9.781511306762695,0.8583213090896606,0.0015970865497365594,-0.008251613937318325,0.0037265352439135313
17967172178600,0.6596025824546814,-9.774328231811523,0.8236054182052612,0.0013309054775163531,-0.008783976547420025,0.008251613937318325
17967173415812,0.6392518877983093,-9.806650161743164,0.8176198601722717,0.004791259765625,-0.008251613937318325,0.00931633822619915
17967174652962,0.6727706789970398,-9.801861763000488,0.871489405632019,0.0002661811013240367,-0.003460354171693325,0.0039927163161337376
17967175890125,0.6643909811973572,-9.787496566772461,0.8068459630012512,0.0002661811013240367,-0.00452507846057415,0.006122165359556675
17967177127300,0.7110779285430908,-9.827000617980957,0.828393816947937,0.004791259765625,-0.0077192517928779125,0.013042873702943325
17967178364487,0.7134721279144287,-9.827000617980957,0.811634361743927,0.0031941730994731188,-0.00692070834338665,0.01703559048473835
17967179601662,0.7038953304290771,-9.853337287902832,0.8427590131759644,0.0077192517928779125,-0.0015970865497365594,0.00958251953125
17967180838837,0.7266402244567871,-9.849745750427246,0.8451532125473022,0.006122165359556675,-0.0039927163161337376,0.015438503585755825
17967182076012,0.7445967197418213,-9.890447616577148,0.8643068075180054,0.004791259765625,-0.0031941730994731188,0.010114881210029125
17967183313200,0.6955155730247498,-9.849745750427246,0.8523358106613159,0.008783976547420025,-0.0005323622026480734,0.007985432632267475
17967184550387,0.7026982307434082,-9.854534149169922,0.8774749040603638,0.005589802749454975,-0.005589802749454975,0.01463996060192585
17967185787537,0.689530074596405,-9.827000617980957,0.8583213090896606,0.0010647244052961469,-0.005057440605014563,0.013309055007994175
17967187024737,0.7170634269714355,-9.841365814208984,0.9265560507774353,0.0037265352439135313,0.0005323622026480734,0.0167694091796875
17967188261887,0.7206547260284424,-9.853337287902832,0.9074024558067322,0.005855984054505825,-0.0018632676219567657,0.00692070834338665
17967189499087,0.7170634269714355,-9.853337287902832,0.8834604620933533,0.0007985432748682797,-0.0018632676219567657,0.0138414166867733
17967190736262,0.7110779285430908,-9.816226959228516,0.8583213090896606,0.0021294488105922937,-0.0005323622026480734,0.012776692397892475
17967191973437,0.6811503767967224,-9.780314445495605,0.8966285586357117,0.0005323622026480734,0.0023956298828125,0.01224433071911335
17967193210625,0.7003040313720703,-9.789891242980957,0.8930372595787048,0.0026618109550327063,0.0042588976211845875,0.01783413253724575
17967194447775,0.729034423828125,-9.84376049041748,0.8954314589500427,0.0063883461989462376,-0.0013309054775163531,0.01889885775744915
17967195684975,0.6931213736534119,-9.756372451782227,0.8571242094039917,-0.0013309054775163531,-0.0031941730994731188,0.014906140975654125
17967196922162,0.7158663272857666,-9.767146110534668,0.8774749040603638,0.0026618109550327063,-0.00452507846057415,0.015172322280704975
17967198159325,0.7122750282287598,-9.800664901733398,0.8475474119186401,0.0026618109550327063,0.0010647244052961469,0.01703559048473835
17967199396500,0.7386112213134766,-9.771934509277344,0.8583213090896606,-0.0005323622026480734,-0.0010647244052961469,0.0186326764523983
17967200633675,0.7398083209991455,-9.739612579345703,0.8607155084609985,0.01171196810901165,-0.0015970865497365594,0.01597086526453495
17967201870862,0.7589619159698486,-9.783905029296875,0.8331822156906128,0.0037265352439135313,0.0,0.0191650390625
17967203108037,0.729034423828125,-9.824606895446777,0.8535329103469849,0.0013309054775163531,-0.0007985432748682797,0.0204959437251091
17967204345212,0.7266402244567871,-9.797073364257812,0.9014169573783875,0.004791259765625,0.0010647244052961469,0.01703559048473835
17967205582387,0.7158663272857666,-9.794679641723633,0.828393816947937,0.0077192517928779125,-0.0013309054775163531,0.0173017717897892
17967206819562,0.706289529800415,-9.801861763000488,0.8224083185195923,0.0077192517928779125,-0.0010647244052961469,0.01410759799182415
17967208056737,0.7577648162841797,-9.813833236694336,0.8343793153762817,0.007985432632267475,0.0005323622026480734,0.01171196810901165
17967209293925,0.7589619159698486,-9.847352027893066,0.8331822156906128,0.0063883461989462376,-0.0029279920272529125,0.01597086526453495
17967210531087,0.7314286231994629,-9.828198432922363,0.8391677141189575,0.00452507846057415,-0.0039927163161337376,0.0173017717897892
17967211768287,0.6584054827690125,-9.882067680358887,0.8547300100326538,-0.0010647244052961469,0.0002661811013240367,0.01410759799182415
17967213005462,0.727837324142456,-9.889249801635742,0.8056488633155823,0.0,-0.0018632676219567657,0.01117960549890995
17967214242612,0.707486629486084,-9.891644477844238,0.8439561128616333,0.00692070834338665,-0.0023956298828125,0.010913425125181675
17967215479800,0.6943184733390808,-9.872490882873535,0.8104372620582581,0.005589802749454975,-0.0010647244052961469,0.01463996060192585
17967216716975,0.7529764175415039,-9.883264541625977,0.8535329103469849,0.0023956298828125,0.0,0.012776692397892475
17967217954162,0.727837324142456,-9.890447616577148,0.8343793153762817,-0.0013309054775163531,0.0039927163161337376,0.005855984054505825
17967219191337,0.7410054206848145,-9.90241813659668,0.8786720037460327,-0.0023956298828125,0.0029279920272529125,0.0077192517928779125
17967220428500,0.7194576263427734,-9.870096206665039,0.8774749040603638,-0.005589802749454975,0.0007985432748682797,0.005057440605014563
17967221665687,0.7086837291717529,-9.928754806518555,0.8583213090896606,-0.0029279920272529125,-0.0029279920272529125,0.0077192517928779125
17967222902862,0.790086567401886,-9.910798072814941,0.8451532125473022,-0.0026618109550327063,-0.006122165359556675,0.005589802749454975
17967224140050,0.7386112213134766,-9.931148529052734,0.8607155084609985,-0.00984870083630085,-0.0026618109550327063,0.0021294488105922937
17967225377212,0.7481880187988281,-9.90122127532959,0.8463503122329712,-0.0053236219100654125,-0.0013309054775163531,0.0039927163161337376
17967226614400,0.7134721279144287,-9.873687744140625,0.8690952062606812,-0.0090501569211483,0.0007985432748682797,-0.0002661811013240367
17967227851587,0.7350199222564697,-9.895236015319824,0.851138710975647,-0.008517795242369175,0.0,0.0037265352439135313
17967229088762,0.751779317855835,-9.864110946655273,0.8619126081466675,-0.008517795242369175,-0.0063883461989462376,0.0015970865497365594
17967230325937,0.730231523513794,-9.877279281616211,0.8391677141189575,-0.010913425125181675,0.0007985432748682797,0.0010647244052961469
17967231563112,0.7206547260284424,-9.885659217834473,0.8643068075180054,-0.0119781494140625,-0.0007985432748682797,0.0007985432748682797
17967232800287,0.7230489253997803,-9.86889934539795,0.889445960521698,-0.010647243820130825,-0.0021294488105922937,-0.0005323622026480734
17967234037462,0.7386112213134766,-9.860519409179688,0.8379706144332886,-0.008251613937318325,-0.0002661811013240367,-0.0039927163161337376
17967235274637,0.7422025203704834,-9.823410034179688,0.849941611289978,-0.008251613937318325,-0.0037265352439135313,0.0002661811013240367
17967236511825,0.7457938194274902,-9.850942611694336,0.8331822156906128,-0.012510511092841625,-0.0029279920272529125,0.006122165359556675
17967237748987,0.730231523513794,-9.827000617980957,0.8140285611152649,-0.01224433071911335,0.0010647244052961469,0.004791259765625
17967238986175,0.7481880187988281,-9.81263542175293,0.8415619134902954,-0.012510511092841625,-0.0037265352439135313,-0.0029279920272529125
17967240223350,0.7386112213134766,-9.821015357971191,0.8319851160049438,-0.00958251953125,-0.0002661811013240367,-0.0015970865497365594
17967241460525,0.727837324142456,-9.80904483795166,0.8583213090896606,-0.008251613937318325,-0.0002661811013240367,0.003460354171693325
17967242697687,0.7206547260284424,-9.828198432922363,0.872686505317688,-0.0119781494140625,-0.0053236219100654125,0.00692070834338665
17967243934862,0.6919242739677429,-9.825803756713867,0.8487445116043091,-0.00452507846057415,-0.0037265352439135313,0.0063883461989462376
17967245172050,0.7146692276000977,-9.84376049041748,0.8834604620933533,-0.01117960549890995,-0.0018632676219567657,-0.0010647244052961469
17967246409225,0.7649474740028381,-9.822212219238281,0.8655039072036743,-0.01117960549890995,-0.00931633822619915,0.0023956298828125
17967247646400,0.7661445736885071,-9.852140426635742,0.8080430626869202,-0.0042588976211845875,-0.00452507846057415,-0.0015970865497365594
17967248883587,0.7493851184844971,-9.847352027893066,0.8056488633155823,-0.010913425125181675,-0.0029279920272529125,-0.007453070487827063
17967250120775,0.707486629486084,-9.837775230407715,0.8212112188339233,-0.00958251953125,-0.0029279920272529125,-0.0039927163161337376
17967251357937,0.7481880187988281,-9.87967300415039,0.8403648138046265,-0.006122165359556675,0.0002661811013240367,-0.0015970865497365594
17967252595125,0.788889467716217,-9.873687744140625,0.8259996175765991,-0.0071868896484375,-0.0015970865497365594,-0.0018632676219567657
17967253832287,0.7565677165985107,-9.856928825378418,0.8559271097183228,-0.010647243820130825,-0.0023956298828125,-0.0023956298828125
17967255069462,0.7493851184844971,-9.838972091674805,0.8487445116043091,-0.008251613937318325,0.0,0.0018632676219567657
17967256306650,0.7481880187988281,-9.873687744140625,0.8774749040603638,-0.008251613937318325,-0.0053236219100654125,-0.0015970865497365594
17967257543812,0.7386112213134766,-9.907206535339355,0.8355764150619507,-0.006122165359556675,-0.0053236219100654125,-0.0005323622026480734
17967258781000,0.7733271718025208,-9.870096206665039,0.8391677141189575,-0.01357523538172245,-0.0010647244052961469,0.0005323622026480734
17967260018175,0.7781155705451965,-9.858125686645508,0.8487445116043091,-0.012510511092841625,-0.004791259765625,-0.0002661811013240367
17967261255362,0.7805097699165344,-9.841365814208984,0.829590916633606,-0.008783976547420025,-0.004791259765625,0.0015970865497365594
17967262492537,0.7649474740028381,-9.771934509277344,0.8439561128616333,-0.007985432632267475,-0.0015970865497365594,0.005057440605014563
17967263729725,0.750582218170166,-9.805453300476074,0.851138710975647,-0.007453070487827063,-0.00452507846057415,0.0042588976211845875
17967264966900,0.7613561749458313,-9.817423820495605,0.8415619134902954,-0.0119781494140625,-0.007985432632267475,0.005057440605014563
17967266204075,0.7350199222564697,-9.815030097961426,0.8152256608009338,-0.006122165359556675,-0.00984870083630085,-0.0005323622026480734
17967267441237,0.7805097699165344,-9.800664901733398,0.8415619134902954,-0.0042588976211845875,-0.004791259765625,-0.0007985432748682797
17967268678412,0.7266402244567871,-9.787496566772461,0.7852981686592102,-0.0066545275039970875,-0.0077192517928779125,0.0066545275039970875
17967269915587,0.7457938194274902,-9.781511306762695,0.8236054182052612,-0.005057440605014563,-0.005589802749454975,0.0039927163161337376
17967271152787,0.7481880187988281,-9.794679641723633,0.8008604645729065,-0.00692070834338665,-0.0053236219100654125,0.00452507846057415
17967272389937,0.767341673374176,-9.7791166305542,0.8224083185195923,-0.0077192517928779125,-0.010647243820130825,0.008251613937318325
17967273627125,0.7709329724311829,-9.825803756713867,0.7972691655158997,-0.0031941730994731188,-0.00692070834338665,0.00931633822619915
17967274864325,0.7218518257141113,-9.807847023010254,0.8248025178909302,-0.0031941730994731188,-0.006122165359556675,0.0114457868039608
17967276101475,0.7158663272857666,-9.807847023010254,0.7757213711738586,-0.0066545275039970875,-0.007453070487827063,0.008517795242369175
17967277338662,0.7553706169128418,-9.795876502990723,0.8403648138046265,-0.0039927163161337376,-0.0071868896484375,0.010647243820130825
17967278575825,0.7122750282287598,-9.824606895446777,0.828393816947937,-0.0023956298828125,-0.00984870083630085,0.007453070487827063
17967279813012,0.7003040313720703,-9.805453300476074,0.7817068696022034,-0.005057440605014563,-0.0018632676219567657,0.0
17967281050200,0.7589619159698486,-9.815030097961426,0.8140285611152649,-0.008251613937318325,0.0002661811013240367,0.0005323622026480734
17967282287375,0.7721300721168518,-9.829395294189453,0.8152256608009338,-0.0066545275039970875,-0.0026618109550327063,0.008251613937318325
17967283524550,0.7745242714881897,-9.819818496704102,0.7948749661445618,0.0002661811013240367,-0.0042588976211845875,0.0138414166867733
17967284761725,0.7194576263427734,-9.822212219238281,0.8307880163192749,0.003460354171693325,-0.010114881210029125,0.008517795242369175
17967285998912,0.7481880187988281,-9.825803756713867,0.8056488633155823,-0.0042588976211845875,-0.00958251953125,0.010913425125181675
17967287236087,0.7170634269714355,-9.86889934539795,0.8236054182052612,-0.007453070487827063,-0.0018632676219567657,0.01117960549890995
17967288473262,0.7601590752601624,-9.823410034179688,0.8008604645729065,-0.00692070834338665,-0.0039927163161337376,0.0066545275039970875
17967289710437,0.767341673374176,-9.84495735168457,0.8152256608009338,-0.0031941730994731188,-0.0053236219100654125,0.008517795242369175
17967290947625,0.7529764175415039,-9.841365814208984,0.8367735147476196,-0.0031941730994731188,-0.0053236219100654125,0.01171196810901165
17967292184787,0.7541735172271729,-9.894038200378418,0.8547300100326538,-0.0005323622026480734,-0.007453070487827063,0.010381062515079975
17967293421962,0.7254431247711182,-9.856928825378418,0.8523358106613159,-0.0018632676219567657,-0.0018632676219567657,0.01224433071911335
17967294659150,0.7577648162841797,-9.81263542175293,0.8583213090896606,-0.0063883461989462376,-0.0053236219100654125,0.01357523538172245
17967295896337,0.7194576263427734,-9.835380554199219,0.8427590131759644,-0.0018632676219567657,-0.005057440605014563,0.012776692397892475
17967297133487,0.7338228225708008,-9.78869342803955,0.8236054182052612,-0.0005323622026480734,-0.0071868896484375,0.008783976547420025
17967298370675,0.7410054206848145,-9.781511306762695,0.811634361743927,-0.0029279920272529125,-0.0090501569211483,0.008517795242369175
17967299607850,0.7386112213134766,-9.77672290802002,0.8439561128616333,-0.0010647244052961469,-0.0029279920272529125,0.01463996060192585
17967300845050,0.7577648162841797,-9.771934509277344,0.8032546639442444,-0.0002661811013240367,-0.005057440605014563,0.01357523538172245
17967302082212,0.7015011310577393,-9.78869342803955,0.7769184708595276,-0.0018632676219567657,-0.0037265352439135313,0.010114881210029125
17967303319375,0.7338228225708008,-9.781511306762695,0.7936778664588928,-0.0010647244052961469,-0.005589802749454975,0.0119781494140625
17967304556562,0.750582218170166,-9.795876502990723,0.8236054182052612,-0.0005323622026480734,-0.0031941730994731188,0.015172322280704975
17967305793737,0.6991068720817566,-9.798270225524902,0.8355764150619507,-0.0007985432748682797,-0.005589802749454975,0.0114457868039608
17967307030925,0.6835445761680603,-9.804256439208984,0.8391677141189575,-0.0013309054775163531,-0.004791259765625,0.013309055007994175
17967308268100,0.7134721279144287,-9.771934509277344,0.872686505317688,0.0029279920272529125,-0.005589802749454975,0.01463996060192585
17967309505262,0.690727174282074,-9.781511306762695,0.7805097699165344,0.0042588976211845875,-0.0071868896484375,0.01171196810901165
17967310742462,0.6967126727104187,-9.738415718078613,0.8056488633155823,-0.0015970865497365594,-0.0007985432748682797,0.015438503585755825
17967311979625,0.7362170219421387,-9.769539833068848,0.7960720658302307,0.0013309054775163531,-0.005057440605014563,0.0167694091796875
17967313216800,0.7433996200561523,-9.783905029296875,0.8056488633155823,0.0029279920272529125,-0.00452507846057415,0.01650322787463665
17967314453987,0.750582218170166,-9.767146110534668,0.8535329103469849,0.0023956298828125,-0.0037265352439135313,0.015172322280704975
17967315691162,0.7110779285430908,-9.817423820495605,0.8164227604866028,-0.0013309054775163531,-0.0010647244052961469,0.01117960549890995
17967316928337,0.6991068720817566,-9.75158405303955,0.788889467716217,-0.0018632676219567657,-0.0013309054775163531,0.0167694091796875
17967318165512,0.7122750282287598,-9.813833236694336,0.8236054182052612,0.0015970865497365594,-0.0026618109550327063,0.01463996060192585
17967319402700,0.7218518257141113,-9.768342971801758,0.8595184087753296,0.0007985432748682797,-0.0037265352439135313,0.01463996060192585
17967320639875,0.7218518257141113,-9.75397777557373,0.8379706144332886,0.0021294488105922937,-0.0053236219100654125,0.013309055007994175
17967321877050,0.729034423828125,-9.803058624267578,0.851138710975647,0.0053236219100654125,-0.00452507846057415,0.01171196810901165
17967323114225,0.6919242739677429,-9.761160850524902,0.8379706144332886,0.0026618109550327063,0.0023956298828125,0.00984870083630085
17967324351412,0.7433996200561523,-9.767146110534668,0.828393816947937,-0.0007985432748682797,-0.0005323622026480734,0.010647243820130825
17967325588587,0.6967126727104187,-9.783905029296875,0.812831461429596,0.0,-0.003460354171693325,0.012510511092841625
17967326825737,0.7134721279144287,-9.750386238098145,0.8571242094039917,0.0013309054775163531,-0.0029279920272529125,0.015438503585755825
17967328062937,0.7266402244567871,-9.797073364257812,0.7972691655158997,0.006122165359556675,0.0015970865497365594,0.008251613937318325
17967329300125,0.7613561749458313,-9.800664901733398,0.8140285611152649,0.0077192517928779125,-0.0037265352439135313,0.014906140975654125
17967330537287,0.7386112213134766,-9.770737648010254,0.8140285611152649,0.0021294488105922937,-0.003460354171693325,0.013042873702943325
17967331774450,0.7613561749458313,-9.771934509277344,0.8786720037460327,0.0037265352439135313,-0.0005323622026480734,0.010381062515079975
17967333011650,0.7469909191131592,-9.761160850524902,0.8379706144332886,0.0053236219100654125,0.0007985432748682797,0.012776692397892475
17967334248800,0.7206547260284424,-9.787496566772461,0.8152256608009338,0.005855984054505825,-0.004791259765625,0.01117960549890995
17967335486000,0.707486629486084,-9.791088104248047,0.8355764150619507,0.004791259765625,0.0029279920272529125,0.01357523538172245
17967336723175,0.7086837291717529,-9.822212219238281,0.8487445116043091,0.0007985432748682797,0.0002661811013240367,0.00958251953125
17967337960350,0.7433996200561523,-9.817423820495605,0.8595184087753296,0.0042588976211845875,-0.0010647244052961469,0.012776692397892475
17967339197525,0.727837324142456,-9.781511306762695,0.790086567401886,0.0039927163161337376,-0.0018632676219567657,0.01597086526453495
17967340434700,0.7170634269714355,-9.80904483795166,0.812831461429596,0.0021294488105922937,-0.0007985432748682797,0.015438503585755825
17967341671887,0.7266402244567871,-9.81024169921875,0.7948749661445618,0.0063883461989462376,-0.0007985432748682797,0.0119781494140625
17967342909087,0.6871358752250671,-9.80904483795166,0.8583213090896606,0.005589802749454975,-0.0021294488105922937,0.015438503585755825
17967344146250,0.6859387755393982,-9.836577415466309,0.8271967172622681,0.010381062515079975,0.0010647244052961469,0.008783976547420025
17967345383425,0.6931213736534119,-9.781511306762695,0.8571242094039917,0.006122165359556675,-0.005855984054505825,0.010913425125181675
17967346620587,0.7038953304290771,-9.787496566772461,0.8523358106613159,0.0005323622026480734,0.0007985432748682797,0.0090501569211483
17967347857775,0.7015011310577393,-9.795876502990723,0.8559271097183228,0.00452507846057415,0.004791259765625,0.014373779296875
17967349094962,0.7134721279144287,-9.771934509277344,0.9074024558067322,0.0066545275039970875,-0.0021294488105922937,0.01357523538172245
17967350332125,0.7086837291717529,-9.783905029296875,0.8008604645729065,0.0,-0.00692070834338665,0.008251613937318325
17967351569300,0.7350199222564697,-9.78869342803955,0.8451532125473022,0.0023956298828125,-0.0021294488105922937,0.0077192517928779125
17967352806487,0.7457938194274902,-9.771934509277344,0.8331822156906128,0.01224433071911335,-0.0053236219100654125,0.013309055007994175
17967354043637,0.7398083209991455,-9.818621635437012,0.8559271097183228,0.00931633822619915,-0.0021294488105922937,0.012510511092841625
17967355280825,0.7338228225708008,-9.822212219238281,0.8451532125473022,0.004791259765625,0.0002661811013240367,0.008783976547420025
17967356518012,0.7242460250854492,-9.816226959228516,0.8391677141189575,0.00958251953125,0.0,0.004791259765625
17967357755200,0.6847416758537292,-9.806650161743164,0.8307880163192749,0.008517795242369175,-0.0010647244052961469,0.0037265352439135313
17967358992375,0.7362170219421387,-9.799468040466309,0.8655039072036743,0.006122165359556675,-0.00692070834338665,0.0031941730994731188
17967360229550,0.7422025203704834,-9.75517463684082,0.8523358106613159,0.0063883461989462376,-0.004791259765625,0.0002661811013240367
17967361466725,0.7194576263427734,-9.795876502990723,0.8678981065750122,0.005057440605014563,-0.0031941730994731188,-0.0005323622026480734
17967362703887,0.7266402244567871,-9.789891242980957,0.8224083185195923,0.0071868896484375,0.0015970865497365594,0.0007985432748682797
17967363941075,0.7194576263427734,-9.798270225524902,0.8451532125473022,0.00958251953125,-0.003460354171693325,0.0026618109550327063
17967365178262,0.7589619159698486,-9.799468040466309,0.829590916633606,0.00931633822619915,-0.0026618109550327063,0.0018632676219567657
17967366415437,0.729034423828125,-9.80904483795166,0.8655039072036743,0.008251613937318325,0.0026618109550327063,0.0013309054775163531
17967367652587,0.7541735172271729,-9.81143856048584,0.8559271097183228,0.0077192517928779125,-0.004791259765625,0.0
17967368889787,0.730231523513794,-9.793481826782227,0.8870517611503601,0.005589802749454975,-0.0037265352439135313,0.0013309054775163531
17967370126975,0.6967126727104187,-9.80904483795166,0.8583213090896606,0.01224433071911335,-0.0039927163161337376,0.0023956298828125
17967371364150,0.7194576263427734,-9.795876502990723,0.8343793153762817,0.008783976547420025,-0.0026618109550327063,0.0007985432748682797
17967372601312,0.7422025203704834,-9.804256439208984,0.8140285611152649,0.0077192517928779125,-0.005589802749454975,-0.0015970865497365594
17967373838487,0.7098808288574219,-9.821015357971191,0.7984662652015686,0.008251613937318325,-0.0029279920272529125,-0.0002661811013240367
17967375075675,0.7613561749458313,-9.793481826782227,0.8487445116043091,0.01224433071911335,-0.0066545275039970875,-0.005589802749454975
17967376312862,0.7481880187988281,-9.836577415466309,0.8583213090896606,0.013309055007994175,-0.0042588976211845875,-0.0029279920272529125
17967377550012,0.7805097699165344,-9.793481826782227,0.811634361743927,0.012776692397892475,-0.003460354171693325,-0.004791259765625
17967378787200,0.7170634269714355,-9.81143856048584,0.8080430626869202,0.00984870083630085,-0.00452507846057415,-0.0007985432748682797
17967380024387,0.7781155705451965,-9.786299705505371,0.8307880163192749,0.0077192517928779125,0.0002661811013240367,-0.0042588976211845875
17967381261575,0.7649474740028381,-9.801861763000488,0.8810662031173706,0.013309055007994175,-0.0037265352439135313,-0.0029279920272529125
17967382498725,0.7410054206848145,-9.815030097961426,0.8367735147476196,0.008517795242369175,-0.005855984054505825,-0.0031941730994731188
17967383735912,0.7314286231994629,-9.829395294189453,0.8631097078323364,0.0071868896484375,-0.0042588976211845875,-0.00452507846057415
17967384973087,0.7110779285430908,-9.827000617980957,0.8451532125473022,0.01224433071911335,-0.0053236219100654125,0.0002661811013240367
17967386210275,0.729034423828125,-9.81024169921875,0.8918401598930359,0.008251613937318325,-0.0018632676219567657,-0.003460354171693325
17967387447450,0.6991068720817566,-9.855731010437012,0.8607155084609985,0.008251613937318325,0.0002661811013240367,-0.005589802749454975
17967388684625,0.7457938194274902,-9.871294021606445,0.8559271097183228,0.0077192517928779125,-0.0042588976211845875,-0.00984870083630085
17967389921787,0.7374141216278076,-9.80904483795166,0.8355764150619507,0.00692070834338665,-0.005057440605014563,-0.0042588976211845875
17967391158975,0.6979097723960876,-9.823410034179688,0.8678981065750122,0.00692070834338665,-0.006122165359556675,-0.004791259765625
17967392396175,0.7158663272857666,-9.884461402893066,0.851138710975647,0.007453070487827063,-0.0023956298828125,-0.007453070487827063
17967393633337,0.706289529800415,-9.838972091674805,0.8319851160049438,0.01117960549890995,-0.004791259765625,-0.00692070834338665
17967394870500,0.707486629486084,-9.795876502990723,0.788889467716217,0.0077192517928779125,-0.0053236219100654125,-0.007453070487827063
17967396107687,0.7326257228851318,-9.836577415466309,0.851138710975647,0.0029279920272529125,-0.0018632676219567657,-0.0053236219100654125
17967397344875,0.7493851184844971,-9.854534149169922,0.8643068075180054,0.006122165359556675,-0.0023956298828125,-0.00692070834338665
17967398582037,0.7445967197418213,-9.819818496704102,0.7948749661445618,0.010913425125181675,-0.0015970865497365594,-0.0053236219100654125
17967399819225,0.707486629486084,-9.850942611694336,0.851138710975647,0.008251613937318325,-0.004791259765625,-0.007453070487827063
17967401056400,0.7254431247711182,-9.831789016723633,0.828393816947937,0.008251613937318325,-0.0029279920272529125,-0.005855984054505825
17967402293587,0.7158663272857666,-9.849745750427246,0.8463503122329712,0.008783976547420025,-0.0015970865497365594,-0.005589802749454975
17967403530762,0.7362170219421387,-9.81143856048584,0.8559271097183228,0.010913425125181675,-0.0029279920272529125,-0.008783976547420025
17967404767937,0.7326257228851318,-9.815030097961426,0.8595184087753296,0.006122165359556675,-0.0039927163161337376,-0.0090501569211483
17967406005112,0.7230489253997803,-9.84495735168457,0.8463503122329712,0.0015970865497365594,0.0013309054775163531,-0.0077192517928779125
17967407242275,0.7003040313720703,-9.856928825378418,0.8535329103469849,0.008783976547420025,-0.0013309054775163531,-0.0066545275039970875
17967408479475,0.7374141216278076,-9.827000617980957,0.8427590131759644,0.013042873702943325,-0.0015970865497365594,-0.0063883461989462376
17967409716650,0.7015011310577393,-9.859322547912598,0.8391677141189575,0.00984870083630085,0.0023956298828125,-0.007985432632267475
17967410953825,0.7829039692878723,-9.847352027893066,0.8619126081466675,0.00692070834338665,-0.0005323622026480734,-0.0053236219100654125
17967412191000,0.7146692276000977,-9.838972091674805,0.8678981065750122,0.00984870083630085,-0.0013309054775163531,0.0015970865497365594
17967413428187,0.7362170219421387,-9.84615421295166,0.7972691655158997,0.005855984054505825,0.0007985432748682797,-0.005589802749454975
17967414665350,0.707486629486084,-9.847352027893066,0.8355764150619507,0.00692070834338665,0.0013309054775163531,-0.008783976547420025
17967415902550,0.750582218170166,-9.84615421295166,0.8331822156906128,0.010114881210029125,0.0013309054775163531,-0.013042873702943325
17967417139712,0.729034423828125,-9.871294021606445,0.8463503122329712,0.00692070834338665,0.0010647244052961469,-0.00692070834338665
17967418376887,0.7529764175415039,-9.865307807922363,0.8846575617790222,0.0039927163161337376,0.0021294488105922937,-0.004791259765625
17967419614075,0.729034423828125,-9.877279281616211,0.8200140595436096,0.007453070487827063,0.00452507846057415,-0.008517795242369175
17967420851237,0.7146692276000977,-9.836577415466309,0.8152256608009338,0.0066545275039970875,0.0013309054775163531,-0.0090501569211483
17967422088412,0.7086837291717529,-9.834183692932129,0.8355764150619507,0.0031941730994731188,0.0037265352439135313,-0.006122165359556675
17967423325600,0.7374141216278076,-9.815030097961426,0.8032546639442444,0.008251613937318325,0.0026618109550327063,-0.0066545275039970875
17967424562762,0.7410054206848145,-9.815030097961426,0.8164227604866028,0.005057440605014563,0.0053236219100654125,-0.006122165359556675
17967425799937,0.7254431247711182,-9.816226959228516,0.829590916633606,0.0071868896484375,0.0063883461989462376,-0.00452507846057415
17967427037125,0.7481880187988281,-9.801861763000488,0.8319851160049438,0.005855984054505825,0.0039927163161337376,-0.007453070487827063
17967428274325,0.7374141216278076,-9.819818496704102,0.8355764150619507,0.0053236219100654125,0.005057440605014563,-0.005057440605014563
17967429511487,0.7110779285430908,-9.797073364257812,0.8750807046890259,0.006122165359556675,-0.0002661811013240367,-0.00452507846057415
17967430748675,0.7445967197418213,-9.813833236694336,0.8259996175765991,0.008251613937318325,0.0002661811013240367,-0.0039927163161337376
17967431985837,0.7637503743171692,-9.791088104248047,0.8631097078323364,0.006122165359556675,0.005589802749454975,-0.006122165359556675
17967433223025,0.7493851184844971,-9.822212219238281,0.8427590131759644,0.006122165359556675,0.0071868896484375,-0.0066545275039970875
17967434460200,0.730231523513794,-9.834183692932129,0.8523358106613159,0.00452507846057415,0.0090501569211483,-0.0031941730994731188
17967435697375,0.7422025203704834,-9.84256362915039,0.8152256608009338,0.0090501569211483,0.010913425125181675,0.0
17967436934562,0.7876923680305481,-9.838972091674805,0.8379706144332886,0.005855984054505825,0.010381062515079975,-0.0029279920272529125
17967438171737,0.7445967197418213,-9.880870819091797,0.8032546639442444,0.0039927163161337376,0.0039927163161337376,-0.0015970865497365594
17967439408887,0.7565677165985107,-9.870096206665039,0.8367735147476196,0.003460354171693325,0.006122165359556675,0.0010647244052961469
17967440646100,0.7469909191131592,-9.856928825378418,0.8966285586357117,0.0026618109550327063,0.0015970865497365594,-0.0010647244052961469
17967441883250,0.7709329724311829,-9.856928825378418,0.8738836050033569,0.0039927163161337376,0.0031941730994731188,0.0
17967443120450,0.7481880187988281,-9.856928825378418,0.8655039072036743,0.0031941730994731188,0.010381062515079975,-0.0026618109550327063
17967444357625,0.7613561749458313,-9.831789016723633,0.8750807046890259,0.0029279920272529125,0.00984870083630085,-0.0021294488105922937
17967445594787,0.7350199222564697,-9.828198432922363,0.8571242094039917,0.0031941730994731188,0.008251613937318325,0.0026618109550327063
17967446831962,0.7709329724311829,-9.84376049041748,0.8427590131759644,0.0005323622026480734,0.0037265352439135313,0.0015970865497365594
17967448069150,0.7529764175415039,-9.860519409179688,0.8415619134902954,0.0029279920272529125,0.0071868896484375,0.0007985432748682797
17967449306337,0.7565677165985107,-9.859322547912598,0.8403648138046265,0.0,0.013042873702943325,0.0005323622026480734
17967450543500,0.768538773059845,-9.848548889160156,0.8870517611503601,0.0026618109550327063,0.01357523538172245,0.0039927163161337376
17967451780662,0.7553706169128418,-9.874884605407715,0.8631097078323364,0.0015970865497365594,0.007453070487827063,0.0
17967453017875,0.7613561749458313,-9.81263542175293,0.8631097078323364,0.0005323622026480734,0.00958251953125,0.0005323622026480734
17967454255050,0.7422025203704834,-9.831789016723633,0.8104372620582581,0.006122165359556675,0.013309055007994175,0.0005323622026480734
17967455492212,0.7733271718025208,-9.81143856048584,0.8379706144332886,0.00692070834338665,0.010647243820130825,0.0005323622026480734
17967456729412,0.768538773059845,-9.84256362915039,0.8427590131759644,0.0021294488105922937,0.01224433071911335,0.0021294488105922937
17967457966575,0.7326257228851318,-9.84495735168457,0.8667010068893433,0.004791259765625,0.005589802749454975,0.0066545275039970875
17967459203750,0.7625532746315002,-9.84376049041748,0.8331822156906128,0.0023956298828125,0.007985432632267475,0.0063883461989462376
17967460440912,0.7613561749458313,-9.81143856048584,0.8379706144332886,0.005589802749454975,0.010381062515079975,0.0066545275039970875
17967461678100,0.7134721279144287,-9.81143856048584,0.8104372620582581,0.004791259765625,0.010114881210029125,0.01224433071911335
17967462915300,0.7649474740028381,-9.7791166305542,0.8810662031173706,0.0007985432748682797,0.01224433071911335,0.0071868896484375
17967464152450,0.7948749661445618,-9.791088104248047,0.828393816947937,0.00452507846057415,0.010114881210029125,0.008251613937318325
17967465389650,0.7948749661445618,-9.780314445495605,0.7829039692878723,0.0010647244052961469,0.0071868896484375,0.007453070487827063
17967466626812,0.7721300721168518,-9.81024169921875,0.8236054182052612,0.007453070487827063,0.008517795242369175,0.0063883461989462376
17967467863987,0.7553706169128418,-9.838972091674805,0.8164227604866028,0.008517795242369175,0.008251613937318325,0.00958251953125
17967469101175,0.7721300721168518,-9.783905029296875,0.8451532125473022,0.007453070487827063,0.010913425125181675,0.00958251953125
17967470338337,0.8176198601722717,-9.816226959228516,0.8846575617790222,0.0066545275039970875,0.01171196810901165,0.0090501569211483
17967471575525,0.7745242714881897,-9.807847023010254,0.8451532125473022,0.008783976547420025,0.008517795242369175,0.010114881210029125
17967472812700,0.7972691655158997,-9.807847023010254,0.8403648138046265,0.010381062515079975,0.007985432632267475,0.010114881210029125
17967474049887,0.7864952683448792,-9.7791166305542,0.8690952062606812,0.005057440605014563,0.008517795242369175,0.0071868896484375
17967475287062,0.788889467716217,-9.815030097961426,0.812831461429596,0.00452507846057415,0.0071868896484375,0.00984870083630085
17967476524237,0.8056488633155823,-9.832986831665039,0.8415619134902954,0.008251613937318325,0.00958251953125,0.01117960549890995
17967477761412,0.7960720658302307,-9.870096206665039,0.8224083185195923,0.010647243820130825,0.008517795242369175,0.01463996060192585
17967478998587,0.7757213711738586,-9.847352027893066,0.8655039072036743,0.00958251953125,0.01117960549890995,0.0114457868039608
17967480235750,0.788889467716217,-9.807847023010254,0.8200140595436096,0.0066545275039970875,0.0090501569211483,0.01224433071911335
17967481472950,0.8164227604866028,-9.806650161743164,0.8259996175765991,0.00931633822619915,0.0071868896484375,0.008783976547420025
17967482710137,0.8140285611152649,-9.821015357971191,0.8451532125473022,0.008251613937318325,0.00958251953125,0.006122165359556675
17967483947312,0.7924807667732239,-9.823410034179688,0.8391677141189575,0.004791259765625,0.00692070834338665,0.008783976547420025
17967485184475,0.7733271718025208,-9.822212219238281,0.8619126081466675,0.0053236219100654125,0.0090501569211483,0.00931633822619915
17967486421662,0.8020575642585754,-9.782708168029785,0.8571242094039917,0.00984870083630085,0.010381062515079975,0.01171196810901165
17967487658837,0.8056488633155823,-9.815030097961426,0.8678981065750122,0.0077192517928779125,0.008783976547420025,0.00958251953125
17967488896025,0.8224083185195923,-9.805453300476074,0.8966285586357117,0.0,0.008251613937318325,0.005057440605014563
17967490133200,0.7649474740028381,-9.806650161743164,0.8738836050033569,0.0042588976211845875,0.008517795242369175,0.008251613937318325
17967491370362,0.7852981686592102,-9.77791976928711,0.8810662031173706,0.01117960549890995,0.0071868896484375,0.007985432632267475
17967492607550,0.8164227604866028,-9.81143856048584,0.8906430602073669,0.008783976547420025,0.004791259765625,0.010647243820130825
17967493844725,0.8008604645729065,-9.81143856048584,0.8427590131759644,0.00958251953125,0.0037265352439135313,0.008783976547420025
17967495081900,0.8415619134902954,-9.822212219238281,0.8403648138046265,0.00958251953125,0.008517795242369175,0.005057440605014563
17967496319087,0.7793126702308655,-9.81263542175293,0.8571242094039917,0.00984870083630085,0.00931633822619915,0.00931633822619915
17967497556275,0.812831461429596,-9.769539833068848,0.872686505317688,0.010114881210029125,0.004791259765625,0.010114881210029125
17967498793450,0.7553706169128418,-9.806650161743164,0.8822633624076843,0.0119781494140625,0.0031941730994731188,0.008783976547420025
17967500030612,0.8248025178909302,-9.819818496704102,0.8750807046890259,0.012776692397892475,0.0037265352439135313,0.005589802749454975
17967501267800,0.788889467716217,-9.794679641723633,0.8188169598579407,0.007985432632267475,0.0,0.013309055007994175
17967502504987,0.7625532746315002,-9.813833236694336,0.8583213090896606,0.00692070834338665,0.0,0.00958251953125
17967503742150,0.788889467716217,-9.81024169921875,0.8762778043746948,0.01463996060192585,0.0039927163161337376,0.010647243820130825
17967504979325,0.7984662652015686,-9.818621635437012,0.8535329103469849,0.013042873702943325,0.0015970865497365594,0.012510511092841625
17967506216512,0.7745242714881897,-9.822212219238281,0.8355764150619507,0.00984870083630085,-0.0039927163161337376,0.013042873702943325
17967507453687,0.7793126702308655,-9.825803756713867,0.8200140595436096,0.0071868896484375,0.0007985432748682797,0.00958251953125
17967508690862,0.7721300721168518,-9.840168952941895,0.851138710975647,0.006122165359556675,0.0015970865497365594,0.00984870083630085
17967509928050,0.7625532746315002,-9.837775230407715,0.8667010068893433,0.010114881210029125,0.0021294488105922937,0.01117960549890995
17967511165225,0.767341673374176,-9.816226959228516,0.8595184087753296,0.01357523538172245,-0.003460354171693325,0.01463996060192585
17967512402375,0.7697358727455139,-9.834183692932129,0.8475474119186401,0.008783976547420025,-0.0007985432748682797,0.015438503585755825
17967513639575,0.8092401623725891,-9.824606895446777,0.9014169573783875,0.01117960549890995,-0.0015970865497365594,0.01117960549890995
17967514876775,0.7601590752601624,-9.855731010437012,0.8918401598930359,0.01117960549890995,-0.0031941730994731188,0.010913425125181675
17967516113925,0.7733271718025208,-9.81024169921875,0.8870517611503601,0.0090501569211483,-0.005589802749454975,0.010913425125181675
17967517351112,0.7625532746315002,-9.823410034179688,0.8978256583213806,0.008783976547420025,-0.00931633822619915,0.013309055007994175
17967518588287,0.7769184708595276,-9.837775230407715,0.8738836050033569,0.00692070834338665,-0.005057440605014563,0.014373779296875
17967519825462,0.7601590752601624,-9.829395294189453,0.8978256583213806,0.00452507846057415,-0.006122165359556675,0.01410759799182415
17967521062662,0.7745242714881897,-9.825803756713867,0.8930372595787048,0.0090501569211483,-0.0023956298828125,0.00984870083630085
17967522299850,0.812831461429596,-9.877279281616211,0.8978256583213806,0.00692070834338665,-0.0013309054775163531,0.01463996060192585
17967523537000,0.7422025203704834,-9.825803756713867,0.8846575617790222,0.004791259765625,-0.0026618109550327063,0.0114457868039608
17967524774200,0.7733271718025208,-9.856928825378418,0.8690952062606812,0.008251613937318325,-0.0029279920272529125,0.007453070487827063
17967526011350,0.7481880187988281,-9.874884605407715,0.8822633624076843,0.0066545275039970875,-0.004791259765625,0.01117960549890995
17967527248550,0.7805097699165344,-9.864110946655273,0.8643068075180054,0.005057440605014563,-0.0042588976211845875,0.010913425125181675
17967528485712,0.7721300721168518,-9.827000617980957,0.8655039072036743,0.0077192517928779125,-0.006122165359556675,0.014373779296875
17967529722900,0.7757213711738586,-9.862914085388184,0.8487445116043091,0.0071868896484375,-0.004791259765625,0.01117960549890995
17967530960075,0.7553706169128418,-9.84495735168457,0.8379706144332886,0.0026618109550327063,-0.0029279920272529125,0.0119781494140625
17967532197262,0.7254431247711182,-9.86889934539795,0.8607155084609985,0.006122165359556675,-0.0066545275039970875,0.014373779296875
17967533434425,0.7601590752601624,-9.883264541625977,0.8870517611503601,0.008251613937318325,-0.01171196810901165,0.01410759799182415
17967534671612,0.7529764175415039,-9.8784761428833,0.8858546614646912,0.008783976547420025,-0.003460354171693325,0.0157046839594841
17967535908787,0.7134721279144287,-9.813833236694336,0.8571242094039917,0.00452507846057415,-0.0007985432748682797,0.0119781494140625
17967537145987,0.767341673374176,-9.877279281616211,0.8942343592643738,0.003460354171693325,-0.0005323622026480734,0.0157046839594841
17967538383150,0.7817068696022034,-9.862914085388184,0.8415619134902954,-0.0018632676219567657,-0.00692070834338665,0.010114881210029125
