timestamp_ns,accel_x,accel_y,accel_z,gyro_x,gyro_y,gyro_z
17813322349200,3.2094273567199707,-7.799112319946289,5.281609058380127,0.010114881210029125,0.01357523538172245,0.010913425125181675
17813323586325,3.223792552947998,-7.796718120574951,5.273229122161865,0.012510511092841625,0.0157046839594841,0.013042873702943325
17813324823462,3.251325845718384,-7.770381450653076,5.294776916503906,0.01117960549890995,0.0186326764523983,0.01650322787463665
17813326060612,3.242946147918701,-7.824251174926758,5.280411720275879,0.012776692397892475,0.02022976242005825,0.0157046839594841
17813327297750,3.2405519485473633,-7.808689117431641,5.278017520904541,0.0191650390625,0.0181003138422966,0.013042873702943325
17813328534900,3.2573113441467285,-7.813477516174316,5.287594318389893,0.012510511092841625,0.0181003138422966,0.01117960549890995
17813329772025,3.250128746032715,-7.82066011428833,5.293580055236816,0.012776692397892475,0.0181003138422966,0.012776692397892475
17813331009162,3.223792552947998,-7.817068576812744,5.327098846435547,0.0119781494140625,0.01357523538172245,0.00958251953125
17813332246300,3.19865345954895,-7.8098859786987305,5.3127336502075195,0.0138414166867733,0.014373779296875,0.01117960549890995
17813333483450,3.2178070545196533,-7.82066011428833,5.2899885177612305,0.012510511092841625,0.01756795309484005,0.01703559048473835
17813334720600,3.2118215560913086,-7.858967304229736,5.321113109588623,0.01171196810901165,0.01783413253724575,0.01836649514734745
17813335957725,3.2190041542053223,-7.836222171783447,5.303156852722168,0.008517795242369175,0.015438503585755825,0.01117960549890995
17813337194875,3.181894063949585,-7.8326311111450195,5.295974254608154,0.00931633822619915,0.010381062515079975,0.010647243820130825
17813338432012,3.2321722507476807,-7.82185697555542,5.364209175109863,0.01171196810901165,0.013042873702943325,0.014906140975654125
17813339669162,3.202244758605957,-7.8529815673828125,5.2899885177612305,0.0114457868039608,0.014906140975654125,0.014906140975654125
17813340906287,3.2573113441467285,-7.8326311111450195,5.2899885177612305,0.00931633822619915,0.01224433071911335,0.010647243820130825
17813342143425,3.2585084438323975,-7.873332500457764,5.319916248321533,0.010114881210029125,0.01756795309484005,0.008251613937318325
17813343380575,3.2525229454040527,-7.836222171783447,5.323507308959961,0.014906140975654125,0.01650322787463665,0.010647243820130825
17813344617725,3.246537446975708,-7.844602108001709,5.321113109588623,0.0077192517928779125,0.0157046839594841,0.0071868896484375
17813345854862,3.2094273567199707,-7.861361503601074,5.298368453979492,0.0077192517928779125,0.01357523538172245,0.00931633822619915
17813347092012,3.22139835357666,-7.85537576675415,5.287594318389893,0.0066545275039970875,0.013309055007994175,0.008517795242369175
17813348329150,3.2345664501190186,-7.849390506744385,5.287594318389893,0.010647243820130825,0.014906140975654125,0.00984870083630085
17813349566300,3.245340347290039,-7.826645374298096,5.306747913360596,0.01171196810901165,0.01171196810901165,0.010381062515079975
17813350803437,3.227383852005005,-7.829039573669434,5.279214859008789,0.0071868896484375,0.01357523538172245,0.008251613937318325
17813352040575,3.2154128551483154,-7.819462776184082,5.25527286529541,0.0077192517928779125,0.014906140975654125,0.010114881210029125
17813353277712,3.2381577491760254,-7.830236911773682,5.287594318389893,0.00692070834338665,0.0119781494140625,0.01117960549890995
17813354514837,3.2309751510620117,-7.8326311111450195,5.288791656494141,0.007453070487827063,0.008783976547420025,0.008251613937318325
17813355751987,3.2417490482330322,-7.841010570526123,5.319916248321533,0.0063883461989462376,0.012510511092841625,0.00931633822619915
17813356989137,3.2393548488616943,-7.848193168640137,5.367800235748291,0.005589802749454975,0.013309055007994175,0.006122165359556675
17813358226250,3.1926679611206055,-7.843404769897461,5.30195951461792,0.0039927163161337376,0.01224433071911335,0.0071868896484375
17813359463400,3.2345664501190186,-7.82066011428833,5.328295707702637,0.008251613937318325,0.01650322787463665,0.0039927163161337376
17813360700537,3.2609026432037354,-7.8326311111450195,5.297171115875244,0.00931633822619915,0.010647243820130825,0.003460354171693325
17813361937675,3.2800562381744385,-7.82185697555542,5.354632377624512,0.003460354171693325,0.008251613937318325,0.0077192517928779125
17813363174825,3.272873640060425,-7.823054313659668,5.355829238891602,0.0042588976211845875,0.010647243820130825,0.0042588976211845875
17813364411975,3.271676540374756,-7.82185697555542,5.327098846435547,0.005589802749454975,0.008251613937318325,0.00692070834338665
17813365649112,3.2381577491760254,-7.803900718688965,5.377377033233643,0.0077192517928779125,0.0053236219100654125,0.008517795242369175
17813366886237,3.1950621604919434,-7.841010570526123,5.352238178253174,0.008517795242369175,0.01117960549890995,0.0090501569211483
17813368123387,3.228580951690674,-7.817068576812744,5.327098846435547,0.00958251953125,0.012510511092841625,0.0039927163161337376
17813369360537,3.2632968425750732,-7.82185697555542,5.34625244140625,0.0066545275039970875,0.007453070487827063,0.0037265352439135313
17813370597662,3.228580951690674,-7.841010570526123,5.336675643920898,0.00692070834338665,0.00692070834338665,0.005855984054505825
17813371834825,3.203441858291626,-7.7883381843566895,5.340266704559326,0.006122165359556675,0.013042873702943325,0.0005323622026480734
17813373071950,3.2178070545196533,-7.85537576675415,5.3582234382629395,0.0066545275039970875,0.00958251953125,0.0005323622026480734
17813374309087,3.220201253890991,-7.86734676361084,5.404910564422607,0.010114881210029125,0.0071868896484375,0.0039927163161337376
17813375546237,3.2333693504333496,-7.86734676361084,5.339069843292236,0.00931633822619915,0.005589802749454975,0.0066545275039970875
17813376783387,3.205836057662964,-7.833827972412109,5.365406036376953,0.0090501569211483,0.0029279920272529125,0.012510511092841625
17813378020525,3.2597055435180664,-7.856573104858398,5.345055103302002,0.0090501569211483,0.008517795242369175,0.005589802749454975
17813379257650,3.24414324760437,-7.858967304229736,5.315127849578857,0.005589802749454975,0.0053236219100654125,0.0053236219100654125
17813380494787,3.223792552947998,-7.856573104858398,5.3342814445495605,0.007453070487827063,0.0077192517928779125,0.005057440605014563
17813381731950,3.2142157554626465,-7.86734676361084,5.288791656494141,0.008251613937318325,0.003460354171693325,0.007453070487827063
17813382969087,3.2620997428894043,-7.882909297943115,5.324704647064209,0.0066545275039970875,0.0042588976211845875,0.0029279920272529125
17813384206225,3.2752678394317627,-7.851784706115723,5.306747913360596,0.0042588976211845875,0.0029279920272529125,0.0023956298828125
17813385443362,3.2860419750213623,-7.8529815673828125,5.328295707702637,0.0026618109550327063,0.0005323622026480734,0.004791259765625
17813386680487,3.2848448753356934,-7.888894557952881,5.288791656494141,0.007453070487827063,0.003460354171693325,0.0037265352439135313
17813387917637,3.268085241317749,-7.8314337730407715,5.284003257751465,0.008517795242369175,0.0013309054775163531,0.006122165359556675
17813389154775,3.2525229454040527,-7.890091896057129,5.30195951461792,0.0007985432748682797,0.0,0.0031941730994731188
17813390391937,3.2309751510620117,-7.869740962982178,5.3342814445495605,-0.0007985432748682797,0.0002661811013240367,0.0023956298828125
17813391629075,3.247734546661377,-7.838616371154785,5.279214859008789,0.0013309054775163531,-0.0018632676219567657,0.0021294488105922937
17813392866212,3.2118215560913086,-7.836222171783447,5.354632377624512,0.0005323622026480734,0.005057440605014563,0.0005323622026480734
17813394103350,3.227383852005005,-7.7871413230896,5.315127849578857,-0.0005323622026480734,-0.0010647244052961469,-0.0013309054775163531
17813395340487,3.248931646347046,-7.8110833168029785,5.30076265335083,-0.0005323622026480734,-0.0026618109550327063,0.0039927163161337376
17813396577637,3.204638957977295,-7.796718120574951,5.313930511474609,-0.0031941730994731188,-0.0031941730994731188,0.0002661811013240367
17813397814762,3.2417490482330322,-7.778761386871338,5.313930511474609,-0.0037265352439135313,-0.005589802749454975,-0.0053236219100654125
17813399051900,3.2585084438323975,-7.799112319946289,5.330689907073975,-0.0013309054775163531,0.0007985432748682797,-0.0023956298828125
17813400289037,3.2130186557769775,-7.7895355224609375,5.355829238891602,0.0015970865497365594,-0.0042588976211845875,0.0018632676219567657
17813401526187,3.222595453262329,-7.7643961906433105,5.322310447692871,0.0007985432748682797,-0.00958251953125,0.0042588976211845875
17813402763337,3.2166099548339844,-7.785943984985352,5.310339450836182,0.0015970865497365594,-0.007453070487827063,0.00452507846057415
17813404000475,3.2142157554626465,-7.779958248138428,5.2480902671813965,-0.0015970865497365594,-0.0053236219100654125,-0.0015970865497365594
17813405237612,3.2561142444610596,-7.7871413230896,5.273229122161865,-0.0015970865497365594,-0.010381062515079975,0.0013309054775163531
17813406474750,3.247734546661377,-7.802703380584717,5.252878665924072,0.0031941730994731188,-0.013042873702943325,0.0042588976211845875
17813407711875,3.2154128551483154,-7.778761386871338,5.321113109588623,0.00452507846057415,-0.0071868896484375,0.0013309054775163531
17813408949037,3.2321722507476807,-7.773972988128662,5.282805919647217,-0.0013309054775163531,-0.006122165359556675,-0.0007985432748682797
17813410186175,3.204638957977295,-7.77756404876709,5.216965675354004,0.0007985432748682797,-0.0063883461989462376,0.0005323622026480734
17813411423312,3.1902737617492676,-7.781155586242676,5.280411720275879,0.003460354171693325,-0.008517795242369175,-0.0013309054775163531
17813412660462,3.1902737617492676,-7.783549785614014,5.315127849578857,0.0005323622026480734,-0.0010647244052961469,-0.0026618109550327063
17813413897600,3.1711201667785645,-7.793126583099365,5.317522048950195,0.0010647244052961469,-0.007985432632267475,-0.0023956298828125
17813415134737,3.183091163635254,-7.793126583099365,5.313930511474609,-0.0002661811013240367,-0.007985432632267475,-0.0018632676219567657
17813416371887,3.1759085655212402,-7.7763671875,5.270834922790527,0.0031941730994731188,-0.0053236219100654125,0.0013309054775163531
17813417609012,3.1926679611206055,-7.748833656311035,5.292382717132568,0.0039927163161337376,-0.003460354171693325,-0.0063883461989462376
17813418846150,3.1759085655212402,-7.7631988525390625,5.304353713989258,-0.0013309054775163531,-0.0053236219100654125,-0.0039927163161337376
17813420083312,3.1232361793518066,-7.766790390014648,5.310339450836182,0.006122165359556675,-0.0077192517928779125,0.0018632676219567657
17813421320437,3.199850559234619,-7.7883381843566895,5.284003257751465,0.0066545275039970875,-0.006122165359556675,-0.0013309054775163531
17813422557587,3.1759085655212402,-7.778761386871338,5.293580055236816,-0.0021294488105922937,-0.004791259765625,-0.0021294488105922937
17813423794712,3.2345664501190186,-7.808689117431641,5.293580055236816,0.0007985432748682797,-0.003460354171693325,-0.0026618109550327063
17813425031862,3.204638957977295,-7.800309181213379,5.281609058380127,0.0037265352439135313,-0.00984870083630085,-0.0029279920272529125
17813426269000,3.2166099548339844,-7.812280178070068,5.282805919647217,0.005057440605014563,-0.0090501569211483,-0.0026618109550327063
17813427506150,3.1759085655212402,-7.794323921203613,5.280411720275879,0.005589802749454975,-0.007453070487827063,0.0005323622026480734
17813428743287,3.223792552947998,-7.8110833168029785,5.286397457122803,-0.0013309054775163531,-0.005057440605014563,-0.0021294488105922937
17813429980425,3.205836057662964,-7.807491779327393,5.343858242034912,-0.0013309054775163531,-0.005855984054505825,-0.003460354171693325
17813431217562,3.181894063949585,-7.794323921203613,5.3330841064453125,0.0031941730994731188,-0.0063883461989462376,-0.0013309054775163531
17813432454700,3.185485363006592,-7.775169849395752,5.275623321533203,0.0015970865497365594,-0.0042588976211845875,0.0010647244052961469
17813433691850,3.2178070545196533,-7.82185697555542,5.324704647064209,0.0013309054775163531,-0.005057440605014563,-0.0042588976211845875
17813434928987,3.177105665206909,-7.794323921203613,5.307945251464844,0.0029279920272529125,-0.0071868896484375,-0.0018632676219567657
17813436166137,3.1471781730651855,-7.8314337730407715,5.322310447692871,0.0018632676219567657,-0.0077192517928779125,-0.0010647244052961469
17813437403262,3.2142157554626465,-7.817068576812744,5.297171115875244,0.0026618109550327063,-0.00452507846057415,0.0
17813438640412,3.137601375579834,-7.807491779327393,5.321113109588623,0.0042588976211845875,-0.008251613937318325,-0.0013309054775163531
17813439877575,3.111265182495117,-7.833827972412109,5.30076265335083,0.0010647244052961469,-0.008517795242369175,0.0
17813441114700,3.178302764892578,-7.827842712402344,5.306747913360596,-0.0007985432748682797,-0.00958251953125,0.0039927163161337376
17813442351825,3.1878795623779297,-7.818265914916992,5.307945251464844,0.0021294488105922937,-0.0010647244052961469,0.0013309054775163531
17813443588975,3.2417490482330322,-7.8314337730407715,5.278017520904541,0.0063883461989462376,-0.003460354171693325,-0.0010647244052961469
17813444826100,3.201047658920288,-7.779958248138428,5.299565315246582,0.0029279920272529125,-0.004791259765625,-0.0007985432748682797
17813446063262,3.1914708614349365,-7.7871413230896,5.273229122161865,0.0,-0.0037265352439135313,-0.0005323622026480734
17813447300400,3.1723172664642334,-7.827842712402344,5.257667064666748,0.0042588976211845875,-0.0066545275039970875,-0.0015970865497365594
17813448537525,3.179499864578247,-7.779958248138428,5.273229122161865,0.007985432632267475,-0.0031941730994731188,-0.0005323622026480734
17813449774687,3.204638957977295,-7.771578788757324,5.309142112731934,0.0005323622026480734,0.0005323622026480734,-0.005589802749454975
17813451011825,3.1723172664642334,-7.805097579956055,5.3127336502075195,-0.0023956298828125,-0.0031941730994731188,-0.005057440605014563
17813452248937,3.223792552947998,-7.7895355224609375,5.327098846435547,-0.0010647244052961469,-0.005589802749454975,0.0002661811013240367
17813453486100,3.2118215560913086,-7.7416510581970215,5.307945251464844,0.0063883461989462376,-0.0066545275039970875,-0.0021294488105922937
17813454723250,3.2106244564056396,-7.767987251281738,5.336675643920898,0.012776692397892475,-0.0077192517928779125,-0.0039927163161337376
17813455960387,3.199850559234619,-7.747636795043945,5.305551052093506,0.00984870083630085,-0.0002661811013240367,-0.0042588976211845875
17813457197525,3.2154128551483154,-7.769184589385986,5.309142112731934,0.0018632676219567657,-0.0018632676219567657,-0.00984870083630085
17813458434650,3.1950621604919434,-7.745242595672607,5.33547830581665,0.006122165359556675,-0.0042588976211845875,-0.0037265352439135313
17813459671787,3.163937568664551,-7.77756404876709,5.307945251464844,0.005057440605014563,-0.0005323622026480734,-0.0013309054775163531
17813460908937,3.179499864578247,-7.7655930519104,5.293580055236816,0.005589802749454975,0.0,-0.0005323622026480734
17813462146087,3.1711201667785645,-7.766790390014648,5.315127849578857,0.0119781494140625,0.0005323622026480734,-0.0042588976211845875
17813463383212,3.205836057662964,-7.778761386871338,5.305551052093506,0.0063883461989462376,-0.0007985432748682797,-0.0007985432748682797
17813464620375,3.1723172664642334,-7.7655930519104,5.309142112731934,0.0063883461989462376,-0.0026618109550327063,-0.0015970865497365594
17813465857487,3.202244758605957,-7.706935405731201,5.317522048950195,0.008783976547420025,-0.0018632676219567657,-0.005589802749454975
17813467094650,3.223792552947998,-7.759607791900635,5.309142112731934,0.0119781494140625,-0.0013309054775163531,-0.0077192517928779125
17813468331787,3.223792552947998,-7.758410453796387,5.353435039520264,0.008251613937318325,-0.0005323622026480734,-0.008251613937318325
17813469568925,3.2345664501190186,-7.77756404876709,5.353435039520264,0.00958251953125,0.0010647244052961469,-0.004791259765625
17813470806050,3.2178070545196533,-7.7883381843566895,5.322310447692871,0.0138414166867733,0.0005323622026480734,-0.00931633822619915
17813472043200,3.246537446975708,-7.7643961906433105,5.34625244140625,0.012510511092841625,0.0010647244052961469,-0.00692070834338665
17813473280350,3.251325845718384,-7.744045257568359,5.351040840148926,0.01357523538172245,-0.0029279920272529125,-0.0042588976211845875
17813474517487,3.2130186557769775,-7.767987251281738,5.352238178253174,0.0167694091796875,-0.0021294488105922937,-0.0066545275039970875
17813475754625,3.204638957977295,-7.750030994415283,5.310339450836182,0.010381062515079975,0.0021294488105922937,-0.00931633822619915
17813476991762,3.184288263320923,-7.781155586242676,5.34744930267334,0.0114457868039608,-0.0010647244052961469,-0.01171196810901165
17813478228925,3.19865345954895,-7.796718120574951,5.342660903930664,0.013042873702943325,0.0053236219100654125,-0.006122165359556675
17813479466062,3.2118215560913086,-7.748833656311035,5.309142112731934,0.0090501569211483,0.004791259765625,-0.004791259765625
17813480703175,3.220201253890991,-7.783549785614014,5.319916248321533,0.01224433071911335,0.00452507846057415,-0.010913425125181675
17813481940325,3.1938650608062744,-7.797914981842041,5.321113109588623,0.013309055007994175,0.0013309054775163531,-0.0042588976211845875
17813483177462,3.19865345954895,-7.803900718688965,5.304353713989258,0.01224433071911335,-0.0002661811013240367,-0.0013309054775163531
17813484414612,3.2130186557769775,-7.800309181213379,5.293580055236816,0.008783976547420025,0.00452507846057415,-0.0026618109550327063
17813485651762,3.247734546661377,-7.800309181213379,5.319916248321533,0.0071868896484375,0.005855984054505825,-0.005057440605014563
17813486888900,3.268085241317749,-7.757213592529297,5.3342814445495605,0.012776692397892475,0.0026618109550327063,-0.00931633822619915
17813488126037,3.201047658920288,-7.7895355224609375,5.383362770080566,0.014373779296875,0.0013309054775163531,-0.0071868896484375
17813489363187,3.1878795623779297,-7.838616371154785,5.298368453979492,0.008517795242369175,0.0037265352439135313,-0.006122165359556675
17813490600325,3.179499864578247,-7.886500358581543,5.2899885177612305,0.004791259765625,0.0007985432748682797,-0.00984870083630085
17813491837475,3.159149169921875,-7.940370082855225,5.327098846435547,0.00984870083630085,0.005057440605014563,-0.006122165359556675
17813493074612,3.1483752727508545,-7.960720539093018,5.310339450836182,0.0090501569211483,0.0042588976211845875,-0.0026618109550327063
17813494311750,3.1507694721221924,-7.965508937835693,5.324704647064209,0.0042588976211845875,0.0010647244052961469,-0.0077192517928779125
17813495548887,3.177105665206909,-7.930793285369873,5.307945251464844,0.0031941730994731188,0.0021294488105922937,-0.0066545275039970875
17813496786025,3.2178070545196533,-7.888894557952881,5.3330841064453125,0.00692070834338665,0.0037265352439135313,0.0015970865497365594
17813498023162,3.265691041946411,-7.860164165496826,5.3115363121032715,0.0042588976211845875,0.005057440605014563,0.0015970865497365594
17813499260300,3.204638957977295,-7.817068576812744,5.339069843292236,0.005589802749454975,0.008251613937318325,0.0029279920272529125
17813500497450,3.2381577491760254,-7.801506519317627,5.330689907073975,0.0039927163161337376,0.012776692397892475,-0.0010647244052961469
17813501734600,3.2992100715637207,-7.771578788757324,5.35702657699585,0.0042588976211845875,0.008517795242369175,-0.00692070834338665
17813502971737,3.2836475372314453,-7.711723804473877,5.368997573852539,0.0010647244052961469,0.0077192517928779125,-0.0037265352439135313
17813504208875,3.264493942260742,-7.687781810760498,5.413290023803711,0.004791259765625,0.008251613937318325,-0.005057440605014563
17813505446012,3.2561142444610596,-7.668628215789795,5.445611953735352,0.0037265352439135313,0.0031941730994731188,-0.0007985432748682797
17813506683175,3.271676540374756,-7.657854080200195,5.39054536819458,0.0002661811013240367,0.00931633822619915,-0.005057440605014563
17813507920287,3.24414324760437,-7.691372871398926,5.433640956878662,0.00452507846057415,0.0071868896484375,-0.0053236219100654125
17813509157437,3.202244758605957,-7.666234016418457,5.394136428833008,0.0029279920272529125,0.01171196810901165,-0.0071868896484375
17813510394587,3.2166099548339844,-7.659051418304443,5.4013190269470215,0.0053236219100654125,0.010381062515079975,-0.010913425125181675
17813511631725,3.1950621604919434,-7.691372871398926,5.370194435119629,0.0037265352439135313,0.0119781494140625,-0.010913425125181675
17813512868850,3.1902737617492676,-7.73207426071167,5.4025163650512695,0.0119781494140625,0.01357523538172245,-0.00931633822619915
17813514106012,3.2118215560913086,-7.735665798187256,5.398924827575684,0.012776692397892475,0.0071868896484375,-0.013042873702943325
17813515343137,3.203441858291626,-7.779958248138428,5.376180171966553,0.0119781494140625,0.0071868896484375,-0.0167694091796875
17813516580287,3.179499864578247,-7.791929721832275,5.388151168823242,0.01357523538172245,0.008517795242369175,-0.010913425125181675
17813517817425,3.2094273567199707,-7.819462776184082,5.319916248321533,0.010647243820130825,0.0077192517928779125,-0.010913425125181675
17813519054575,3.227383852005005,-7.844602108001709,5.307945251464844,0.010381062515079975,0.013309055007994175,-0.0138414166867733
17813520291712,3.2321722507476807,-7.885303497314453,5.337872505187988,0.008783976547420025,0.010647243820130825,-0.010114881210029125
17813521528850,3.2776620388031006,-7.8996686935424805,5.345055103302002,0.00984870083630085,0.012776692397892475,-0.0071868896484375
17813522765987,3.2333693504333496,-7.898471355438232,5.331887245178223,0.008251613937318325,0.01410759799182415,-0.0138414166867733
17813524003112,3.271676540374756,-7.884106159210205,5.355829238891602,0.00958251953125,0.0119781494140625,-0.0204959437251091
17813525240262,3.2632968425750732,-7.918822288513184,5.328295707702637,0.0066545275039970875,0.01357523538172245,-0.01463996060192585
17813526477425,3.2393548488616943,-7.893682956695557,5.328295707702637,0.008783976547420025,0.01463996060192585,-0.008517795242369175
17813527714537,3.247734546661377,-7.882909297943115,5.353435039520264,0.0018632676219567657,0.008783976547420025,-0.0090501569211483
17813528951700,3.268085241317749,-7.870938301086426,5.383362770080566,0.00958251953125,0.008251613937318325,-0.007453070487827063
17813530188825,3.265691041946411,-7.879317760467529,5.376180171966553,0.00452507846057415,0.0114457868039608,-0.0114457868039608
17813531425975,3.224989652633667,-7.885303497314453,5.413290023803711,0.0053236219100654125,0.010647243820130825,-0.015438503585755825
17813532663100,3.264493942260742,-7.819462776184082,5.373785972595215,0.008251613937318325,0.008783976547420025,-0.015172322280704975
17813533900262,3.250128746032715,-7.858967304229736,5.427655220031738,0.0037265352439135313,0.00984870083630085,-0.010114881210029125
17813535137425,3.247734546661377,-7.856573104858398,5.453991413116455,0.0090501569211483,0.01224433071911335,-0.0090501569211483
17813536374537,3.2537200450897217,-7.863755702972412,5.407304763793945,0.0021294488105922937,0.0138414166867733,-0.0157046839594841
17813537611700,3.312378168106079,-7.868544101715088,5.440823554992676,0.0031941730994731188,0.00984870083630085,-0.00984870083630085
17813538848825,3.2369606494903564,-7.864952564239502,5.370194435119629,0.003460354171693325,0.01117960549890995,-0.00452507846057415
17813540085975,3.292027473449707,-7.872135162353516,5.396530628204346,-0.0007985432748682797,0.012510511092841625,-0.010114881210029125
17813541323112,3.2752678394317627,-7.870938301086426,5.361814975738525,-0.0005323622026480734,0.010381062515079975,-0.0157046839594841
17813542560250,3.2537200450897217,-7.8314337730407715,5.331887245178223,-0.0018632676219567657,0.014906140975654125,-0.014373779296875
17813543797387,3.264493942260742,-7.845798969268799,5.360617637634277,-0.0029279920272529125,0.014373779296875,-0.01756795309484005
17813545034512,3.3087868690490723,-7.856573104858398,5.331887245178223,-0.0007985432748682797,0.014373779296875,-0.01171196810901165
17813546271650,3.2537200450897217,-7.943961143493652,5.321113109588623,0.0,0.01410759799182415,-0.00984870083630085
17813547508800,3.314772367477417,-7.904457092285156,5.385756969451904,-0.0021294488105922937,0.0090501569211483,-0.010381062515079975
17813548745950,3.2620997428894043,-7.869740962982178,5.261258125305176,-0.005855984054505825,0.012776692397892475,-0.0157046839594841
17813549983087,3.2824504375457764,-7.892486095428467,5.3582234382629395,-0.010913425125181675,0.01224433071911335,-0.01224433071911335
17813551220212,3.248931646347046,-7.905653953552246,5.373785972595215,-0.004791259765625,0.01171196810901165,-0.0077192517928779125
17813552457387,3.2525229454040527,-7.8996686935424805,5.33547830581665,-0.008251613937318325,0.01171196810901165,-0.007453070487827063
17813553694525,3.268085241317749,-7.885303497314453,5.33547830581665,-0.0090501569211483,0.012510511092841625,-0.012510511092841625
17813554931650,3.246537446975708,-7.903259754180908,5.327098846435547,-0.0090501569211483,0.0119781494140625,-0.00958251953125
17813556168812,3.2297780513763428,-7.864952564239502,5.366603374481201,-0.0119781494140625,0.012510511092841625,-0.006122165359556675
17813557405937,3.242946147918701,-7.826645374298096,5.3342814445495605,-0.0090501569211483,0.0119781494140625,-0.008783976547420025
17813558643062,3.203441858291626,-7.892486095428467,5.3594207763671875,-0.007453070487827063,0.0119781494140625,-0.0066545275039970875
17813559880225,3.204638957977295,-7.873332500457764,5.372588634490967,-0.006122165359556675,0.01171196810901165,-0.0031941730994731188
17813561117362,3.2118215560913086,-7.898471355438232,5.408501625061035,-0.012776692397892475,0.013042873702943325,-0.0018632676219567657
17813562354500,3.201047658920288,-7.848193168640137,5.324704647064209,-0.01357523538172245,0.00984870083630085,-0.0023956298828125
17813563591650,3.24414324760437,-7.825448513031006,5.352238178253174,-0.00984870083630085,0.010114881210029125,-0.0066545275039970875
17813564828787,3.2405519485473633,-7.833827972412109,5.34625244140625,-0.014906140975654125,0.010114881210029125,-0.0007985432748682797
17813566065912,3.2848448753356934,-7.791929721832275,5.351040840148926,-0.01171196810901165,0.0063883461989462376,-0.0002661811013240367
17813567303062,3.2537200450897217,-7.813477516174316,5.3594207763671875,-0.00452507846057415,0.0173017717897892,0.0015970865497365594
17813568540187,3.2764649391174316,-7.814674377441406,5.351040840148926,-0.00958251953125,0.013042873702943325,0.0015970865497365594
17813569777350,3.2872390747070312,-7.823054313659668,5.34625244140625,-0.0157046839594841,0.00931633822619915,0.0015970865497365594
17813571014487,3.2872390747070312,-7.785943984985352,5.3594207763671875,-0.0090501569211483,0.012776692397892475,0.007985432632267475
17813572251625,3.2872390747070312,-7.797914981842041,5.30195951461792,-0.008783976547420025,0.012776692397892475,0.006122165359556675
17813573488787,3.292027473449707,-7.844602108001709,5.284003257751465,-0.00931633822619915,0.00931633822619915,0.008783976547420025
17813574725912,3.3255462646484375,-7.8529815673828125,5.331887245178223,-0.007453070487827063,0.005855984054505825,0.007985432632267475
17813575963062,3.293224573135376,-7.8541789054870605,5.337872505187988,-0.005057440605014563,0.01463996060192585,0.0005323622026480734
17813577200187,3.3028013706207275,-7.8326311111450195,5.336675643920898,-0.00958251953125,0.0181003138422966,0.007453070487827063
17813578437350,3.2980129718780518,-7.8541789054870605,5.316324710845947,-0.00984870083630085,0.01597086526453495,0.007453070487827063
17813579674462,3.2740707397460938,-7.875726699829102,5.305551052093506,-0.0063883461989462376,0.01171196810901165,0.005589802749454975
17813580911637,3.2848448753356934,-7.882909297943115,5.368997573852539,-0.0090501569211483,0.0157046839594841,0.006122165359556675
17813582148750,3.265691041946411,-7.863755702972412,5.339069843292236,-0.0119781494140625,0.015438503585755825,0.007453070487827063
17813583385887,3.2549171447753906,-7.837419509887695,5.370194435119629,-0.01357523538172245,0.0157046839594841,0.008517795242369175
17813584623062,3.2525229454040527,-7.82066011428833,5.33547830581665,-0.013042873702943325,0.01224433071911335,0.0053236219100654125
17813585860187,3.246537446975708,-7.808689117431641,5.368997573852539,-0.00984870083630085,0.007453070487827063,0.0037265352439135313
17813587097325,3.2094273567199707,-7.825448513031006,5.33547830581665,-0.010913425125181675,0.00984870083630085,0.008251613937318325
17813588334462,3.2321722507476807,-7.846996307373047,5.351040840148926,-0.012776692397892475,0.012510511092841625,0.0071868896484375
17813589571600,3.2573113441467285,-7.817068576812744,5.389348030090332,-0.01357523538172245,0.0114457868039608,0.0090501569211483
17813590808750,3.224989652633667,-7.819462776184082,5.323507308959961,-0.015438503585755825,0.010647243820130825,0.0071868896484375
17813592045875,3.242946147918701,-7.843404769897461,5.329493045806885,-0.01756795309484005,0.0119781494140625,0.0031941730994731188
17813593283025,3.2405519485473633,-7.814674377441406,5.295974254608154,-0.013309055007994175,0.012776692397892475,0.0037265352439135313
17813594520175,3.246537446975708,-7.813477516174316,5.3330841064453125,-0.010114881210029125,0.010381062515079975,0.008517795242369175
17813595757300,3.2537200450897217,-7.815871715545654,5.323507308959961,-0.01597086526453495,0.01224433071911335,0.0010647244052961469
17813596994450,3.246537446975708,-7.7883381843566895,5.294776916503906,-0.0114457868039608,0.01410759799182415,0.0039927163161337376
17813598231587,3.246537446975708,-7.791929721832275,5.274426460266113,-0.008517795242369175,0.012510511092841625,0.005057440605014563
17813599468737,3.264493942260742,-7.783549785614014,5.287594318389893,-0.01410759799182415,0.0181003138422966,0.0042588976211845875
17813600705875,3.2166099548339844,-7.8098859786987305,5.258863925933838,-0.01650322787463665,0.0162370465695858,0.003460354171693325
17813601943012,3.223792552947998,-7.8110833168029785,5.243301868438721,-0.01357523538172245,0.0119781494140625,0.0037265352439135313
17813603180162,3.246537446975708,-7.808689117431641,5.274426460266113,-0.00958251953125,0.014906140975654125,0.0031941730994731188
17813604417300,3.251325845718384,-7.7895355224609375,5.275623321533203,-0.010913425125181675,0.0157046839594841,0.0
17813605654425,3.222595453262329,-7.796718120574951,5.293580055236816,-0.012510511092841625,0.0162370465695858,-0.0026618109550327063
17813606891587,3.2620997428894043,-7.77756404876709,5.319916248321533,-0.0090501569211483,0.0071868896484375,0.0010647244052961469
17813608128725,3.24414324760437,-7.803900718688965,5.310339450836182,-0.005589802749454975,0.00931633822619915,0.0042588976211845875
17813609365875,3.2118215560913086,-7.779958248138428,5.306747913360596,-0.0018632676219567657,0.0114457868039608,0.008517795242369175
17813610603012,3.2309751510620117,-7.801506519317627,5.297171115875244,-0.004791259765625,0.014906140975654125,0.0029279920272529125
17813611840137,3.270479440689087,-7.838616371154785,5.310339450836182,-0.0063883461989462376,0.01357523538172245,0.003460354171693325
17813613077275,3.2405519485473633,-7.8098859786987305,5.275623321533203,-0.010114881210029125,0.01224433071911335,0.0037265352439135313
17813614314437,3.2800562381744385,-7.799112319946289,5.263652324676514,-0.00958251953125,0.00984870083630085,0.005855984054505825
17813615551562,3.2549171447753906,-7.817068576812744,5.3115363121032715,-0.0066545275039970875,0.008517795242369175,0.005589802749454975
17813616788700,3.269282341003418,-7.7655930519104,5.305551052093506,-0.005589802749454975,0.00984870083630085,0.0026618109550327063
17813618025850,3.245340347290039,-7.756016254425049,5.323507308959961,-0.007985432632267475,0.008251613937318325,0.0037265352439135313
17813619262987,3.2620997428894043,-7.770381450653076,5.317522048950195,-0.0071868896484375,0.00931633822619915,0.0007985432748682797
17813620500112,3.2632968425750732,-7.758410453796387,5.309142112731934,-0.0023956298828125,0.007985432632267475,0.0037265352439135313
17813621737275,3.268085241317749,-7.757213592529297,5.3127336502075195,-0.0031941730994731188,0.008783976547420025,0.0018632676219567657
17813622974425,3.290830373764038,-7.775169849395752,5.299565315246582,-0.004791259765625,0.0114457868039608,0.0039927163161337376
17813624211562,3.268085241317749,-7.723694801330566,5.317522048950195,-0.0077192517928779125,0.010647243820130825,0.008517795242369175
17813625448712,3.2884361743927,-7.753622055053711,5.288791656494141,-0.0071868896484375,0.010381062515079975,0.0039927163161337376
17813626685850,3.2405519485473633,-7.748833656311035,5.33547830581665,-0.0013309054775163531,0.008251613937318325,0.0002661811013240367
17813627922987,3.2393548488616943,-7.722497463226318,5.3127336502075195,0.0,0.010381062515079975,0.005057440605014563
17813629160137,3.228580951690674,-7.750030994415283,5.30195951461792,-0.0039927163161337376,0.0053236219100654125,0.00931633822619915
17813630397262,3.2620997428894043,-7.7428483963012695,5.293580055236816,-0.007985432632267475,0.0138414166867733,0.0015970865497365594
17813631634425,3.2405519485473633,-7.750030994415283,5.303156852722168,-0.005589802749454975,0.01171196810901165,0.0002661811013240367
17813632871562,3.272873640060425,-7.751227855682373,5.286397457122803,-0.005589802749454975,0.008251613937318325,0.0023956298828125
17813634108700,3.248931646347046,-7.779958248138428,5.307945251464844,-0.0063883461989462376,0.0090501569211483,0.008517795242369175
17813635345850,3.292027473449707,-7.748833656311035,5.337872505187988,-0.0071868896484375,0.008783976547420025,0.00984870083630085
17813636582975,3.2094273567199707,-7.785943984985352,5.315127849578857,-0.005057440605014563,0.008783976547420025,0.0071868896484375
17813637820112,3.245340347290039,-7.790732383728027,5.345055103302002,-0.0002661811013240367,0.013042873702943325,0.0029279920272529125
17813639057275,3.2106244564056396,-7.791929721832275,5.279214859008789,-0.0029279920272529125,0.00692070834338665,0.0042588976211845875
17813640294400,3.2561142444610596,-7.729680061340332,5.287594318389893,-0.0010647244052961469,0.0114457868039608,0.00452507846057415
17813641531550,3.2405519485473633,-7.8098859786987305,5.293580055236816,-0.0007985432748682797,0.010647243820130825,0.005855984054505825
17813642768675,3.270479440689087,-7.779958248138428,5.295974254608154,-0.0010647244052961469,0.0053236219100654125,0.0077192517928779125
17813644005837,3.226186752319336,-7.796718120574951,5.3115363121032715,-0.0021294488105922937,0.01224433071911335,0.007453070487827063
17813645242962,3.2345664501190186,-7.82066011428833,5.286397457122803,-0.0042588976211845875,0.010381062515079975,0.00692070834338665
17813646480112,3.245340347290039,-7.784747123718262,5.270834922790527,-0.003460354171693325,0.0029279920272529125,0.0063883461989462376
17813647717250,3.2130186557769775,-7.790732383728027,5.288791656494141,-0.0018632676219567657,0.0018632676219567657,0.0090501569211483
17813648954400,3.2345664501190186,-7.782352447509766,5.284003257751465,-0.0071868896484375,0.0119781494140625,0.008517795242369175
17813650191525,3.22139835357666,-7.7871413230896,5.331887245178223,-0.0026618109550327063,0.007985432632267475,0.005855984054505825
17813651428675,3.1914708614349365,-7.8110833168029785,5.239710330963135,-0.0031941730994731188,0.005589802749454975,0.0063883461989462376
17813652665812,3.223792552947998,-7.77756404876709,5.261258125305176,-0.0010647244052961469,0.00692070834338665,0.01224433071911335
17813653902950,3.2369606494903564,-7.799112319946289,5.2696380615234375,-0.005855984054505825,0.006122165359556675,0.010114881210029125
17813655140112,3.2130186557769775,-7.827842712402344,5.286397457122803,-0.0021294488105922937,0.0071868896484375,0.007453070487827063
17813656377237,3.2142157554626465,-7.803900718688965,5.303156852722168,-0.0029279920272529125,0.0010647244052961469,0.00984870083630085
17813657614387,3.2309751510620117,-7.7871413230896,5.293580055236816,-0.0031941730994731188,0.0037265352439135313,0.014373779296875
17813658851537,3.245340347290039,-7.795520782470703,5.286397457122803,-0.0021294488105922937,0.00692070834338665,0.015172322280704975
17813660088662,3.2609026432037354,-7.8098859786987305,5.250484466552734,-0.0013309054775163531,0.006122165359556675,0.0204959437251091
17813661325812,3.269282341003418,-7.795520782470703,5.273229122161865,-0.0037265352439135313,0.00931633822619915,0.0162370465695858
17813662562950,3.223792552947998,-7.791929721832275,5.293580055236816,-0.00958251953125,0.010114881210029125,0.013042873702943325
17813663800100,3.223792552947998,-7.791929721832275,5.281609058380127,-0.0021294488105922937,0.01171196810901165,0.0157046839594841
17813665037237,3.2585084438323975,-7.82066011428833,5.276820659637451,-0.0013309054775163531,0.0063883461989462376,0.01597086526453495
17813666274362,3.2405519485473633,-7.793126583099365,5.306747913360596,-0.0021294488105922937,0.005057440605014563,0.014373779296875
17813667511525,3.246537446975708,-7.817068576812744,5.286397457122803,0.0,0.0013309054775163531,0.0173017717897892
17813668748637,3.2142157554626465,-7.771578788757324,5.310339450836182,-0.0010647244052961469,0.00452507846057415,0.0186326764523983
17813669985787,3.228580951690674,-7.7655930519104,5.330689907073975,-0.0010647244052961469,0.0010647244052961469,0.0162370465695858
17813671222950,3.2609026432037354,-7.778761386871338,5.309142112731934,-0.0013309054775163531,0.0053236219100654125,0.012510511092841625
17813672460087,3.246537446975708,-7.778761386871338,5.307945251464844,-0.0029279920272529125,0.0053236219100654125,0.01783413253724575
17813673697237,3.2178070545196533,-7.799112319946289,5.287594318389893,-0.0021294488105922937,0.0037265352439135313,0.0173017717897892
17813674934362,3.227383852005005,-7.795520782470703,5.304353713989258,-0.0007985432748682797,0.0023956298828125,0.01650322787463665
17813676171512,3.2130186557769775,-7.782352447509766,5.297171115875244,0.0023956298828125,0.0031941730994731188,0.013309055007994175
17813677408650,3.2357635498046875,-7.805097579956055,5.328295707702637,-0.0005323622026480734,0.0039927163161337376,0.01117960549890995
17813678645800,3.228580951690674,-7.805097579956055,5.34744930267334,-0.005855984054505825,0.0026618109550327063,0.0090501569211483
17813679882925,3.2154128551483154,-7.808689117431641,5.286397457122803,-0.0002661811013240367,0.0002661811013240367,0.010381062515079975
17813681120087,3.183091163635254,-7.803900718688965,5.298368453979492,0.0013309054775163531,0.0026618109550327063,0.00958251953125
17813682357225,3.22139835357666,-7.837419509887695,5.286397457122803,0.0026618109550327063,0.0023956298828125,0.0063883461989462376
17813683594337,3.1759085655212402,-7.849390506744385,5.33547830581665,0.0066545275039970875,0.003460354171693325,0.004791259765625
17813684831487,3.1902737617492676,-7.806294918060303,5.3115363121032715,0.0042588976211845875,0.0010647244052961469,0.003460354171693325
17813686068625,3.207033157348633,-7.856573104858398,5.317522048950195,0.0002661811013240367,0.003460354171693325,-0.0015970865497365594
17813687305800,3.2190041542053223,-7.844602108001709,5.331887245178223,-0.003460354171693325,0.0,-0.0002661811013240367
17813688542937,3.2525229454040527,-7.844602108001709,5.3127336502075195,-0.0021294488105922937,0.0037265352439135313,0.0018632676219567657
17813689780075,3.2585084438323975,-7.863755702972412,5.317522048950195,0.0018632676219567657,0.008783976547420025,-0.0021294488105922937
17813691017200,3.202244758605957,-7.886500358581543,5.3127336502075195,0.0010647244052961469,-0.0002661811013240367,-0.0042588976211845875
17813692254350,3.264493942260742,-7.851784706115723,5.330689907073975,0.0005323622026480734,0.0013309054775163531,-0.0077192517928779125
17813693491512,3.2549171447753906,-7.8314337730407715,5.3582234382629395,-0.0039927163161337376,0.005855984054505825,-0.0090501569211483
17813694728650,3.226186752319336,-7.858967304229736,5.33547830581665,-0.0029279920272529125,0.0042588976211845875,-0.0053236219100654125
17813695965787,3.228580951690674,-7.860164165496826,5.343858242034912,-0.0039927163161337376,0.0013309054775163531,-0.008783976547420025
17813697202925,3.2166099548339844,-7.843404769897461,5.330689907073975,-0.0005323622026480734,0.0018632676219567657,-0.015172322280704975
17813698440050,3.226186752319336,-7.841010570526123,5.307945251464844,-0.0029279920272529125,0.0018632676219567657,-0.01357523538172245
17813699677187,3.227383852005005,-7.8529815673828125,5.340266704559326,-0.0031941730994731188,0.0029279920272529125,-0.0114457868039608
17813700914325,3.2405519485473633,-7.869740962982178,5.341464042663574,0.005057440605014563,0.0039927163161337376,-0.01117960549890995
17813702151475,3.1926679611206055,-7.808689117431641,5.336675643920898,0.0015970865497365594,0.004791259765625,-0.01463996060192585
17813703388612,3.246537446975708,-7.802703380584717,5.324704647064209,0.0026618109550327063,0.0026618109550327063,-0.015172322280704975
17813704625762,3.199850559234619,-7.779958248138428,5.331887245178223,0.0053236219100654125,0.0023956298828125,-0.01650322787463665
17813705862912,3.199850559234619,-7.735665798187256,5.348646640777588,-0.0010647244052961469,-0.0015970865497365594,-0.01943122036755085
17813707100050,3.228580951690674,-7.758410453796387,5.3127336502075195,0.0013309054775163531,-0.0039927163161337376,-0.014906140975654125
17813708337200,3.1735143661499023,-7.801506519317627,5.293580055236816,0.005855984054505825,0.003460354171693325,-0.015172322280704975
17813709574325,3.1651346683502197,-7.775169849395752,5.303156852722168,0.006122165359556675,0.0013309054775163531,-0.0247548408806324
17813710811487,3.1974563598632812,-7.740454196929932,5.3127336502075195,0.0037265352439135313,-0.0023956298828125,-0.0263519287109375
17813712048612,3.1866824626922607,-7.771578788757324,5.34744930267334,0.005057440605014563,0.0039927163161337376,-0.0173017717897892
17813713285775,3.222595453262329,-7.806294918060303,5.313930511474609,0.00931633822619915,0.006122165359556675,-0.01783413253724575
17813714522900,3.2549171447753906,-7.739256858825684,5.341464042663574,0.01463996060192585,0.006122165359556675,-0.0196974016726017
17813715760025,3.2525229454040527,-7.762001991271973,5.3594207763671875,0.00958251953125,0.0031941730994731188,-0.02182685025036335
17813716997187,3.2333693504333496,-7.812280178070068,5.35702657699585,0.00692070834338665,0.00452507846057415,-0.023956298828125
17813718234325,3.2142157554626465,-7.818265914916992,5.351040840148926,0.010913425125181675,0.008517795242369175,-0.0244886614382267
17813719471475,3.246537446975708,-7.790732383728027,5.353435039520264,0.01650322787463665,0.010114881210029125,-0.02502102218568325
17813720708600,3.2357635498046875,-7.8098859786987305,5.400122165679932,0.01357523538172245,0.0039927163161337376,-0.02422248013317585
17813721945750,3.2118215560913086,-7.838616371154785,5.370194435119629,0.00958251953125,0.005589802749454975,-0.0228915736079216
17813723182900,3.1902737617492676,-7.8098859786987305,5.365406036376953,0.0114457868039608,0.007453070487827063,-0.0215606689453125
17813724420037,3.222595453262329,-7.830236911773682,5.372588634490967,0.0119781494140625,0.005589802749454975,-0.02182685025036335
17813725657187,3.2345664501190186,-7.8326311111450195,5.366603374481201,0.0114457868039608,0.005855984054505825,-0.0215606689453125
17813726894312,3.227383852005005,-7.806294918060303,5.342660903930664,0.0114457868039608,0.010913425125181675,-0.0223592109978199
17813728131450,3.2309751510620117,-7.845798969268799,5.366603374481201,0.0114457868039608,0.00692070834338665,-0.0247548408806324
17813729368612,3.2369606494903564,-7.825448513031006,5.35702657699585,0.010647243820130825,0.008251613937318325,-0.0252872034907341
17813730605737,3.2597055435180664,-7.785943984985352,5.372588634490967,0.013309055007994175,0.010114881210029125,-0.0220930315554142
17813731842862,3.251325845718384,-7.833827972412109,5.319916248321533,0.010381062515079975,0.003460354171693325,-0.01943122036755085
17813733080025,3.2190041542053223,-7.835025310516357,5.328295707702637,0.00931633822619915,0.01224433071911335,-0.0215606689453125
17813734317175,3.24414324760437,-7.813477516174316,5.35702657699585,0.010647243820130825,0.0181003138422966,-0.023956298828125
17813735554287,3.2297780513763428,-7.818265914916992,5.353435039520264,0.01357523538172245,0.00958251953125,-0.0186326764523983
17813736791462,3.248931646347046,-7.82066011428833,5.368997573852539,0.0090501569211483,0.008783976547420025,-0.0181003138422966
17813738028600,3.2573113441467285,-7.784747123718262,5.337872505187988,0.0173017717897892,0.0090501569211483,-0.0162370465695858
17813739265725,3.2417490482330322,-7.7763671875,5.339069843292236,0.0162370465695858,0.00692070834338665,-0.01756795309484005
17813740502875,3.245340347290039,-7.7883381843566895,5.378574371337891,0.014373779296875,0.00958251953125,-0.01943122036755085
17813741740025,3.2357635498046875,-7.841010570526123,5.3582234382629395,0.01597086526453495,0.01117960549890995,-0.0186326764523983
17813742977162,3.2345664501190186,-7.82185697555542,5.331887245178223,0.01224433071911335,0.0119781494140625,-0.014906140975654125
17813744214300,3.246537446975708,-7.817068576812744,5.366603374481201,0.007985432632267475,0.012510511092841625,-0.01783413253724575
17813745451450,3.2632968425750732,-7.818265914916992,5.336675643920898,0.00984870083630085,0.0114457868039608,-0.015438503585755825
17813746688587,3.2609026432037354,-7.826645374298096,5.328295707702637,0.012776692397892475,0.008251613937318325,-0.014906140975654125
17813747925737,3.2788591384887695,-7.818265914916992,5.3342814445495605,0.012776692397892475,0.01357523538172245,-0.02129448764026165
17813749162850,3.2094273567199707,-7.8326311111450195,5.339069843292236,0.00931633822619915,0.01597086526453495,-0.0191650390625
17813750400012,3.1759085655212402,-7.843404769897461,5.324704647064209,0.00958251953125,0.014906140975654125,-0.01357523538172245
17813751637150,3.2345664501190186,-7.876923561096191,5.3127336502075195,0.0119781494140625,0.0173017717897892,-0.012510511092841625
17813752874287,3.2537200450897217,-7.833827972412109,5.315127849578857,0.01224433071911335,0.01117960549890995,-0.014906140975654125
17813754111437,3.250128746032715,-7.851784706115723,5.307945251464844,0.008517795242369175,0.01463996060192585,-0.010114881210029125
17813755348562,3.226186752319336,-7.86614990234375,5.349843502044678,0.010381062515079975,0.0173017717897892,-0.013309055007994175
17813756585725,3.2166099548339844,-7.879317760467529,5.322310447692871,0.015172322280704975,0.01703559048473835,-0.01224433071911335
17813757822850,3.228580951690674,-7.858967304229736,5.353435039520264,0.00958251953125,0.01783413253724575,-0.01357523538172245
17813759060000,3.220201253890991,-7.857769966125488,5.349843502044678,0.0029279920272529125,0.02022976242005825,-0.015172322280704975
17813760297150,3.2609026432037354,-7.8529815673828125,5.337872505187988,0.008517795242369175,0.023956298828125,-0.01171196810901165
17813761534287,3.205836057662964,-7.827842712402344,5.374982833862305,0.010913425125181675,0.01889885775744915,-0.00692070834338665
17813762771412,3.247734546661377,-7.862558364868164,5.348646640777588,0.0077192517928779125,0.02182685025036335,-0.005855984054505825
17813764008562,3.2573113441467285,-7.830236911773682,5.328295707702637,0.006122165359556675,0.0220930315554142,-0.0071868896484375
17813765245712,3.2393548488616943,-7.835025310516357,5.3127336502075195,0.00692070834338665,0.0263519287109375,-0.010647243820130825
17813766482850,3.220201253890991,-7.836222171783447,5.361814975738525,0.0037265352439135313,0.0220930315554142,-0.010647243820130825
17813767719987,3.268085241317749,-7.8098859786987305,5.348646640777588,0.0090501569211483,0.02369011752307415,-0.0090501569211483
17813768957150,3.264493942260742,-7.82185697555542,5.342660903930664,0.0039927163161337376,0.0223592109978199,-0.007453070487827063
17813770194275,3.247734546661377,-7.839813709259033,5.363011837005615,0.0018632676219567657,0.0263519287109375,-0.005057440605014563
17813771431425,3.2393548488616943,-7.815871715545654,5.342660903930664,-0.0005323622026480734,0.02129448764026165,-0.00984870083630085
17813772668550,3.251325845718384,-7.812280178070068,5.409698963165283,0.0037265352439135313,0.01996358297765255,-0.0090501569211483
17813773905700,3.2321722507476807,-7.823054313659668,5.349843502044678,0.005057440605014563,0.02608574740588665,-0.0042588976211845875
17813775142837,3.2405519485473633,-7.8326311111450195,5.324704647064209,0.004791259765625,0.0314093679189682,-0.004791259765625
17813776379987,3.2393548488616943,-7.856573104858398,5.342660903930664,-0.0007985432748682797,0.033272635191679,-0.008517795242369175
17813777617137,3.2740707397460938,-7.845798969268799,5.35702657699585,-0.0021294488105922937,0.0276828333735466,-0.0090501569211483
17813778854275,3.2345664501190186,-7.830236911773682,5.340266704559326,0.0002661811013240367,0.02661811001598835,-0.00984870083630085
17813780091412,3.268085241317749,-7.857769966125488,5.331887245178223,-0.0018632676219567657,0.0314093679189682,-0.0042588976211845875
17813781328562,3.250128746032715,-7.857769966125488,5.3594207763671875,-0.0066545275039970875,0.0295461006462574,-0.0013309054775163531
17813782565700,3.1962592601776123,-7.8529815673828125,5.328295707702637,-0.005855984054505825,0.0258195661008358,-0.0023956298828125
17813783802825,3.226186752319336,-7.818265914916992,5.313930511474609,-0.0023956298828125,0.02901373989880085,-0.003460354171693325
17813785039975,3.2106244564056396,-7.8110833168029785,5.354632377624512,-0.0021294488105922937,0.0346035435795784,-0.004791259765625
17813786277125,3.242946147918701,-7.868544101715088,5.3809685707092285,-0.004791259765625,0.0324740931391716,-0.005855984054505825
17813787514250,3.2381577491760254,-7.829039573669434,5.310339450836182,-0.008783976547420025,0.033272635191679,-0.0015970865497365594
17813788751400,3.247734546661377,-7.815871715545654,5.2911858558654785,-0.007453070487827063,0.0327402763068676,-0.0063883461989462376
17813789988550,3.2309751510620117,-7.842207908630371,5.2899885177612305,-0.00931633822619915,0.0343373604118824,-0.0010647244052961469
17813791225687,3.2776620388031006,-7.805097579956055,5.30195951461792,-0.010114881210029125,0.0372653529047966,0.0
17813792462825,3.2752678394317627,-7.7763671875,5.361814975738525,-0.013042873702943325,0.0367329902946949,-0.0039927163161337376
17813793699987,3.2776620388031006,-7.748833656311035,5.299565315246582,-0.00958251953125,0.0375315360724926,-0.007985432632267475
17813794937112,3.2740707397460938,-7.7643961906433105,5.3594207763671875,-0.007453070487827063,0.0322079136967659,-0.0042588976211845875
17813796174262,3.293224573135376,-7.7763671875,5.318718910217285,-0.010647243820130825,0.0343373604118824,0.0010647244052961469
17813797411400,3.272873640060425,-7.775169849395752,5.3115363121032715,-0.00984870083630085,0.0330064557492733,0.0002661811013240367
17813798648550,3.3207578659057617,-7.791929721832275,5.325901508331299,-0.010114881210029125,0.0316755510866642,0.0
17813799885687,3.2884361743927,-7.773972988128662,5.294776916503906,-0.0063883461989462376,0.0338049978017807,0.0002661811013240367
17813801122837,3.3004071712493896,-7.753622055053711,5.34744930267334,-0.008251613937318325,0.0343373604118824,0.0037265352439135313
17813802359950,3.3016042709350586,-7.762001991271973,5.328295707702637,-0.014373779296875,0.0351359061896801,0.0071868896484375
17813803597112,3.3063926696777344,-7.783549785614014,5.349843502044678,-0.010913425125181675,0.0362006276845932,0.004791259765625
17813804834250,3.3446998596191406,-7.783549785614014,5.377377033233643,-0.00692070834338665,0.0324740931391716,0.0039927163161337376
17813806071387,3.312378168106079,-7.7643961906433105,5.306747913360596,-0.01117960549890995,0.0348697230219841,0.007453070487827063
17813807308537,3.289633274078369,-7.759607791900635,5.342660903930664,-0.00984870083630085,0.0314093679189682,0.00692070834338665
17813808545662,3.3016042709350586,-7.759607791900635,5.373785972595215,-0.0066545275039970875,0.0319417305290699,0.0037265352439135313
17813809782825,3.3039984703063965,-7.758410453796387,5.309142112731934,-0.0066545275039970875,0.0314093679189682,0.005855984054505825
17813811019962,3.317166566848755,-7.797914981842041,5.34625244140625,-0.00958251953125,0.0364668108522892,0.008783976547420025
17813812257087,3.2848448753356934,-7.779958248138428,5.364209175109863,-0.005855984054505825,0.0354020856320858,0.012510511092841625
17813813494250,3.3446998596191406,-7.790732383728027,5.321113109588623,-0.0029279920272529125,0.0340711809694767,0.0090501569211483
17813814731375,3.357867956161499,-7.800309181213379,5.2684407234191895,-0.0077192517928779125,0.0354020856320858,0.013309055007994175
17813815968525,3.3243491649627686,-7.759607791900635,5.30195951461792,-0.01171196810901165,0.0340711809694767,0.0162370465695858
17813817205675,3.3291375637054443,-7.7871413230896,5.328295707702637,-0.015172322280704975,0.0314093679189682,0.010381062515079975
17813818442812,3.332728862762451,-7.771578788757324,5.33547830581665,-0.013042873702943325,0.0311431884765625,0.0077192517928779125
17813819679962,3.361459255218506,-7.775169849395752,5.279214859008789,-0.008517795242369175,0.02901373989880085,0.01171196810901165
17813820917087,3.3698389530181885,-7.773972988128662,5.318718910217285,-0.008517795242369175,0.02981228195130825,0.010381062515079975
17813822154262,3.3291375637054443,-7.77756404876709,5.321113109588623,-0.008783976547420025,0.0295461006462574,0.012510511092841625
17813823391387,3.33392596244812,-7.744045257568359,5.340266704559326,-0.01224433071911335,0.0292799212038517,0.0119781494140625
17813824628525,3.3219549655914307,-7.781155586242676,5.355829238891602,-0.008783976547420025,0.02981228195130825,0.0119781494140625
17813825865675,3.3195607662200928,-7.791929721832275,5.330689907073975,-0.008251613937318325,0.0282151959836483,0.01703559048473835
17813827102787,3.3458969593048096,-7.782352447509766,5.322310447692871,-0.008251613937318325,0.0282151959836483,0.01943122036755085
17813828339950,3.315969467163086,-7.736862659454346,5.3594207763671875,-0.0071868896484375,0.02794901467859745,0.0167694091796875
17813829577075,3.3303346633911133,-7.770381450653076,5.352238178253174,-0.010114881210029125,0.023956298828125,0.01756795309484005
17813830814237,3.354276657104492,-7.782352447509766,5.34744930267334,-0.008251613937318325,0.0268842913210392,0.014906140975654125
17813832051375,3.315969467163086,-7.753622055053711,5.3342814445495605,-0.00692070834338665,0.0252872034907341,0.0173017717897892
17813833288525,3.3482911586761475,-7.754819393157959,5.349843502044678,-0.010114881210029125,0.02315775491297245,0.01597086526453495
17813834525675,3.3722331523895264,-7.826645374298096,5.324704647064209,-0.007453070487827063,0.02182685025036335,0.013309055007994175
17813835762787,3.3518824577331543,-7.760804653167725,5.322310447692871,-0.0077192517928779125,0.01943122036755085,0.0173017717897892
17813836999950,3.3279404640197754,-7.771578788757324,5.325901508331299,-0.008783976547420025,0.0167694091796875,0.0196974016726017
17813838237087,3.3698389530181885,-7.779958248138428,5.3115363121032715,-0.0031941730994731188,0.01889885775744915,0.015172322280704975
17813839474225,3.3291375637054443,-7.7883381843566895,5.298368453979492,-0.0063883461989462376,0.02022976242005825,0.014906140975654125
17813840711350,3.3435027599334717,-7.784747123718262,5.329493045806885,-0.005589802749454975,0.0181003138422966,0.0191650390625
17813841948525,3.35667085647583,-7.799112319946289,5.351040840148926,-0.0042588976211845875,0.01357523538172245,0.02022976242005825
17813843185650,3.3063926696777344,-7.7871413230896,5.299565315246582,-0.0021294488105922937,0.013309055007994175,0.02262539230287075
17813844422800,3.312378168106079,-7.808689117431641,5.324704647064209,-0.007453070487827063,0.01357523538172245,0.0157046839594841
17813845659950,3.3279404640197754,-7.785943984985352,5.324704647064209,-0.00692070834338665,0.012776692397892475,0.01597086526453495
17813846897075,3.3506853580474854,-7.7871413230896,5.315127849578857,-0.0066545275039970875,0.013309055007994175,0.01836649514734745
17813848134225,3.313575267791748,-7.784747123718262,5.341464042663574,-0.008517795242369175,0.014373779296875,0.01463996060192585
17813849371375,3.3315317630767822,-7.7643961906433105,5.33547830581665,-0.004791259765625,0.010647243820130825,0.0173017717897892
17813850608512,3.3243491649627686,-7.77756404876709,5.368997573852539,-0.003460354171693325,0.007453070487827063,0.01783413253724575
17813851845637,3.341108560562134,-7.783549785614014,5.354632377624512,-0.0023956298828125,0.0114457868039608,0.01836649514734745
17813853082775,3.3494882583618164,-7.772775650024414,5.331887245178223,0.0013309054775163531,0.0119781494140625,0.012776692397892475
17813854319925,3.355473756790161,-7.759607791900635,5.319916248321533,0.0026618109550327063,0.010381062515079975,0.013042873702943325
17813855557062,3.35667085647583,-7.735665798187256,5.331887245178223,-0.0026618109550327063,0.00931633822619915,0.0167694091796875
17813856794225,3.3937809467315674,-7.8110833168029785,5.366603374481201,-0.0010647244052961469,0.005589802749454975,0.01357523538172245
17813858031337,3.3530795574188232,-7.781155586242676,5.305551052093506,-0.004791259765625,0.007985432632267475,0.01410759799182415
17813859268487,3.3662476539611816,-7.784747123718262,5.322310447692871,-0.0029279920272529125,0.00692070834338665,0.010114881210029125
17813860505637,3.359065055847168,-7.797914981842041,5.317522048950195,0.0021294488105922937,0.0037265352439135313,0.010381062515079975
17813861742775,3.3435027599334717,-7.7895355224609375,5.339069843292236,0.0007985432748682797,0.0031941730994731188,0.0071868896484375
17813862979937,3.3518824577331543,-7.7895355224609375,5.3594207763671875,0.0023956298828125,0.005855984054505825,0.008517795242369175
17813864217062,3.3303346633911133,-7.802703380584717,5.33547830581665,0.0002661811013240367,0.005855984054505825,0.008517795242369175
17813865454200,3.337517261505127,-7.796718120574951,5.345055103302002,-0.0002661811013240367,-0.0015970865497365594,0.0090501569211483
17813866691362,3.318363666534424,-7.785943984985352,5.34625244140625,0.0026618109550327063,-0.005589802749454975,0.01597086526453495
17813867928487,3.336320161819458,-7.7763671875,5.370194435119629,0.0039927163161337376,-0.0026618109550327063,0.014906140975654125
17813869165637,3.33392596244812,-7.7631988525390625,5.370194435119629,0.0021294488105922937,-0.0026618109550327063,0.01357523538172245
17813870402775,3.309983968734741,-7.753622055053711,5.410895824432373,-0.008251613937318325,-0.0023956298828125,0.010381062515079975
17813871639925,3.3267433643341064,-7.735665798187256,5.378574371337891,0.0010647244052961469,-0.0029279920272529125,0.013309055007994175
17813872877050,3.290830373764038,-7.7655930519104,5.330689907073975,-0.0015970865497365594,-0.0021294488105922937,0.007985432632267475
17813874114187,3.3662476539611816,-7.756016254425049,5.3797712326049805,-0.0015970865497365594,-0.0066545275039970875,0.00931633822619915
17813875351325,3.3219549655914307,-7.745242595672607,5.321113109588623,-0.0023956298828125,-0.007453070487827063,0.0066545275039970875
17813876588500,3.3662476539611816,-7.7643961906433105,5.321113109588623,-0.0005323622026480734,-0.00692070834338665,0.0063883461989462376
17813877825625,3.3315317630767822,-7.735665798187256,5.313930511474609,0.003460354171693325,-0.0063883461989462376,0.0090501569211483
17813879062775,3.3004071712493896,-7.752425193786621,5.34744930267334,0.010381062515079975,-0.0071868896484375,0.01357523538172245
17813880299900,3.3506853580474854,-7.770381450653076,5.321113109588623,0.0023956298828125,-0.00958251953125,0.01171196810901165
17813881537037,3.292027473449707,-7.791929721832275,5.305551052093506,0.0031941730994731188,-0.012510511092841625,0.008517795242369175
17813882774187,3.2848448753356934,-7.7871413230896,5.285200119018555,0.0053236219100654125,-0.013042873702943325,0.010647243820130825
17813884011350,3.3303346633911133,-7.815871715545654,5.260061264038086,0.0021294488105922937,-0.00958251953125,0.01463996060192585
17813885248475,3.294421672821045,-7.838616371154785,5.278017520904541,0.00692070834338665,-0.0114457868039608,0.0114457868039608
17813886485625,3.312378168106079,-7.85537576675415,5.279214859008789,0.0077192517928779125,-0.0157046839594841,0.0114457868039608
17813887722762,3.3051955699920654,-7.880515098571777,5.3127336502075195,0.0023956298828125,-0.01703559048473835,0.01224433071911335
17813888959912,3.3039984703063965,-7.8781208992004395,5.286397457122803,0.0018632676219567657,-0.0167694091796875,0.013309055007994175
17813890197025,3.2752678394317627,-7.858967304229736,5.325901508331299,-0.0005323622026480734,-0.01703559048473835,0.0167694091796875
17813891434187,3.2345664501190186,-7.886500358581543,5.317522048950195,0.0063883461989462376,-0.014906140975654125,0.0173017717897892
17813892671312,3.2620997428894043,-7.863755702972412,5.351040840148926,0.0037265352439135313,-0.015172322280704975,0.0138414166867733
17813893908475,3.2190041542053223,-7.841010570526123,5.337872505187988,0.0018632676219567657,-0.01783413253724575,0.01650322787463665
17813895145612,3.290830373764038,-7.858967304229736,5.331887245178223,0.005057440605014563,-0.02076212503015995,0.0173017717897892
17813896382750,3.2537200450897217,-7.868544101715088,5.318718910217285,-0.0013309054775163531,-0.01996358297765255,0.0196974016726017
17813897619900,3.26688814163208,-7.815871715545654,5.367800235748291,0.0066545275039970875,-0.0191650390625,0.0204959437251091
17813898857025,3.314772367477417,-7.793126583099365,5.321113109588623,0.0002661811013240367,-0.0191650390625,0.0191650390625
17813900094162,3.3231520652770996,-7.793126583099365,5.330689907073975,0.0010647244052961469,-0.01756795309484005,0.01703559048473835
17813901331325,3.3650505542755127,-7.7883381843566895,5.39054536819458,0.0021294488105922937,-0.02262539230287075,0.014373779296875
17813902568462,3.3016042709350586,-7.817068576812744,5.365406036376953,0.0018632676219567657,-0.0181003138422966,0.01889885775744915
17813903805600,3.296815872192383,-7.767987251281738,5.352238178253174,0.003460354171693325,-0.02315775491297245,0.01836649514734745
17813905042725,3.2992100715637207,-7.7428483963012695,5.365406036376953,0.008517795242369175,-0.02315775491297245,0.0191650390625
17813906279887,3.2609026432037354,-7.767987251281738,5.3809685707092285,0.005057440605014563,-0.0244886614382267,0.0204959437251091
17813907517025,3.2812533378601074,-7.77756404876709,5.34744930267334,0.0053236219100654125,-0.0244886614382267,0.0247548408806324
17813908754187,3.269282341003418,-7.772775650024414,5.321113109588623,0.0063883461989462376,-0.02182685025036335,0.0157046839594841
17813909991312,3.2752678394317627,-7.82185697555542,5.342660903930664,0.0026618109550327063,-0.02262539230287075,0.0215606689453125
17813911228462,3.2812533378601074,-7.841010570526123,5.323507308959961,0.0,-0.01756795309484005,0.02369011752307415
17813912465587,3.242946147918701,-7.82185697555542,5.322310447692871,0.0077192517928779125,-0.0258195661008358,0.01996358297765255
17813913702750,3.2309751510620117,-7.807491779327393,5.33547830581665,0.004791259765625,-0.02555338479578495,0.0228915736079216
17813914939875,3.2190041542053223,-7.841010570526123,5.309142112731934,0.0023956298828125,-0.0252872034907341,0.02369011752307415
17813916177025,3.2130186557769775,-7.861361503601074,5.305551052093506,0.00692070834338665,-0.02555338479578495,0.02022976242005825
17813917414175,3.1699230670928955,-7.86734676361084,5.328295707702637,0.005589802749454975,-0.0244886614382267,0.02076212503015995
17813918651300,3.1759085655212402,-7.880515098571777,5.305551052093506,0.003460354171693325,-0.01996358297765255,0.01783413253724575
17813919888462,3.156754970550537,-7.886500358581543,5.330689907073975,0.003460354171693325,-0.0247548408806324,0.014906140975654125
17813921125587,3.177105665206909,-7.879317760467529,5.340266704559326,0.0007985432748682797,-0.02315775491297245,0.01756795309484005
17813922362737,3.2309751510620117,-7.869740962982178,5.285200119018555,0.0007985432748682797,-0.0228915736079216,0.0138414166867733
17813923599875,3.207033157348633,-7.885303497314453,5.2899885177612305,-0.0002661811013240367,-0.02661811001598835,0.0157046839594841
17813924837025,3.1531636714935303,-7.861361503601074,5.305551052093506,-0.0010647244052961469,-0.02182685025036335,0.0173017717897892
17813926074162,3.1926679611206055,-7.868544101715088,5.345055103302002,-0.0026618109550327063,-0.02129448764026165,0.014906140975654125
17813927311275,3.2082302570343018,-7.839813709259033,5.342660903930664,0.0,-0.02262539230287075,0.010381062515079975
17813928548450,3.22139835357666,-7.833827972412109,5.3342814445495605,0.005057440605014563,-0.01756795309484005,0.00958251953125
17813929785587,3.202244758605957,-7.872135162353516,5.321113109588623,-0.0007985432748682797,-0.0196974016726017,0.008251613937318325
17813931022737,3.2106244564056396,-7.86614990234375,5.317522048950195,-0.0063883461989462376,-0.0220930315554142,0.005855984054505825
17813932259862,3.2190041542053223,-7.826645374298096,5.3330841064453125,-0.00452507846057415,-0.0244886614382267,0.00958251953125
17813933497000,3.1435868740081787,-7.826645374298096,5.35702657699585,0.0005323622026480734,-0.02422248013317585,0.010381062515079975
17813934734162,3.204638957977295,-7.807491779327393,5.377377033233643,-0.0026618109550327063,-0.02315775491297245,0.010647243820130825
17813935971287,3.2393548488616943,-7.794323921203613,5.378574371337891,-0.0029279920272529125,-0.0215606689453125,0.010647243820130825
17813937208450,3.2118215560913086,-7.845798969268799,5.360617637634277,-0.0026618109550327063,-0.02182685025036335,0.01117960549890995
17813938445575,3.207033157348633,-7.82066011428833,5.3342814445495605,-0.0023956298828125,-0.0220930315554142,0.005855984054505825
17813939682725,3.1914708614349365,-7.807491779327393,5.342660903930664,0.0010647244052961469,-0.02555338479578495,0.008251613937318325
17813940919862,3.201047658920288,-7.784747123718262,5.368997573852539,-0.005589802749454975,-0.0173017717897892,0.010381062515079975
17813942157012,3.205836057662964,-7.795520782470703,5.353435039520264,-0.005855984054505825,-0.01357523538172245,0.0039927163161337376
17813943394137,3.1890766620635986,-7.82066011428833,5.341464042663574,-0.0053236219100654125,-0.0196974016726017,0.0031941730994731188
17813944631300,3.2154128551483154,-7.808689117431641,5.3330841064453125,0.0002661811013240367,-0.013042873702943325,0.0029279920272529125
17813945868437,3.1950621604919434,-7.808689117431641,5.33547830581665,0.0026618109550327063,-0.01756795309484005,0.010647243820130825
17813947105587,3.2166099548339844,-7.812280178070068,5.343858242034912,0.0005323622026480734,-0.01756795309484005,0.00984870083630085
17813948342725,3.1890766620635986,-7.805097579956055,5.352238178253174,0.0031941730994731188,-0.012510511092841625,0.0063883461989462376
17813949579862,3.180696964263916,-7.806294918060303,5.361814975738525,0.005057440605014563,-0.012510511092841625,0.008251613937318325
17813950817012,3.1926679611206055,-7.785943984985352,5.337872505187988,-0.0007985432748682797,-0.01463996060192585,0.006122165359556675
17813952054150,3.160346269607544,-7.85537576675415,5.361814975738525,0.0015970865497365594,-0.01357523538172245,0.0071868896484375
17813953291300,3.1938650608062744,-7.860164165496826,5.374982833862305,-0.0007985432748682797,-0.012776692397892475,0.007453070487827063
17813954528437,3.1759085655212402,-7.815871715545654,5.313930511474609,-0.0013309054775163531,-0.014906140975654125,0.010913425125181675
17813955765575,3.1938650608062744,-7.845798969268799,5.305551052093506,-0.0013309054775163531,-0.015172322280704975,0.0066545275039970875
17813957002712,3.1663317680358887,-7.844602108001709,5.294776916503906,0.0007985432748682797,-0.0090501569211483,0.0090501569211483
17813958239850,3.2130186557769775,-7.851784706115723,5.317522048950195,0.0029279920272529125,-0.0090501569211483,0.008783976547420025
17813959476987,3.1747114658355713,-7.825448513031006,5.323507308959961,0.0023956298828125,-0.013309055007994175,0.005855984054505825
17813960714150,3.2154128551483154,-7.802703380584717,5.34744930267334,0.005057440605014563,-0.008783976547420025,0.00931633822619915
17813961951275,3.1675288677215576,-7.82066011428833,5.317522048950195,0.0053236219100654125,-0.007453070487827063,0.01171196810901165
17813963188412,3.1759085655212402,-7.814674377441406,5.339069843292236,0.0063883461989462376,-0.014373779296875,0.00931633822619915
17813964425550,3.2130186557769775,-7.835025310516357,5.321113109588623,0.00452507846057415,-0.00958251953125,0.01357523538172245
17813965662700,3.203441858291626,-7.818265914916992,5.345055103302002,0.0026618109550327063,-0.005589802749454975,0.01650322787463665
17813966899850,3.132812976837158,-7.825448513031006,5.323507308959961,0.0042588976211845875,-0.005589802749454975,0.00984870083630085
17813968136987,3.1950621604919434,-7.812280178070068,5.321113109588623,0.003460354171693325,-0.005589802749454975,0.01224433071911335
17813969374137,3.1866824626922607,-7.824251174926758,5.327098846435547,0.0023956298828125,-0.00452507846057415,0.014373779296875
17813970611300,3.178302764892578,-7.838616371154785,5.337872505187988,-0.0010647244052961469,-0.003460354171693325,0.0157046839594841
17813971848425,3.1747114658355713,-7.817068576812744,5.345055103302002,0.007985432632267475,-0.0015970865497365594,0.014373779296875
17813973085562,3.1926679611206055,-7.842207908630371,5.304353713989258,0.00692070834338665,0.0,0.01357523538172245
17813974322712,3.1974563598632812,-7.802703380584717,5.307945251464844,0.01117960549890995,-0.0018632676219567657,0.00931633822619915
17813975559862,3.1962592601776123,-7.805097579956055,5.305551052093506,0.007985432632267475,-0.0037265352439135313,0.010381062515079975
17813976796975,3.184288263320923,-7.827842712402344,5.313930511474609,0.0042588976211845875,-0.0042588976211845875,0.013309055007994175
17813978034125,3.138798475265503,-7.8098859786987305,5.3582234382629395,0.005589802749454975,-0.0026618109550327063,0.0181003138422966
17813979271275,3.2166099548339844,-7.82185697555542,5.30076265335083,0.004791259765625,0.0005323622026480734,0.01171196810901165
17813980508412,3.222595453262329,-7.829039573669434,5.323507308959961,0.0029279920272529125,0.0002661811013240367,0.012776692397892475
17813981745562,3.2094273567199707,-7.846996307373047,5.341464042663574,0.0021294488105922937,0.0018632676219567657,0.012776692397892475
17813982982712,3.1675288677215576,-7.845798969268799,5.298368453979492,0.0013309054775163531,0.0023956298828125,0.01171196810901165
17813984219837,3.141192674636841,-7.833827972412109,5.325901508331299,0.0005323622026480734,0.005855984054505825,0.0114457868039608
17813985456975,3.201047658920288,-7.8314337730407715,5.324704647064209,-0.0021294488105922937,0.0026618109550327063,0.010114881210029125
17813986694125,3.1687259674072266,-7.863755702972412,5.329493045806885,-0.003460354171693325,0.0018632676219567657,0.01357523538172245
17813987931287,3.1687259674072266,-7.843404769897461,5.329493045806885,-0.0021294488105922937,0.005855984054505825,0.012776692397892475
17813989168412,3.180696964263916,-7.830236911773682,5.328295707702637,-0.0021294488105922937,0.010114881210029125,0.0162370465695858
17813990405550,3.201047658920288,-7.8326311111450195,5.321113109588623,-0.006122165359556675,0.01224433071911335,0.01756795309484005
17813991642687,3.1926679611206055,-7.856573104858398,5.3342814445495605,-0.0053236219100654125,0.010114881210029125,0.0162370465695858
17813992879837,3.202244758605957,-7.815871715545654,5.349843502044678,0.0,0.008517795242369175,0.01650322787463665
17813994116987,3.199850559234619,-7.837419509887695,5.3330841064453125,-0.003460354171693325,0.010647243820130825,0.015438503585755825
17813995354137,3.1926679611206055,-7.863755702972412,5.299565315246582,-0.0053236219100654125,0.013309055007994175,0.01597086526453495
17813996591275,3.1950621604919434,-7.830236911773682,5.339069843292236,-0.0039927163161337376,0.012776692397892475,0.02022976242005825
17813997828412,3.1974563598632812,-7.819462776184082,5.39174222946167,-0.005057440605014563,0.007453070487827063,0.0210283063352108
17813999065550,3.199850559234619,-7.807491779327393,5.318718910217285,-0.004791259765625,0.010647243820130825,0.01597086526453495
17814000302700,3.2130186557769775,-7.814674377441406,5.287594318389893,-0.006122165359556675,0.00958251953125,0.0181003138422966
17814001539825,3.223792552947998,-7.8326311111450195,5.315127849578857,-0.0042588976211845875,0.012510511092841625,0.0173017717897892
17814002776987,3.2106244564056396,-7.808689117431641,5.327098846435547,-0.006122165359556675,0.010114881210029125,0.01783413253724575
17814004014125,3.228580951690674,-7.802703380584717,5.33547830581665,-0.00692070834338665,0.0071868896484375,0.01996358297765255
17814005251262,3.2178070545196533,-7.824251174926758,5.30076265335083,-0.005057440605014563,0.014373779296875,0.01889885775744915
17814006488400,3.207033157348633,-7.7871413230896,5.310339450836182,-0.0063883461989462376,0.012776692397892475,0.0167694091796875
17814007725550,3.251325845718384,-7.805097579956055,5.367800235748291,-0.0077192517928779125,0.010381062515079975,0.0181003138422966
17814008962700,3.222595453262329,-7.802703380584717,5.306747913360596,-0.0053236219100654125,0.01171196810901165,0.02022976242005825
17814010199837,3.2130186557769775,-7.844602108001709,5.305551052093506,-0.00692070834338665,0.010913425125181675,0.0167694091796875
17814011436962,3.1914708614349365,-7.823054313659668,5.315127849578857,-0.008783976547420025,0.0223592109978199,0.01357523538172245
17814012674112,3.228580951690674,-7.800309181213379,5.294776916503906,-0.0090501569211483,0.01597086526453495,0.0167694091796875
17814013911250,3.2166099548339844,-7.837419509887695,5.284003257751465,-0.008783976547420025,0.01463996060192585,0.01597086526453495
17814015148412,3.2106244564056396,-7.82185697555542,5.294776916503906,-0.010381062515079975,0.01463996060192585,0.0191650390625
17814016385550,3.2118215560913086,-7.829039573669434,5.3127336502075195,-0.0090501569211483,0.0210283063352108,0.0215606689453125
17814017622700,3.1938650608062744,-7.781155586242676,5.3582234382629395,-0.00984870083630085,0.01996358297765255,0.02182685025036335
17814018859837,3.1974563598632812,-7.806294918060303,5.30076265335083,-0.0071868896484375,0.01357523538172245,0.023956298828125
17814020096975,3.248931646347046,-7.845798969268799,5.304353713989258,-0.0066545275039970875,0.012776692397892475,0.0223592109978199
17814021334112,3.2369606494903564,-7.746439456939697,5.299565315246582,-0.01117960549890995,0.015172322280704975,0.0204959437251091
17814022571262,3.2369606494903564,-7.757213592529297,5.286397457122803,-0.008517795242369175,0.015172322280704975,0.02076212503015995
17814023808400,3.248931646347046,-7.772775650024414,5.30195951461792,-0.004791259765625,0.01410759799182415,0.0234239362180233
17814025045537,3.228580951690674,-7.825448513031006,5.340266704559326,-0.0063883461989462376,0.01463996060192585,0.01943122036755085
17814026282662,3.2309751510620117,-7.757213592529297,5.337872505187988,-0.005057440605014563,0.01597086526453495,0.02502102218568325
17814027519837,3.2405519485473633,-7.747636795043945,5.3342814445495605,-0.005057440605014563,0.00984870083630085,0.0263519287109375
17814028756975,3.2549171447753906,-7.757213592529297,5.278017520904541,-0.00692070834338665,0.006122165359556675,0.023956298828125
17814029994112,3.2417490482330322,-7.771578788757324,5.282805919647217,-0.0053236219100654125,0.0114457868039608,0.0223592109978199
17814031231237,3.245340347290039,-7.73207426071167,5.305551052093506,-0.0018632676219567657,0.0162370465695858,0.0186326764523983
17814032468400,3.2309751510620117,-7.7201032638549805,5.305551052093506,-0.0026618109550327063,0.01224433071911335,0.02129448764026165
17814033705537,3.19865345954895,-7.770381450653076,5.306747913360596,-0.0029279920272529125,0.014906140975654125,0.01889885775744915
17814034942700,3.250128746032715,-7.747636795043945,5.315127849578857,-0.0015970865497365594,0.0114457868039608,0.02182685025036335
17814036179812,3.220201253890991,-7.758410453796387,5.30076265335083,0.0002661811013240367,0.0181003138422966,0.0181003138422966
17814037416975,3.1938650608062744,-7.73207426071167,5.297171115875244,-0.00452507846057415,0.012510511092841625,0.01836649514734745
17814038654112,3.1962592601776123,-7.751227855682373,5.305551052093506,-0.0066545275039970875,0.0162370465695858,0.0196974016726017
17814039891250,3.202244758605957,-7.82185697555542,5.261258125305176,0.0029279920272529125,0.0157046839594841,0.02182685025036335
17814041128400,3.1735143661499023,-7.7763671875,5.323507308959961,0.0013309054775163531,0.01463996060192585,0.0157046839594841
17814042365537,3.1938650608062744,-7.799112319946289,5.2696380615234375,-0.0023956298828125,0.0114457868039608,0.02129448764026165
17814043602675,3.1938650608062744,-7.760804653167725,5.272032260894775,0.0039927163161337376,0.0138414166867733,0.0186326764523983
17814044839825,3.2154128551483154,-7.807491779327393,5.258863925933838,0.0029279920272529125,0.010913425125181675,0.0196974016726017
17814046076962,3.223792552947998,-7.797914981842041,5.288791656494141,0.0005323622026480734,0.012510511092841625,0.0215606689453125
17814047314112,3.183091163635254,-7.805097579956055,5.288791656494141,-0.0015970865497365594,0.0138414166867733,0.0223592109978199
17814048551262,3.2178070545196533,-7.82185697555542,5.2684407234191895,-0.0013309054775163531,0.00984870083630085,0.02022976242005825
17814049788400,3.1747114658355713,-7.826645374298096,5.2899885177612305,-0.0013309054775163531,0.0114457868039608,0.0173017717897892
17814051025525,3.1747114658355713,-7.769184589385986,5.325901508331299,-0.0002661811013240367,0.014906140975654125,0.0196974016726017
17814052262687,3.1926679611206055,-7.7763671875,5.2684407234191895,0.0005323622026480734,0.0119781494140625,0.015438503585755825
17814053499812,3.1687259674072266,-7.813477516174316,5.310339450836182,0.0026618109550327063,0.010381062515079975,0.01836649514734745
17814054736962,3.201047658920288,-7.808689117431641,5.2696380615234375,0.0031941730994731188,0.01357523538172245,0.02129448764026165
17814055974112,3.1878795623779297,-7.808689117431641,5.292382717132568,0.0037265352439135313,0.014906140975654125,0.02369011752307415
17814057211237,3.220201253890991,-7.791929721832275,5.257667064666748,0.0021294488105922937,0.0119781494140625,0.02076212503015995
17814058448387,3.162740468978882,-7.781155586242676,5.3115363121032715,0.0018632676219567657,0.01597086526453495,0.0181003138422966
17814059685537,3.185485363006592,-7.7883381843566895,5.310339450836182,0.0018632676219567657,0.01410759799182415,0.015438503585755825
17814060922687,3.207033157348633,-7.805097579956055,5.288791656494141,0.003460354171693325,0.013309055007994175,0.0167694091796875
17814062159800,3.204638957977295,-7.82066011428833,5.279214859008789,0.0053236219100654125,0.0167694091796875,0.013042873702943325
17814063396975,3.181894063949585,-7.800309181213379,5.292382717132568,0.006122165359556675,0.01836649514734745,0.010913425125181675
17814064634100,3.204638957977295,-7.826645374298096,5.273229122161865,0.008517795242369175,0.0114457868039608,0.0138414166867733
17814065871262,3.1651346683502197,-7.800309181213379,5.288791656494141,0.0023956298828125,0.0138414166867733,0.012776692397892475
17814067108387,3.1687259674072266,-7.829039573669434,5.2911858558654785,0.00692070834338665,0.01171196810901165,0.01410759799182415
17814068345525,3.185485363006592,-7.808689117431641,5.285200119018555,0.008251613937318325,0.01117960549890995,0.014373779296875
17814069582675,3.1519665718078613,-7.796718120574951,5.281609058380127,0.0013309054775163531,0.0167694091796875,0.0157046839594841
17814070819825,3.1316158771514893,-7.858967304229736,5.263652324676514,0.0,0.01996358297765255,0.013042873702943325
17814072056962,3.1304187774658203,-7.813477516174316,5.30195951461792,0.0029279920272529125,0.02182685025036335,0.008783976547420025
17814073294100,3.1435868740081787,-7.790732383728027,5.286397457122803,0.004791259765625,0.0167694091796875,0.014373779296875
17814074531225,3.1687259674072266,-7.799112319946289,5.287594318389893,0.0,0.01783413253724575,0.00984870083630085
17814075768387,3.1447839736938477,-7.783549785614014,5.287594318389893,-0.0007985432748682797,0.0181003138422966,0.0066545275039970875
17814077005525,3.1926679611206055,-7.818265914916992,5.287594318389893,0.0013309054775163531,0.01650322787463665,0.010381062515079975
17814078242662,3.163937568664551,-7.823054313659668,5.254075527191162,0.00692070834338665,0.01889885775744915,0.0018632676219567657
17814079479825,3.157952070236206,-7.835025310516357,5.263652324676514,0.0018632676219567657,0.01783413253724575,0.0039927163161337376
17814080716937,3.156754970550537,-7.813477516174316,5.275623321533203,-0.0010647244052961469,0.0162370465695858,0.008517795242369175
17814081954087,3.202244758605957,-7.817068576812744,5.285200119018555,0.0039927163161337376,0.0210283063352108,0.005057440605014563
17814083191225,3.223792552947998,-7.803900718688965,5.2899885177612305,0.005855984054505825,0.0167694091796875,0.00931633822619915
17814084428387,3.2381577491760254,-7.823054313659668,5.279214859008789,0.0042588976211845875,0.01357523538172245,0.005057440605014563
17814085665537,3.1914708614349365,-7.802703380584717,5.262455463409424,0.0031941730994731188,0.014906140975654125,0.0029279920272529125
17814086902662,3.1890766620635986,-7.825448513031006,5.25527286529541,0.0010647244052961469,0.0157046839594841,0.0031941730994731188
17814088139812,3.1723172664642334,-7.814674377441406,5.261258125305176,0.0015970865497365594,0.01783413253724575,0.005855984054505825
17814089376962,3.2106244564056396,-7.842207908630371,5.307945251464844,0.0042588976211845875,0.0186326764523983,0.005057440605014563
17814090614100,3.224989652633667,-7.827842712402344,5.272032260894775,0.0002661811013240367,0.014906140975654125,0.00692070834338665
17814091851250,3.24414324760437,-7.823054313659668,5.278017520904541,0.0053236219100654125,0.0181003138422966,0.0026618109550327063
17814093088375,3.1519665718078613,-7.808689117431641,5.278017520904541,0.0015970865497365594,0.0223592109978199,0.0090501569211483
17814094325525,3.1902737617492676,-7.8314337730407715,5.295974254608154,0.0,0.0167694091796875,0.010647243820130825
17814095562675,3.160346269607544,-7.826645374298096,5.313930511474609,0.0037265352439135313,0.0186326764523983,0.006122165359556675
17814096799812,3.1699230670928955,-7.815871715545654,5.3115363121032715,0.005589802749454975,0.02022976242005825,0.0029279920272529125
17814098036975,3.162740468978882,-7.807491779327393,5.282805919647217,0.0039927163161337376,0.01996358297765255,0.0042588976211845875
17814099274100,3.199850559234619,-7.794323921203613,5.284003257751465,0.0031941730994731188,0.0167694091796875,0.0053236219100654125
17814100511212,3.177105665206909,-7.842207908630371,5.286397457122803,0.0018632676219567657,0.01597086526453495,0.0063883461989462376
17814101748375,3.180696964263916,-7.8110833168029785,5.306747913360596,0.0039927163161337376,0.0191650390625,0.008517795242369175
17814102985512,3.1914708614349365,-7.808689117431641,5.30195951461792,0.004791259765625,0.01597086526453495,0.0031941730994731188
17814104222662,3.157952070236206,-7.818265914916992,5.22175407409668,0.0029279920272529125,0.01650322787463665,0.0007985432748682797
17814105459812,3.201047658920288,-7.781155586242676,5.237316131591797,0.004791259765625,0.0181003138422966,0.005855984054505825
17814106696962,3.205836057662964,-7.826645374298096,5.254075527191162,0.0037265352439135313,0.01703559048473835,0.006122165359556675
17814107934100,3.19865345954895,-7.7655930519104,5.273229122161865,0.0039927163161337376,0.014373779296875,0.0018632676219567657
17814109171250,3.2309751510620117,-7.794323921203613,5.227739334106445,0.004791259765625,0.014906140975654125,-0.0005323622026480734
17814110408375,3.2130186557769775,-7.796718120574951,5.307945251464844,0.0015970865497365594,0.014906140975654125,0.0063883461989462376
17814111645525,3.1902737617492676,-7.770381450653076,5.284003257751465,0.0015970865497365594,0.01597086526453495,0.003460354171693325
17814112882687,3.1723172664642334,-7.784747123718262,5.2684407234191895,0.0090501569211483,0.01117960549890995,0.005589802749454975
17814114119800,3.204638957977295,-7.757213592529297,5.275623321533203,0.0077192517928779125,0.01463996060192585,-0.0026618109550327063
17814115356950,3.1663317680358887,-7.812280178070068,5.295974254608154,0.006122165359556675,0.01756795309484005,0.0037265352439135313
17814116594087,3.2106244564056396,-7.766790390014648,5.297171115875244,0.0077192517928779125,0.0157046839594841,0.0039927163161337376
17814117831237,3.1950621604919434,-7.779958248138428,5.258863925933838,0.0090501569211483,0.01224433071911335,0.0039927163161337376
17814119068387,3.1735143661499023,-7.751227855682373,5.328295707702637,0.0066545275039970875,0.0157046839594841,0.003460354171693325
17814120305525,3.1878795623779297,-7.762001991271973,5.2911858558654785,0.0037265352439135313,0.013309055007994175,0.0007985432748682797
17814121542650,3.204638957977295,-7.740454196929932,5.287594318389893,0.004791259765625,0.013042873702943325,-0.0002661811013240367
17814122779800,3.201047658920288,-7.769184589385986,5.3330841064453125,0.007985432632267475,0.00931633822619915,0.0029279920272529125
17814124016937,3.1890766620635986,-7.760804653167725,5.264849662780762,0.008517795242369175,0.01463996060192585,0.0018632676219567657
17814125254100,3.226186752319336,-7.758410453796387,5.2672438621521,0.0053236219100654125,0.00958251953125,-0.0002661811013240367
17814126491250,3.227383852005005,-7.771578788757324,5.275623321533203,0.006122165359556675,0.010381062515079975,-0.0026618109550327063
17814127728375,3.207033157348633,-7.751227855682373,5.288791656494141,0.008517795242369175,0.00692070834338665,-0.0010647244052961469
17814128965525,3.201047658920288,-7.759607791900635,5.278017520904541,0.007453070487827063,0.004791259765625,0.0031941730994731188
17814130202650,3.22139835357666,-7.794323921203613,5.322310447692871,0.003460354171693325,0.012776692397892475,0.0
17814131439812,3.1950621604919434,-7.767987251281738,5.30076265335083,0.0063883461989462376,0.010647243820130825,0.0
17814132676950,3.2190041542053223,-7.7655930519104,5.309142112731934,0.010114881210029125,-0.0007985432748682797,-0.0005323622026480734
17814133914087,3.228580951690674,-7.773972988128662,5.34625244140625,0.010381062515079975,0.00692070834338665,-0.0002661811013240367
17814135151250,3.202244758605957,-7.7643961906433105,5.35702657699585,0.006122165359556675,0.013042873702943325,-0.0029279920272529125
17814136388362,3.1759085655212402,-7.782352447509766,5.3127336502075195,0.00931633822619915,0.014906140975654125,0.0007985432748682797
17814137625512,3.1902737617492676,-7.724891662597656,5.33547830581665,0.0071868896484375,0.00958251953125,-0.0002661811013240367
17814138862662,3.183091163635254,-7.733271598815918,5.340266704559326,0.0114457868039608,0.0077192517928779125,-0.0010647244052961469
17814140099825,3.223792552947998,-7.734468460083008,5.278017520904541,0.007985432632267475,0.01224433071911335,-0.0053236219100654125
17814141336950,3.156754970550537,-7.748833656311035,5.317522048950195,0.0071868896484375,0.008783976547420025,-0.0026618109550327063
17814142574087,3.2190041542053223,-7.710526466369629,5.328295707702637,0.004791259765625,0.01117960549890995,-0.008251613937318325
17814143811237,3.202244758605957,-7.748833656311035,5.303156852722168,0.0090501569211483,0.00931633822619915,-0.00692070834338665
17814145048362,3.185485363006592,-7.7428483963012695,5.298368453979492,0.012776692397892475,0.0114457868039608,-0.0053236219100654125
17814146285525,3.2393548488616943,-7.709329605102539,5.355829238891602,0.0191650390625,0.0077192517928779125,-0.00452507846057415
17814147522662,3.222595453262329,-7.724891662597656,5.323507308959961,0.0138414166867733,0.007985432632267475,-0.0071868896484375
17814148759800,3.220201253890991,-7.711723804473877,5.348646640777588,0.01463996060192585,0.00452507846057415,-0.0090501569211483
17814149996937,3.1866824626922607,-7.704541206359863,5.329493045806885,0.01463996060192585,0.00958251953125,-0.006122165359556675
17814151234087,3.1902737617492676,-7.751227855682373,5.3594207763671875,0.00931633822619915,0.00984870083630085,-0.0071868896484375
17814152471237,3.202244758605957,-7.7631988525390625,5.318718910217285,0.008517795242369175,0.01171196810901165,-0.007453070487827063
17814153708375,3.2082302570343018,-7.7643961906433105,5.309142112731934,0.01171196810901165,0.0090501569211483,-0.010647243820130825
17814154945525,3.203441858291626,-7.803900718688965,5.3342814445495605,0.00958251953125,0.00692070834338665,-0.01171196810901165
17814156182650,3.2333693504333496,-7.746439456939697,5.352238178253174,0.008251613937318325,0.0114457868039608,-0.012776692397892475
17814157419812,3.185485363006592,-7.769184589385986,5.341464042663574,0.0162370465695858,0.00931633822619915,-0.0114457868039608
17814158656937,3.162740468978882,-7.766790390014648,5.34744930267334,0.015172322280704975,0.004791259765625,-0.012776692397892475
17814159894100,3.223792552947998,-7.767987251281738,5.363011837005615,0.0167694091796875,0.0039927163161337376,-0.012510511092841625
17814161131225,3.2417490482330322,-7.791929721832275,5.318718910217285,0.013309055007994175,0.0071868896484375,-0.01410759799182415
17814162368375,3.2549171447753906,-7.799112319946289,5.304353713989258,0.0162370465695858,0.0114457868039608,-0.01410759799182415
17814163605525,3.242946147918701,-7.783549785614014,5.385756969451904,0.02129448764026165,0.008251613937318325,-0.012776692397892475
17814164842662,3.222595453262329,-7.762001991271973,5.355829238891602,0.01836649514734745,0.007453070487827063,-0.014373779296875
17814166079800,3.250128746032715,-7.8110833168029785,5.386953830718994,0.0196974016726017,0.00692070834338665,-0.01410759799182415
17814167316950,3.2537200450897217,-7.793126583099365,5.392939567565918,0.0181003138422966,0.010114881210029125,-0.0138414166867733
17814168554087,3.1974563598632812,-7.791929721832275,5.361814975738525,0.0157046839594841,0.00958251953125,-0.014373779296875
17814169791237,3.226186752319336,-7.7655930519104,5.34744930267334,0.0204959437251091,0.005589802749454975,-0.0157046839594841
17814171028375,3.2537200450897217,-7.771578788757324,5.408501625061035,0.01943122036755085,0.0026618109550327063,-0.01463996060192585
17814172265525,3.272873640060425,-7.794323921203613,5.368997573852539,0.02315775491297245,0.006122165359556675,-0.008251613937318325
17814173502662,3.245340347290039,-7.825448513031006,5.376180171966553,0.0223592109978199,0.00984870083630085,-0.01357523538172245
17814174739800,3.2106244564056396,-7.7895355224609375,5.363011837005615,0.01703559048473835,0.01171196810901165,-0.01889885775744915
17814175976937,3.227383852005005,-7.818265914916992,5.389348030090332,0.0162370465695858,0.007985432632267475,-0.01756795309484005
17814177214100,3.228580951690674,-7.82185697555542,5.386953830718994,0.01783413253724575,0.0031941730994731188,-0.0157046839594841
17814178451225,3.2333693504333496,-7.824251174926758,5.426458358764648,0.01783413253724575,0.0026618109550327063,-0.0196974016726017
17814179688375,3.2585084438323975,-7.844602108001709,5.374982833862305,0.0186326764523983,0.005855984054505825,-0.0173017717897892
17814180925525,3.2632968425750732,-7.846996307373047,5.404910564422607,0.01650322787463665,0.0066545275039970875,-0.0181003138422966
17814182162650,3.1878795623779297,-7.846996307373047,5.360617637634277,0.0167694091796875,0.00692070834338665,-0.0204959437251091
17814183399812,3.2178070545196533,-7.857769966125488,5.365406036376953,0.01597086526453495,0.005855984054505825,-0.0234239362180233
17814184636950,3.224989652633667,-7.8745293617248535,5.372588634490967,0.013042873702943325,0.007453070487827063,-0.01783413253724575
17814185874087,3.228580951690674,-7.844602108001709,5.339069843292236,0.014373779296875,0.0066545275039970875,-0.0157046839594841
17814187111225,3.2417490482330322,-7.875726699829102,5.336675643920898,0.01756795309484005,0.0053236219100654125,-0.01463996060192585
17814188348375,3.246537446975708,-7.860164165496826,5.363011837005615,0.0157046839594841,0.007453070487827063,-0.01943122036755085
17814189585512,3.2609026432037354,-7.869740962982178,5.327098846435547,0.014373779296875,0.00692070834338665,-0.0167694091796875
17814190822650,3.264493942260742,-7.890091896057129,5.397727966308594,0.010381062515079975,0.010913425125181675,-0.0204959437251091
17814192059800,3.24414324760437,-7.91163969039917,5.371391773223877,0.013042873702943325,0.0063883461989462376,-0.01597086526453495
17814193296925,3.2381577491760254,-7.909245491027832,5.354632377624512,0.013042873702943325,0.0114457868039608,-0.0138414166867733
17814194534100,3.245340347290039,-7.887697696685791,5.3809685707092285,0.01117960549890995,0.0138414166867733,-0.01650322787463665
17814195771237,3.248931646347046,-7.91163969039917,5.397727966308594,0.00984870083630085,0.012510511092841625,-0.0138414166867733
17814197008387,3.228580951690674,-7.860164165496826,5.438429355621338,0.008783976547420025,0.013309055007994175,-0.01410759799182415
17814198245512,3.245340347290039,-7.875726699829102,5.414487361907959,0.013309055007994175,0.0077192517928779125,-0.01171196810901165
17814199482650,3.242946147918701,-7.884106159210205,5.3594207763671875,0.015438503585755825,0.0090501569211483,-0.015438503585755825
17814200719812,3.227383852005005,-7.873332500457764,5.360617637634277,0.01224433071911335,0.005057440605014563,-0.0167694091796875
17814201956950,3.2788591384887695,-7.870938301086426,5.406107425689697,0.012776692397892475,0.008783976547420025,-0.01171196810901165
17814203194087,3.242946147918701,-7.869740962982178,5.377377033233643,0.00931633822619915,0.01117960549890995,-0.012510511092841625
17814204431225,3.2549171447753906,-7.827842712402344,5.413290023803711,0.008783976547420025,0.01171196810901165,-0.013042873702943325
17814205668375,3.2321722507476807,-7.846996307373047,5.363011837005615,0.0114457868039608,0.00931633822619915,-0.008517795242369175
17814206905525,3.248931646347046,-7.862558364868164,5.400122165679932,0.008517795242369175,0.00984870083630085,-0.010913425125181675
17814208142650,3.251325845718384,-7.8541789054870605,5.3809685707092285,0.006122165359556675,0.0090501569211483,-0.012510511092841625
17814209379800,3.2752678394317627,-7.8745293617248535,5.3809685707092285,0.0042588976211845875,0.007985432632267475,-0.006122165359556675
17814210616950,3.2800562381744385,-7.862558364868164,5.353435039520264,0.007453070487827063,0.0063883461989462376,-0.010381062515079975
17814211854100,3.2824504375457764,-7.836222171783447,5.371391773223877,0.00931633822619915,0.01117960549890995,-0.012776692397892475
17814213091237,3.289633274078369,-7.824251174926758,5.361814975738525,0.007453070487827063,0.012776692397892475,-0.010913425125181675
17814214328375,3.2525229454040527,-7.842207908630371,5.351040840148926,0.00958251953125,0.00958251953125,-0.005855984054505825
17814215565500,3.290830373764038,-7.82066011428833,5.382165431976318,0.008251613937318325,0.010381062515079975,-0.005855984054505825
17814216802662,3.264493942260742,-7.8326311111450195,5.328295707702637,0.0029279920272529125,0.014906140975654125,-0.0023956298828125
17814218039800,3.269282341003418,-7.801506519317627,5.388151168823242,0.004791259765625,0.01410759799182415,-0.0066545275039970875
17814219276950,3.2417490482330322,-7.801506519317627,5.351040840148926,0.00452507846057415,0.01117960549890995,-0.008251613937318325
17814220514075,3.264493942260742,-7.849390506744385,5.3797712326049805,0.007985432632267475,0.01410759799182415,-0.005589802749454975
17814221751237,3.2764649391174316,-7.838616371154785,5.385756969451904,0.00958251953125,0.01117960549890995,-0.004791259765625
17814222988387,3.246537446975708,-7.796718120574951,5.354632377624512,0.00931633822619915,0.0090501569211483,0.0015970865497365594
17814224225512,3.2585084438323975,-7.795520782470703,5.409698963165283,0.00452507846057415,0.00984870083630085,-0.0013309054775163531
17814225462662,3.2764649391174316,-7.839813709259033,5.348646640777588,0.005855984054505825,0.010381062515079975,0.0021294488105922937
17814226699812,3.251325845718384,-7.888894557952881,5.376180171966553,0.006122165359556675,0.008251613937318325,0.0013309054775163531
17814227936937,3.2561142444610596,-7.819462776184082,5.353435039520264,0.0026618109550327063,0.004791259765625,0.0021294488105922937
17814229174100,3.268085241317749,-7.858967304229736,5.3594207763671875,0.0037265352439135313,0.0090501569211483,0.0
17814230411250,3.250128746032715,-7.8529815673828125,5.412093162536621,0.0114457868039608,0.01224433071911335,0.005589802749454975
17814231648400,3.2393548488616943,-7.803900718688965,5.363011837005615,0.0010647244052961469,0.007453070487827063,0.0066545275039970875
17814232885525,3.2872390747070312,-7.894880294799805,5.384559631347656,-0.0023956298828125,0.0077192517928779125,0.0066545275039970875
17814234122675,3.2992100715637207,-7.851784706115723,5.398924827575684,-0.0023956298828125,0.0090501569211483,0.0037265352439135313
17814235359812,3.2800562381744385,-7.887697696685791,5.385756969451904,0.0018632676219567657,0.01650322787463665,0.005057440605014563
17814236596950,3.290830373764038,-7.85537576675415,5.364209175109863,0.0031941730994731188,0.014906140975654125,0.0037265352439135313
17814237834087,3.2620997428894043,-7.868544101715088,5.339069843292236,0.0018632676219567657,0.010114881210029125,0.008783976547420025
17814239071237,3.2800562381744385,-7.86614990234375,5.351040840148926,0.0021294488105922937,0.0119781494140625,0.008517795242369175
17814240308375,3.2860419750213623,-7.882909297943115,5.366603374481201,0.0029279920272529125,0.008517795242369175,0.00452507846057415
17814241545525,3.2597055435180664,-7.864952564239502,5.354632377624512,-0.0005323622026480734,0.005589802749454975,0.0026618109550327063
17814242782650,3.2764649391174316,-7.872135162353516,5.352238178253174,0.0002661811013240367,0.0063883461989462376,0.007985432632267475
17814244019812,3.246537446975708,-7.862558364868164,5.353435039520264,0.0015970865497365594,0.0090501569211483,0.007985432632267475
17814245256950,3.3016042709350586,-7.861361503601074,5.39054536819458,0.0013309054775163531,0.0090501569211483,0.005057440605014563
17814246494112,3.2812533378601074,-7.860164165496826,5.339069843292236,-0.0005323622026480734,0.010114881210029125,0.0071868896484375
17814247731237,3.205836057662964,-7.851784706115723,5.35702657699585,-0.0021294488105922937,0.013042873702943325,0.007985432632267475
17814248968387,3.2417490482330322,-7.861361503601074,5.348646640777588,-0.0002661811013240367,0.008517795242369175,0.00958251953125
17814250205537,3.294421672821045,-7.838616371154785,5.345055103302002,-0.0007985432748682797,0.010381062515079975,0.01463996060192585
17814251442650,3.265691041946411,-7.829039573669434,5.319916248321533,0.0002661811013240367,0.00692070834338665,0.015172322280704975
17814252679812,3.2525229454040527,-7.864952564239502,5.336675643920898,0.0,0.005855984054505825,0.015438503585755825
17814253916925,3.268085241317749,-7.864952564239502,5.343858242034912,-0.005855984054505825,0.00692070834338665,0.0119781494140625
17814255154100,3.2537200450897217,-7.803900718688965,5.352238178253174,-0.0053236219100654125,0.008783976547420025,0.01410759799182415
17814256391225,3.2836475372314453,-7.849390506744385,5.364209175109863,-0.0005323622026480734,0.004791259765625,0.01703559048473835
17814257628375,3.2764649391174316,-7.85537576675415,5.3582234382629395,-0.0042588976211845875,0.0063883461989462376,0.01597086526453495
17814258865512,3.272873640060425,-7.864952564239502,5.349843502044678,-0.007453070487827063,0.007985432632267475,0.01410759799182415
17814260102675,3.2776620388031006,-7.815871715545654,5.351040840148926,-0.0071868896484375,0.008251613937318325,0.015438503585755825
17814261339812,3.2800562381744385,-7.838616371154785,5.315127849578857,-0.003460354171693325,0.0031941730994731188,0.01756795309484005
17814262576962,3.2597055435180664,-7.8326311111450195,5.303156852722168,-0.005589802749454975,0.0029279920272529125,0.01224433071911335
17814263814087,3.2752678394317627,-7.7883381843566895,5.34625244140625,-0.010647243820130825,0.004791259765625,0.00931633822619915
17814265051250,3.3004071712493896,-7.781155586242676,5.3582234382629395,-0.006122165359556675,0.0029279920272529125,0.0138414166867733
17814266288387,3.2848448753356934,-7.797914981842041,5.367800235748291,-0.00958251953125,0.007453070487827063,0.01756795309484005
17814267525500,3.2309751510620117,-7.77756404876709,5.354632377624512,-0.0023956298828125,0.0037265352439135313,0.01756795309484005
17814268762675,3.2357635498046875,-7.82185697555542,5.371391773223877,-0.00452507846057415,0.0077192517928779125,0.013042873702943325
17814269999812,3.2537200450897217,-7.806294918060303,5.373785972595215,-0.008783976547420025,0.0063883461989462376,0.010647243820130825
17814271236950,3.2525229454040527,-7.82066011428833,5.383362770080566,-0.00452507846057415,0.004791259765625,0.010381062515079975
17814272474087,3.245340347290039,-7.806294918060303,5.367800235748291,-0.005855984054505825,-0.0002661811013240367,0.010381062515079975
17814273711250,3.2776620388031006,-7.801506519317627,5.342660903930664,-0.0042588976211845875,0.0023956298828125,0.0181003138422966
17814274948387,3.2549171447753906,-7.817068576812744,5.319916248321533,-0.0077192517928779125,0.0037265352439135313,0.010381062515079975
17814276185537,3.2393548488616943,-7.850587368011475,5.319916248321533,-0.008517795242369175,0.003460354171693325,0.012776692397892475
17814277422662,3.2561142444610596,-7.7895355224609375,5.329493045806885,-0.00958251953125,0.005589802749454975,0.010381062515079975
17814278659800,3.3028013706207275,-7.7895355224609375,5.355829238891602,-0.0090501569211483,0.0031941730994731188,0.0090501569211483
17814279896962,3.296815872192383,-7.818265914916992,5.337872505187988,-0.005589802749454975,0.0031941730994731188,0.010114881210029125
17814281134100,3.272873640060425,-7.813477516174316,5.34625244140625,-0.01463996060192585,0.013042873702943325,0.008251613937318325
17814282371225,3.2752678394317627,-7.7643961906433105,5.323507308959961,-0.007985432632267475,0.0114457868039608,0.008251613937318325
17814283608375,3.271676540374756,-7.775169849395752,5.352238178253174,-0.0010647244052961469,0.0029279920272529125,0.01597086526453495
17814284845525,3.248931646347046,-7.785943984985352,5.330689907073975,-0.0037265352439135313,-0.0021294488105922937,0.008517795242369175
17814286082675,3.2597055435180664,-7.766790390014648,5.337872505187988,-0.0071868896484375,-0.0010647244052961469,0.007453070487827063
17814287319800,3.268085241317749,-7.762001991271973,5.317522048950195,-0.004791259765625,-0.003460354171693325,0.010114881210029125
17814288556962,3.2740707397460938,-7.705738067626953,5.349843502044678,-0.0015970865497365594,-0.00452507846057415,0.0157046839594841
17814289794112,3.242946147918701,-7.759607791900635,5.328295707702637,-0.005589802749454975,-0.0042588976211845875,0.01597086526453495
17814291031237,3.268085241317749,-7.751227855682373,5.331887245178223,-0.005589802749454975,-0.0042588976211845875,0.014906140975654125
17814292268375,3.264493942260742,-7.747636795043945,5.310339450836182,-0.008517795242369175,-0.0010647244052961469,0.013042873702943325
17814293505525,3.3004071712493896,-7.710526466369629,5.33547830581665,-0.0026618109550327063,-0.0007985432748682797,0.008251613937318325
17814294742687,3.2740707397460938,-7.69735860824585,5.355829238891602,-0.0013309054775163531,-0.0005323622026480734,0.01463996060192585
17814295979825,3.251325845718384,-7.706935405731201,5.2899885177612305,0.0,-0.0005323622026480734,0.010913425125181675
17814297216962,3.2752678394317627,-7.728483200073242,5.352238178253174,-0.0026618109550327063,-0.0018632676219567657,0.010647243820130825
17814298454112,3.2800562381744385,-7.702147006988525,5.318718910217285,-0.0071868896484375,-0.0077192517928779125,0.010913425125181675
17814299691250,3.246537446975708,-7.733271598815918,5.337872505187988,0.0015970865497365594,-0.0037265352439135313,0.010647243820130825
17814300928387,3.2357635498046875,-7.729680061340332,5.342660903930664,-0.0002661811013240367,-0.005589802749454975,0.010381062515079975
17814302165537,3.2106244564056396,-7.736862659454346,5.297171115875244,0.0002661811013240367,-0.005855984054505825,0.01357523538172245
17814303402662,3.2321722507476807,-7.756016254425049,5.317522048950195,0.0010647244052961469,-0.0063883461989462376,0.0114457868039608
17814304639812,3.2178070545196533,-7.751227855682373,5.261258125305176,-0.0013309054775163531,-0.006122165359556675,0.00958251953125
17814305876962,3.2393548488616943,-7.779958248138428,5.324704647064209,-0.0021294488105922937,-0.00452507846057415,0.0066545275039970875
17814307114112,3.251325845718384,-7.767987251281738,5.263652324676514,-0.0015970865497365594,-0.0023956298828125,0.00958251953125
17814308351250,3.2154128551483154,-7.7643961906433105,5.263652324676514,-0.0010647244052961469,-0.007453070487827063,0.01783413253724575
17814309588387,3.227383852005005,-7.796718120574951,5.305551052093506,0.0042588976211845875,-0.010381062515079975,0.0157046839594841
17814310825525,3.201047658920288,-7.773972988128662,5.257667064666748,-0.0005323622026480734,-0.010647243820130825,0.010913425125181675
17814312062675,3.251325845718384,-7.7883381843566895,5.262455463409424,-0.0018632676219567657,-0.008783976547420025,0.0066545275039970875
17814313299825,3.2321722507476807,-7.790732383728027,5.279214859008789,-0.0026618109550327063,-0.008783976547420025,0.012776692397892475
17814314536975,3.2094273567199707,-7.836222171783447,5.3330841064453125,0.0,-0.0071868896484375,0.01410759799182415
17814315774112,3.1902737617492676,-7.8110833168029785,5.331887245178223,0.0029279920272529125,-0.0066545275039970875,0.0191650390625
17814317011275,3.201047658920288,-7.796718120574951,5.282805919647217,-0.0002661811013240367,-0.0063883461989462376,0.014373779296875
17814318248400,3.2106244564056396,-7.782352447509766,5.305551052093506,-0.0018632676219567657,-0.0015970865497365594,0.010114881210029125
17814319485537,3.2094273567199707,-7.794323921203613,5.303156852722168,0.0,-0.006122165359556675,0.01410759799182415
17814320722675,3.223792552947998,-7.758410453796387,5.331887245178223,-0.0031941730994731188,-0.008783976547420025,0.0162370465695858
17814321959812,3.205836057662964,-7.799112319946289,5.328295707702637,-0.0013309054775163531,-0.005855984054505825,0.0138414166867733
17814323196975,3.1902737617492676,-7.7883381843566895,5.285200119018555,0.0023956298828125,-0.010381062515079975,0.014906140975654125
17814324434112,3.2190041542053223,-7.7883381843566895,5.304353713989258,-0.0015970865497365594,-0.0114457868039608,0.0196974016726017
17814325671262,3.2297780513763428,-7.778761386871338,5.30195951461792,0.0021294488105922937,-0.00984870083630085,0.01889885775744915
17814326908400,3.2118215560913086,-7.826645374298096,5.285200119018555,0.0015970865497365594,-0.012510511092841625,0.01836649514734745
17814328145537,3.228580951690674,-7.806294918060303,5.309142112731934,0.003460354171693325,-0.010913425125181675,0.015438503585755825
17814329382675,3.1651346683502197,-7.771578788757324,5.343858242034912,0.0005323622026480734,-0.01357523538172245,0.014906140975654125
17814330619850,3.223792552947998,-7.805097579956055,5.317522048950195,0.0031941730994731188,-0.007985432632267475,0.01783413253724575
17814331856962,3.177105665206909,-7.7883381843566895,5.3342814445495605,0.0039927163161337376,-0.004791259765625,0.0173017717897892
17814333094125,3.1938650608062744,-7.791929721832275,5.316324710845947,0.0039927163161337376,-0.0114457868039608,0.0162370465695858
17814334331262,3.1878795623779297,-7.838616371154785,5.318718910217285,0.0026618109550327063,-0.01357523538172245,0.0204959437251091
17814335568400,3.1902737617492676,-7.8110833168029785,5.295974254608154,0.0023956298828125,-0.00931633822619915,0.01357523538172245
17814336805562,3.1974563598632812,-7.806294918060303,5.260061264038086,0.0026618109550327063,-0.01357523538172245,0.01756795309484005
17814338042675,3.185485363006592,-7.807491779327393,5.309142112731934,0.005589802749454975,-0.010114881210029125,0.01756795309484005
17814339279812,3.2094273567199707,-7.793126583099365,5.316324710845947,0.003460354171693325,-0.012776692397892475,0.01996358297765255
17814340516975,3.2178070545196533,-7.772775650024414,5.287594318389893,0.0026618109550327063,-0.0114457868039608,0.0196974016726017
17814341754137,3.1735143661499023,-7.773972988128662,5.323507308959961,0.006122165359556675,-0.00984870083630085,0.01943122036755085
17814342991275,3.1711201667785645,-7.767987251281738,5.279214859008789,0.00958251953125,-0.0114457868039608,0.01756795309484005
17814344228412,3.184288263320923,-7.785943984985352,5.30195951461792,0.008517795242369175,-0.007985432632267475,0.0191650390625
17814345465550,3.2178070545196533,-7.7631988525390625,5.3582234382629395,0.0071868896484375,-0.01410759799182415,0.01410759799182415
17814346702687,3.1878795623779297,-7.77756404876709,5.30195951461792,0.00692070834338665,-0.012776692397892475,0.01889885775744915
17814347939825,3.177105665206909,-7.7631988525390625,5.276820659637451,0.008783976547420025,-0.0138414166867733,0.0181003138422966
17814349176975,3.2166099548339844,-7.756016254425049,5.319916248321533,0.008251613937318325,-0.010647243820130825,0.012776692397892475
17814350414137,3.22139835357666,-7.782352447509766,5.284003257751465,0.010913425125181675,-0.00958251953125,0.0114457868039608
17814351651262,3.22139835357666,-7.785943984985352,5.313930511474609,0.010913425125181675,-0.01463996060192585,0.01410759799182415
17814352888412,3.2417490482330322,-7.7655930519104,5.355829238891602,0.01357523538172245,-0.0119781494140625,0.01117960549890995
17814354125550,3.2549171447753906,-7.790732383728027,5.342660903930664,0.010913425125181675,-0.010647243820130825,0.005057440605014563
17814355362712,3.223792552947998,-7.794323921203613,5.304353713989258,0.0119781494140625,-0.008251613937318325,0.00692070834338665
17814356599825,3.204638957977295,-7.771578788757324,5.299565315246582,0.0181003138422966,-0.00984870083630085,0.012510511092841625
17814357836987,3.2142157554626465,-7.772775650024414,5.339069843292236,0.00958251953125,-0.0114457868039608,0.01463996060192585
17814359074125,3.207033157348633,-7.813477516174316,5.3582234382629395,0.0071868896484375,-0.01224433071911335,0.00958251953125
17814360311275,3.2106244564056396,-7.838616371154785,5.341464042663574,0.010647243820130825,-0.014906140975654125,0.0002661811013240367
17814361548400,3.19865345954895,-7.856573104858398,5.294776916503906,0.010647243820130825,-0.015438503585755825,0.0013309054775163531
17814362785550,3.178302764892578,-7.843404769897461,5.342660903930664,0.010381062515079975,-0.01224433071911335,0.0007985432748682797
17814364022700,3.1759085655212402,-7.835025310516357,5.349843502044678,0.0114457868039608,-0.012510511092841625,0.0007985432748682797
17814365259850,3.1902737617492676,-7.829039573669434,5.354632377624512,0.01756795309484005,-0.013309055007994175,0.0015970865497365594
17814366496987,3.227383852005005,-7.82185697555542,5.33547830581665,0.012776692397892475,-0.012776692397892475,-0.0039927163161337376
17814367734125,3.2166099548339844,-7.857769966125488,5.361814975738525,0.010647243820130825,-0.012776692397892475,-0.0023956298828125
17814368971262,3.223792552947998,-7.8529815673828125,5.353435039520264,0.0071868896484375,-0.010913425125181675,-0.00692070834338665
17814370208425,3.2106244564056396,-7.839813709259033,5.368997573852539,0.01224433071911335,-0.01357523538172245,-0.005589802749454975
17814371445550,3.2405519485473633,-7.815871715545654,5.3342814445495605,0.010913425125181675,-0.00931633822619915,-0.007453070487827063
17814372682700,3.2369606494903564,-7.813477516174316,5.363011837005615,0.008251613937318325,-0.013309055007994175,-0.01224433071911335
17814373919837,3.242946147918701,-7.82185697555542,5.376180171966553,0.010381062515079975,-0.01650322787463665,-0.00958251953125
17814375157000,3.2525229454040527,-7.817068576812744,5.364209175109863,0.010381062515079975,-0.0138414166867733,-0.01224433071911335
17814376394137,3.2405519485473633,-7.813477516174316,5.386953830718994,0.012510511092841625,-0.012776692397892475,-0.0090501569211483
17814377631287,3.202244758605957,-7.772775650024414,5.364209175109863,0.010913425125181675,-0.012510511092841625,-0.00958251953125
17814378868412,3.2082302570343018,-7.827842712402344,5.324704647064209,0.0077192517928779125,-0.010913425125181675,-0.010381062515079975
17814380105575,3.222595453262329,-7.800309181213379,5.3330841064453125,0.00931633822619915,-0.0157046839594841,-0.012776692397892475
17814381342712,3.2573113441467285,-7.773972988128662,5.367800235748291,0.013042873702943325,-0.014906140975654125,-0.01783413253724575
17814382579850,3.2309751510620117,-7.766790390014648,5.371391773223877,0.015172322280704975,-0.010647243820130825,-0.01463996060192585
17814383817000,3.2369606494903564,-7.805097579956055,5.343858242034912,0.0157046839594841,-0.015172322280704975,-0.010381062515079975
17814385054150,3.227383852005005,-7.800309181213379,5.360617637634277,0.01463996060192585,-0.015172322280704975,-0.01117960549890995
17814386291275,3.222595453262329,-7.750030994415283,5.407304763793945,0.0138414166867733,-0.01171196810901165,-0.01117960549890995
17814387528412,3.2142157554626465,-7.772775650024414,5.316324710845947,0.014373779296875,-0.010381062515079975,-0.0119781494140625
17814388765575,3.228580951690674,-7.77756404876709,5.370194435119629,0.013309055007994175,-0.015172322280704975,-0.00958251953125
17814390002737,3.228580951690674,-7.752425193786621,5.378574371337891,0.014373779296875,-0.01357523538172245,-0.008517795242369175
17814391239862,3.223792552947998,-7.795520782470703,5.3330841064453125,0.00984870083630085,-0.0138414166867733,-0.010647243820130825
17814392476987,3.2369606494903564,-7.795520782470703,5.353435039520264,0.010647243820130825,-0.010913425125181675,-0.01117960549890995
17814393714162,3.2178070545196533,-7.795520782470703,5.33547830581665,0.0119781494140625,-0.0090501569211483,-0.0119781494140625
17814394951275,3.207033157348633,-7.819462776184082,5.345055103302002,0.01357523538172245,-0.0138414166867733,-0.015172322280704975
17814396188437,3.2609026432037354,-7.7883381843566895,5.3582234382629395,0.013042873702943325,-0.01889885775744915,-0.00984870083630085
17814397425587,3.2321722507476807,-7.7883381843566895,5.382165431976318,0.01836649514734745,-0.01410759799182415,-0.010114881210029125
17814398662712,3.1950621604919434,-7.772775650024414,5.348646640777588,0.0138414166867733,-0.013042873702943325,-0.007985432632267475
17814399899862,3.2381577491760254,-7.813477516174316,5.342660903930664,0.01756795309484005,-0.012510511092841625,-0.005589802749454975
17814401137000,3.199850559234619,-7.800309181213379,5.400122165679932,0.010913425125181675,-0.01410759799182415,-0.007453070487827063
17814402374150,3.1902737617492676,-7.782352447509766,5.407304763793945,0.008251613937318325,-0.00958251953125,-0.007985432632267475
17814403611300,3.2417490482330322,-7.795520782470703,5.377377033233643,0.010647243820130825,-0.01224433071911335,-0.008251613937318325
17814404848437,3.205836057662964,-7.793126583099365,5.337872505187988,0.0157046839594841,-0.0173017717897892,-0.0015970865497365594
17814406085587,3.2190041542053223,-7.790732383728027,5.361814975738525,0.01597086526453495,-0.012510511092841625,-0.00692070834338665
17814407322725,3.183091163635254,-7.775169849395752,5.360617637634277,0.01597086526453495,-0.0114457868039608,-0.005589802749454975
17814408559850,3.1878795623779297,-7.807491779327393,5.325901508331299,0.0071868896484375,-0.008251613937318325,-0.005057440605014563
17814409797012,3.199850559234619,-7.82066011428833,5.373785972595215,0.012510511092841625,-0.010647243820130825,-0.0007985432748682797
17814411034137,3.185485363006592,-7.7895355224609375,5.336675643920898,0.015438503585755825,-0.010114881210029125,-0.003460354171693325
17814412271300,3.205836057662964,-7.815871715545654,5.337872505187988,0.014373779296875,-0.01224433071911335,-0.00692070834338665
17814413508437,3.205836057662964,-7.794323921203613,5.360617637634277,0.0138414166867733,-0.010381062515079975,-0.008251613937318325
17814414745575,3.224989652633667,-7.781155586242676,5.363011837005615,0.013042873702943325,-0.008783976547420025,-0.004791259765625
17814415982725,3.1866824626922607,-7.8110833168029785,5.360617637634277,0.0114457868039608,-0.005057440605014563,-0.0029279920272529125
17814417219862,3.2082302570343018,-7.819462776184082,5.345055103302002,0.013042873702943325,-0.007453070487827063,-0.004791259765625
17814418457025,3.183091163635254,-7.830236911773682,5.337872505187988,0.013309055007994175,-0.01410759799182415,-0.0071868896484375
17814419694150,3.1926679611206055,-7.862558364868164,5.360617637634277,0.010114881210029125,-0.010647243820130825,-0.0037265352439135313
17814420931312,3.2142157554626465,-7.8541789054870605,5.361814975738525,0.008517795242369175,-0.01117960549890995,-0.0007985432748682797
17814422168450,3.222595453262329,-7.803900718688965,5.368997573852539,0.008251613937318325,-0.010647243820130825,-0.0010647244052961469
17814423405600,3.24414324760437,-7.807491779327393,5.377377033233643,0.0077192517928779125,-0.0114457868039608,-0.0015970865497365594
17814424642737,3.2393548488616943,-7.851784706115723,5.355829238891602,0.010913425125181675,-0.007453070487827063,-0.0002661811013240367
17814425879862,3.2142157554626465,-7.817068576812744,5.353435039520264,0.01117960549890995,-0.00692070834338665,-0.0023956298828125
17814427117037,3.226186752319336,-7.814674377441406,5.394136428833008,0.007985432632267475,-0.010647243820130825,-0.0031941730994731188
17814428354175,3.223792552947998,-7.783549785614014,5.372588634490967,0.005057440605014563,-0.0077192517928779125,0.0010647244052961469
17814429591312,3.220201253890991,-7.796718120574951,5.400122165679932,-0.0002661811013240367,-0.0037265352439135313,0.0013309054775163531
