timestamp_ns,accel_x,accel_y,accel_z,gyro_x,gyro_y,gyro_z
17757320302725,2.2146365642547607,-8.761581420898438,4.027047157287598,0.01171196810901165,-0.005589802749454975,-0.005057440605014563
17757321539862,2.2158336639404297,-8.774749755859375,4.034229755401611,0.0162370465695858,-0.00958251953125,-0.0010647244052961469
17757322777000,2.2182278633117676,-8.765172958374023,4.009090900421143,0.014373779296875,-0.010114881210029125,0.0031941730994731188
17757324014112,2.213439464569092,-8.792705535888672,4.0545806884765625,0.010647243820130825,-0.008517795242369175,0.0
17757325251262,2.2242133617401123,-8.826224327087402,4.037821292877197,0.0157046839594841,-0.010913425125181675,-0.0029279920272529125
17757326488375,2.251746654510498,-8.768763542175293,4.045003890991211,0.015438503585755825,-0.004791259765625,-0.0077192517928779125
17757327725512,2.2625205516815186,-8.74721622467041,4.031835556030273,0.013042873702943325,-0.010114881210029125,-0.0037265352439135313
17757328962650,2.2421698570251465,-8.828619003295898,4.06894588470459,0.010647243820130825,-0.0066545275039970875,-0.003460354171693325
17757330199800,2.248155355453491,-8.80467700958252,4.052186489105225,0.010381062515079975,-0.007453070487827063,-0.004791259765625
17757331436900,2.2421698570251465,-8.815450668334961,4.0114850997924805,0.0157046839594841,-0.01224433071911335,0.0
17757332674037,2.2661118507385254,-8.83939266204834,4.046200752258301,0.01703559048473835,-0.0138414166867733,0.0021294488105922937
17757333911162,2.2433669567108154,-8.80467700958252,4.041412353515625,0.014906140975654125,-0.0077192517928779125,-0.0021294488105922937
17757335148287,2.205059766769409,-8.792705535888672,4.010287761688232,0.01224433071911335,-0.005589802749454975,-0.0042588976211845875
17757336385437,2.2242133617401123,-8.819042205810547,4.041412353515625,0.01117960549890995,-0.012510511092841625,-0.007453070487827063
17757337622562,2.2589292526245117,-8.775946617126465,4.017470359802246,0.015438503585755825,-0.01463996060192585,-0.0013309054775163531
17757338859687,2.256535053253174,-8.753201484680176,4.035427093505859,0.01171196810901165,-0.008251613937318325,-0.0071868896484375
17757340096825,2.212242364883423,-8.792705535888672,3.9923312664031982,0.01357523538172245,-0.0077192517928779125,-0.008783976547420025
17757341333937,2.2373814582824707,-8.80587387084961,4.048594951629639,0.01836649514734745,-0.0077192517928779125,-0.0066545275039970875
17757342571087,2.2373814582824707,-8.791508674621582,4.042609691619873,0.01836649514734745,-0.0090501569211483,-0.007453070487827063
17757343808225,2.2146365642547607,-8.810662269592285,4.034229755401611,0.01703559048473835,-0.013042873702943325,-0.0063883461989462376
17757345045350,2.1942858695983887,-8.832210540771484,4.060565948486328,0.01703559048473835,-0.012776692397892475,-0.00452507846057415
17757346282462,2.2170307636260986,-8.798691749572754,4.0545806884765625,0.013042873702943325,-0.0167694091796875,-0.0031941730994731188
17757347519587,2.227804660797119,-8.822633743286133,4.0330328941345215,0.01357523538172245,-0.0077192517928779125,-0.010381062515079975
17757348756750,2.2254104614257812,-8.821435928344727,4.0749311447143555,0.01463996060192585,-0.0077192517928779125,-0.01117960549890995
17757349993875,2.2397756576538086,-8.790311813354492,4.109647274017334,0.0162370465695858,-0.007985432632267475,-0.010381062515079975
17757351231000,2.227804660797119,-8.802282333374023,4.060565948486328,0.0196974016726017,-0.013309055007994175,-0.01224433071911335
17757352468137,2.248155355453491,-8.817845344543457,4.045003890991211,0.01756795309484005,-0.010913425125181675,-0.01410759799182415
17757353705250,2.2457611560821533,-8.828619003295898,4.028244495391846,0.01597086526453495,-0.0066545275039970875,-0.01171196810901165
17757354942400,2.234987258911133,-8.828619003295898,4.0964789390563965,0.0191650390625,-0.0063883461989462376,-0.0090501569211483
17757356179525,2.2601263523101807,-8.831012725830078,4.072536945343018,0.0162370465695858,-0.01224433071911335,-0.008251613937318325
17757357416662,2.2373814582824707,-8.81664752960205,4.045003890991211,0.015438503585755825,-0.00984870083630085,-0.008783976547420025
17757358653800,2.2170307636260986,-8.80587387084961,4.088099479675293,0.01357523538172245,-0.0042588976211845875,-0.013309055007994175
17757359890925,2.2613234519958496,-8.866926193237305,4.061763286590576,0.0162370465695858,-0.00692070834338665,-0.010647243820130825
17757361128075,2.2445640563964844,-8.851364135742188,4.0533833503723145,0.015172322280704975,-0.00984870083630085,-0.010913425125181675
17757362365187,2.206256866455078,-8.841787338256836,4.060565948486328,0.01224433071911335,-0.005057440605014563,-0.0119781494140625
17757363602312,2.250549554824829,-8.889671325683594,4.082113742828369,0.014906140975654125,-0.00692070834338665,-0.0119781494140625
17757364839437,2.232593059539795,-8.83819580078125,4.034229755401611,0.012776692397892475,-0.00692070834338665,-0.007985432632267475
17757366076587,2.2661118507385254,-8.825027465820312,4.061763286590576,0.0114457868039608,-0.008783976547420025,-0.008251613937318325
17757367313687,2.2637176513671875,-8.815450668334961,4.078522682189941,0.01171196810901165,-0.0077192517928779125,-0.010647243820130825
17757368550837,2.2661118507385254,-8.810662269592285,4.124012470245361,0.0157046839594841,-0.00958251953125,-0.0066545275039970875
17757369787975,2.230198860168457,-8.822633743286133,4.088099479675293,0.01171196810901165,-0.0090501569211483,-0.0053236219100654125
17757371025100,2.2601263523101807,-8.835801124572754,4.055777549743652,0.010913425125181675,-0.0042588976211845875,-0.0071868896484375
17757372262237,2.2876596450805664,-8.793903350830078,4.07014274597168,0.010913425125181675,-0.0066545275039970875,-0.01171196810901165
17757373499350,2.2601263523101807,-8.832210540771484,4.10366153717041,0.013309055007994175,-0.00984870083630085,-0.01597086526453495
17757374736487,2.256535053253174,-8.83819580078125,4.129997730255127,0.012776692397892475,-0.0037265352439135313,-0.013042873702943325
17757375973625,2.251746654510498,-8.844181060791016,4.072536945343018,0.0119781494140625,-0.005057440605014563,-0.008251613937318325
17757377210750,2.2469582557678223,-8.793903350830078,4.079719543457031,0.01171196810901165,-0.0015970865497365594,-0.007985432632267475
17757378447875,2.2673089504241943,-8.832210540771484,4.080916881561279,0.0114457868039608,-0.0037265352439135313,-0.01117960549890995
17757379685025,2.255337953567505,-8.825027465820312,4.120420932769775,0.01357523538172245,-0.006122165359556675,-0.00958251953125
17757380922137,2.251746654510498,-8.822633743286133,4.07014274597168,0.014906140975654125,-0.00692070834338665,-0.010913425125181675
17757382159287,2.234987258911133,-8.841787338256836,4.05817174911499,0.00984870083630085,-0.008783976547420025,-0.00931633822619915
17757383396412,2.2170307636260986,-8.795100212097168,4.083311080932617,0.0119781494140625,-0.0039927163161337376,-0.005589802749454975
17757384633525,2.2685060501098633,-8.792705535888672,4.085705280303955,0.00931633822619915,-0.0039927163161337376,-0.0018632676219567657
17757385870675,2.274491548538208,-8.828619003295898,4.031835556030273,0.012776692397892475,-0.0071868896484375,-0.004791259765625
17757387107800,2.274491548538208,-8.802282333374023,4.092887878417969,0.01171196810901165,-0.0031941730994731188,-0.010647243820130825
17757388344950,2.2254104614257812,-8.796297073364258,4.077325344085693,0.010114881210029125,-0.0002661811013240367,-0.008783976547420025
17757389582075,2.2673089504241943,-8.819042205810547,4.120420932769775,0.0090501569211483,-0.0002661811013240367,-0.00931633822619915
17757390819187,2.2625205516815186,-8.808268547058105,4.095282077789307,0.01410759799182415,-0.0005323622026480734,-0.00958251953125
17757392056312,2.255337953567505,-8.789114952087402,4.017470359802246,0.014906140975654125,-0.0037265352439135313,-0.00984870083630085
17757393293450,2.270900249481201,-8.795100212097168,4.015076160430908,0.010913425125181675,-0.007985432632267475,-0.012510511092841625
17757394530587,2.3056161403656006,-8.822633743286133,4.052186489105225,0.00958251953125,-0.005057440605014563,-0.012510511092841625
17757395767712,2.2685060501098633,-8.75080680847168,4.060565948486328,0.008517795242369175,-0.005057440605014563,-0.008783976547420025
17757397004850,2.252943754196167,-8.789114952087402,4.060565948486328,0.01117960549890995,-0.006122165359556675,-0.00958251953125
17757398241975,2.2661118507385254,-8.775946617126465,4.052186489105225,0.010913425125181675,-0.004791259765625,-0.01357523538172245
17757399479112,2.278082847595215,-8.808268547058105,4.0761284828186035,0.00958251953125,-0.0029279920272529125,-0.01117960549890995
17757400716237,2.233790159225464,-8.772355079650879,4.064157485961914,0.010114881210029125,-0.0015970865497365594,-0.00984870083630085
17757401953387,2.27209734916687,-8.785523414611816,4.052186489105225,0.0114457868039608,0.0037265352439135313,-0.01410759799182415
17757403190500,2.279279947280884,-8.834604263305664,4.0749311447143555,0.01410759799182415,-0.005057440605014563,-0.010381062515079975
17757404427637,2.2361843585968018,-8.798691749572754,4.005499362945557,0.01117960549890995,-0.0053236219100654125,-0.0077192517928779125
17757405664775,2.255337953567505,-8.808268547058105,4.0964789390563965,0.0119781494140625,-0.005589802749454975,-0.010381062515079975
17757406901875,2.2361843585968018,-8.80348014831543,4.05817174911499,0.0114457868039608,-0.0002661811013240367,-0.012510511092841625
17757408139025,2.2469582557678223,-8.814253807067871,4.048594951629639,0.01224433071911335,-0.0026618109550327063,-0.0114457868039608
17757409376175,2.2876596450805664,-8.798691749572754,4.049792289733887,0.01117960549890995,-0.0002661811013240367,-0.007985432632267475
17757410613275,2.24935245513916,-8.819042205810547,4.07014274597168,0.013042873702943325,-0.005589802749454975,-0.008783976547420025
17757411850412,2.29484224319458,-8.811859130859375,4.109647274017334,0.0066545275039970875,-0.008251613937318325,-0.006122165359556675
17757413087562,2.278082847595215,-8.786720275878906,4.019864559173584,0.004791259765625,-0.0002661811013240367,-0.007985432632267475
17757414324675,2.2589292526245117,-8.841787338256836,4.090493679046631,0.007985432632267475,0.0021294488105922937,-0.012510511092841625
17757415561812,2.2637176513671875,-8.799888610839844,4.088099479675293,0.00692070834338665,0.0029279920272529125,-0.010114881210029125
17757416798937,2.273294448852539,-8.81664752960205,4.061763286590576,0.00984870083630085,-0.0010647244052961469,-0.00692070834338665
17757418036075,2.274491548538208,-8.80587387084961,4.059369087219238,0.00984870083630085,-0.0002661811013240367,-0.005589802749454975
17757419273200,2.27209734916687,-8.777143478393555,4.112041473388672,0.01463996060192585,-0.0013309054775163531,-0.0063883461989462376
17757420510337,2.275688648223877,-8.7699613571167,4.047398090362549,0.0138414166867733,0.0,-0.010114881210029125
17757421747475,2.2589292526245117,-8.793903350830078,4.10246467590332,0.00958251953125,0.0002661811013240367,-0.00958251953125
17757422984600,2.2673089504241943,-8.820239067077637,4.098873138427734,0.010114881210029125,-0.0013309054775163531,-0.01357523538172245
17757424221712,2.3271641731262207,-8.785523414611816,4.071340084075928,0.005855984054505825,0.0026618109550327063,-0.00958251953125
17757425458862,2.279279947280884,-8.793903350830078,4.066551685333252,0.00958251953125,-0.0053236219100654125,-0.0066545275039970875
17757426696000,2.3367409706115723,-8.8070707321167,4.073734283447266,0.008783976547420025,-0.006122165359556675,-0.00931633822619915
17757427933125,2.254140853881836,-8.786720275878906,4.089296340942383,0.00692070834338665,0.004791259765625,-0.010381062515079975
17757429170275,2.2649147510528564,-8.787917137145996,4.064157485961914,0.007985432632267475,0.0021294488105922937,-0.008783976547420025
17757430407387,2.2661118507385254,-8.743624687194824,4.095282077789307,0.012776692397892475,-0.0053236219100654125,-0.00984870083630085
17757431644525,2.2673089504241943,-8.80587387084961,4.043806552886963,0.00958251953125,-0.0005323622026480734,-0.007985432632267475
17757432881650,2.273294448852539,-8.802282333374023,4.082113742828369,0.007985432632267475,-0.0005323622026480734,-0.01171196810901165
17757434118775,2.3068132400512695,-8.846575736999512,4.067748546600342,0.0071868896484375,0.0023956298828125,-0.006122165359556675
17757435355925,2.275688648223877,-8.869319915771484,4.061763286590576,0.0114457868039608,0.0018632676219567657,-0.0053236219100654125
17757436593062,2.2685060501098633,-8.826224327087402,4.10366153717041,0.010647243820130825,-0.0013309054775163531,-0.0114457868039608
17757437830175,2.3068132400512695,-8.797493934631348,4.10366153717041,0.007453070487827063,-0.0026618109550327063,-0.0114457868039608
17757439067300,2.3116018772125244,-8.833407402038574,4.077325344085693,0.007453070487827063,-0.0031941730994731188,-0.0071868896484375
17757440304437,2.2816741466522217,-8.842984199523926,4.101267337799072,0.00958251953125,0.0,-0.005589802749454975
17757441541575,2.297236442565918,-8.81664752960205,4.082113742828369,0.0077192517928779125,-0.0007985432748682797,-0.00958251953125
17757442778712,2.3295583724975586,-8.848969459533691,4.067748546600342,0.014373779296875,0.0005323622026480734,-0.0053236219100654125
17757444015837,2.2828712463378906,-8.80348014831543,4.108449935913086,0.015438503585755825,0.0023956298828125,-0.0026618109550327063
17757445252950,2.3139960765838623,-8.80348014831543,4.043806552886963,0.013309055007994175,0.0029279920272529125,-0.00452507846057415
17757446490087,2.3032219409942627,-8.80587387084961,4.073734283447266,0.010647243820130825,-0.0039927163161337376,-0.004791259765625
17757447727212,2.3343467712402344,-8.8070707321167,4.080916881561279,0.008783976547420025,-0.0005323622026480734,-0.0053236219100654125
17757448964375,2.3367409706115723,-8.810662269592285,4.078522682189941,0.01171196810901165,0.0026618109550327063,-0.005589802749454975
17757450201475,2.3343467712402344,-8.8070707321167,4.0976762771606445,0.014373779296875,-0.0018632676219567657,-0.0037265352439135313
17757451438612,2.2864625453948975,-8.768763542175293,4.092887878417969,0.008517795242369175,-0.005855984054505825,-0.0015970865497365594
17757452675750,2.2888567447662354,-8.777143478393555,4.120420932769775,0.010647243820130825,-0.0031941730994731188,0.0029279920272529125
17757453912887,2.3080103397369385,-8.771158218383789,4.116829872131348,0.0071868896484375,-0.0007985432748682797,0.0005323622026480734
17757455150012,2.337938070297241,-8.789114952087402,4.098873138427734,0.010647243820130825,-0.005589802749454975,0.0
17757456387137,2.3535003662109375,-8.774749755859375,4.098873138427734,0.00984870083630085,-0.005057440605014563,-0.0037265352439135313
17757457624275,2.299630641937256,-8.797493934631348,4.109647274017334,0.012510511092841625,-0.0015970865497365594,0.003460354171693325
17757458861412,2.3331496715545654,-8.796297073364258,4.116829872131348,0.010913425125181675,-0.0026618109550327063,-0.0002661811013240367
17757460098525,2.321178674697876,-8.820239067077637,4.066551685333252,0.010913425125181675,-0.0031941730994731188,0.0002661811013240367
17757461335662,2.3032219409942627,-8.823830604553223,4.116829872131348,0.0090501569211483,-0.0053236219100654125,-0.0010647244052961469
17757462572800,2.2828712463378906,-8.8070707321167,4.0976762771606445,0.006122165359556675,-0.010381062515079975,-0.0023956298828125
17757463809925,2.299630641937256,-8.83699893951416,4.088099479675293,0.0071868896484375,-0.005855984054505825,0.0031941730994731188
17757465047050,2.298433542251587,-8.835801124572754,4.052186489105225,0.008783976547420025,-0.0015970865497365594,0.0042588976211845875
17757466284187,2.275688648223877,-8.835801124572754,4.073734283447266,0.0063883461989462376,-0.0023956298828125,0.0005323622026480734
17757467521325,2.278082847595215,-8.845377922058105,4.050989151000977,0.005589802749454975,-0.0042588976211845875,-0.0039927163161337376
17757468758450,2.248155355453491,-8.878896713256836,4.0976762771606445,0.0023956298828125,-0.003460354171693325,0.0037265352439135313
17757469995587,2.2804770469665527,-8.90762710571289,4.086902141571045,0.004791259765625,-0.0037265352439135313,0.0002661811013240367
17757471232737,2.292448043823242,-8.911218643188477,4.077325344085693,0.0021294488105922937,-0.0039927163161337376,-0.0002661811013240367
17757472469837,2.275688648223877,-8.850166320800781,4.077325344085693,0.0029279920272529125,-0.0015970865497365594,0.004791259765625
17757473706962,2.256535053253174,-8.844181060791016,4.095282077789307,0.0002661811013240367,-0.0021294488105922937,0.00692070834338665
17757474944112,2.2828712463378906,-8.842984199523926,4.077325344085693,0.0002661811013240367,-0.005855984054505825,0.006122165359556675
17757476181237,2.251746654510498,-8.860940933227539,4.11443567276001,0.0018632676219567657,-0.00452507846057415,0.0071868896484375
17757477418350,2.273294448852539,-8.847772598266602,4.1192240715026855,0.0031941730994731188,-0.0010647244052961469,0.0077192517928779125
17757478655500,2.296039342880249,-8.808268547058105,4.083311080932617,0.0010647244052961469,-0.0018632676219567657,0.0066545275039970875
17757479892637,2.2888567447662354,-8.826224327087402,4.073734283447266,0.0,-0.0063883461989462376,0.008783976547420025
17757481129762,2.3020248413085938,-8.851364135742188,4.06894588470459,-0.0021294488105922937,-0.0066545275039970875,0.008251613937318325
17757482366887,2.2673089504241943,-8.878896713256836,4.101267337799072,-0.0010647244052961469,-0.00452507846057415,0.007453070487827063
17757483604012,2.2577321529388428,-8.846575736999512,4.129997730255127,-0.0053236219100654125,-0.00452507846057415,0.008517795242369175
17757484841175,2.2816741466522217,-8.84058952331543,4.067748546600342,-0.010913425125181675,-0.003460354171693325,0.008783976547420025
17757486078275,2.2421698570251465,-8.833407402038574,4.034229755401611,-0.006122165359556675,-0.007453070487827063,0.0066545275039970875
17757487315412,2.252943754196167,-8.863334655761719,4.037821292877197,-0.0031941730994731188,-0.008251613937318325,0.003460354171693325
17757488552550,2.2601263523101807,-8.860940933227539,4.052186489105225,-0.0063883461989462376,-0.0005323622026480734,0.0063883461989462376
17757489789687,2.231395959854126,-8.87051773071289,4.110844135284424,-0.0053236219100654125,-0.00452507846057415,0.013309055007994175
17757491026825,2.250549554824829,-8.841787338256836,4.079719543457031,-0.004791259765625,-0.003460354171693325,0.01410759799182415
17757492263962,2.2625205516815186,-8.87051773071289,4.031835556030273,-0.0013309054775163531,-0.005855984054505825,0.012510511092841625
17757493501062,2.2649147510528564,-8.869319915771484,4.1180267333984375,-0.008251613937318325,-0.005589802749454975,0.008251613937318325
17757494738212,2.274491548538208,-8.862137794494629,4.060565948486328,-0.01410759799182415,-0.004791259765625,0.008783976547420025
17757495975337,2.234987258911133,-8.850166320800781,4.048594951629639,-0.0042588976211845875,-0.0039927163161337376,0.0167694091796875
17757497212475,2.252943754196167,-8.862137794494629,4.037821292877197,-0.00452507846057415,-0.0023956298828125,0.0167694091796875
17757498449600,2.2804770469665527,-8.845377922058105,4.062960147857666,-0.00984870083630085,-0.0023956298828125,0.007985432632267475
17757499686737,2.275688648223877,-8.796297073364258,4.072536945343018,-0.005057440605014563,-0.0023956298828125,0.010114881210029125
17757500923875,2.2613234519958496,-8.78312873840332,4.066551685333252,-0.005057440605014563,-0.005589802749454975,0.0196974016726017
17757502161000,2.256535053253174,-8.792705535888672,4.0761284828186035,-0.0063883461989462376,-0.004791259765625,0.013042873702943325
17757503398125,2.255337953567505,-8.792705535888672,4.064157485961914,-0.00692070834338665,-0.0066545275039970875,0.008517795242369175
17757504635250,2.2828712463378906,-8.841787338256836,4.071340084075928,-0.00984870083630085,-0.005057440605014563,0.010913425125181675
17757505872387,2.2900538444519043,-8.831012725830078,4.1180267333984375,-0.0066545275039970875,-0.004791259765625,0.01171196810901165
17757507109525,2.256535053253174,-8.80587387084961,4.048594951629639,-0.0018632676219567657,-0.005057440605014563,0.0119781494140625
17757508346650,2.2685060501098633,-8.797493934631348,4.065354347229004,-0.0026618109550327063,-0.0039927163161337376,0.0071868896484375
17757509583775,2.274491548538208,-8.768763542175293,4.090493679046631,-0.008783976547420025,-0.0026618109550327063,0.00692070834338665
17757510820912,2.279279947280884,-8.798691749572754,4.071340084075928,-0.0053236219100654125,-0.005057440605014563,0.013042873702943325
17757512058037,2.2613234519958496,-8.810662269592285,4.061763286590576,0.0023956298828125,-0.007985432632267475,0.00984870083630085
17757513295175,2.2852654457092285,-8.848969459533691,4.121618270874023,0.0015970865497365594,-0.0063883461989462376,0.007985432632267475
17757514532300,2.2601263523101807,-8.810662269592285,4.113238334655762,-0.0023956298828125,-0.0071868896484375,0.004791259765625
17757515769437,2.2673089504241943,-8.821435928344727,4.100070476531982,-0.005855984054505825,0.0005323622026480734,0.0010647244052961469
17757517006562,2.2625205516815186,-8.809465408325195,4.132391929626465,-0.00452507846057415,-0.0037265352439135313,0.0026618109550327063
17757518243700,2.2840683460235596,-8.822633743286133,4.084507942199707,-0.0042588976211845875,-0.0053236219100654125,0.00452507846057415
17757519480837,2.293645143508911,-8.823830604553223,4.109647274017334,-0.0066545275039970875,-0.0018632676219567657,0.0042588976211845875
17757520717975,2.293645143508911,-8.845377922058105,4.124012470245361,-0.0015970865497365594,-0.0029279920272529125,0.00452507846057415
17757521955112,2.2613234519958496,-8.850166320800781,4.080916881561279,0.0013309054775163531,-0.0042588976211845875,0.0037265352439135313
17757523192225,2.2685060501098633,-8.828619003295898,4.140771865844727,-0.0023956298828125,-0.005855984054505825,0.0026618109550327063
17757524429362,2.27209734916687,-8.847772598266602,4.078522682189941,-0.0039927163161337376,-0.00692070834338665,0.0
17757525666487,2.250549554824829,-8.820239067077637,4.107253074645996,-0.0071868896484375,-0.005057440605014563,-0.0013309054775163531
17757526903625,2.2445640563964844,-8.810662269592285,4.100070476531982,-0.00958251953125,-0.007453070487827063,-0.0021294488105922937
17757528140725,2.27209734916687,-8.801085472106934,4.137180805206299,-0.005855984054505825,-0.00452507846057415,-0.0026618109550327063
17757529377875,2.293645143508911,-8.810662269592285,4.101267337799072,-0.0015970865497365594,-0.0039927163161337376,-0.0005323622026480734
17757530615025,2.252943754196167,-8.826224327087402,4.1192240715026855,-0.005057440605014563,-0.00452507846057415,-0.0037265352439135313
17757531852137,2.2373814582824707,-8.81664752960205,4.10246467590332,-0.007453070487827063,0.0018632676219567657,-0.0066545275039970875
17757533089275,2.3020248413085938,-8.813056945800781,4.1156325340271,-0.00452507846057415,-0.0018632676219567657,-0.0029279920272529125
17757534326400,2.2697031497955322,-8.815450668334961,4.112041473388672,-0.0063883461989462376,-0.0005323622026480734,-0.0077192517928779125
17757535563550,2.2804770469665527,-8.78073501586914,4.125209331512451,-0.005589802749454975,0.0013309054775163531,-0.01410759799182415
17757536800687,2.2409727573394775,-8.7699613571167,4.110844135284424,-0.0042588976211845875,0.0039927163161337376,-0.00984870083630085
17757538037800,2.252943754196167,-8.723274230957031,4.092887878417969,-0.0042588976211845875,0.0031941730994731188,-0.008251613937318325
17757539274925,2.276885747909546,-8.725667953491211,4.089296340942383,-0.0015970865497365594,0.0,-0.004791259765625
17757540512075,2.2864625453948975,-8.757989883422852,4.104858875274658,-0.007453070487827063,0.0090501569211483,-0.0090501569211483
17757541749187,2.254140853881836,-8.75080680847168,4.094084739685059,-0.0002661811013240367,0.01117960549890995,-0.01117960549890995
17757542986312,2.2613234519958496,-8.752004623413086,4.1443634033203125,-0.0010647244052961469,0.0,-0.0039927163161337376
17757544223450,2.2840683460235596,-8.735244750976562,4.131195068359375,-0.005057440605014563,-0.0010647244052961469,-0.0077192517928779125
17757545460575,2.322375774383545,-8.743624687194824,4.10366153717041,0.0015970865497365594,-0.0039927163161337376,-0.013042873702943325
17757546697737,2.322375774383545,-8.784326553344727,4.098873138427734,0.0039927163161337376,-0.0029279920272529125,-0.013042873702943325
17757547934850,2.2828712463378906,-8.766369819641113,4.094084739685059,-0.0013309054775163531,0.0013309054775163531,-0.00984870083630085
17757549172000,2.2673089504241943,-8.787917137145996,4.14675760269165,0.0023956298828125,0.0010647244052961469,-0.0042588976211845875
17757550409112,2.275688648223877,-8.795100212097168,4.112041473388672,-0.0037265352439135313,0.0063883461989462376,-0.01171196810901165
17757551646237,2.3163902759552,-8.765172958374023,4.145560264587402,-0.0042588976211845875,0.005589802749454975,-0.01410759799182415
17757552883387,2.297236442565918,-8.787917137145996,4.1156325340271,0.0021294488105922937,-0.0023956298828125,-0.0021294488105922937
17757554120500,2.317587375640869,-8.792705535888672,4.092887878417969,0.005057440605014563,0.0005323622026480734,-0.0013309054775163531
17757555357650,2.299630641937256,-8.798691749572754,4.098873138427734,0.0,0.0002661811013240367,-0.008517795242369175
17757556594762,2.324769973754883,-8.793903350830078,4.11443567276001,0.005057440605014563,0.003460354171693325,-0.010381062515079975
17757557831900,2.276885747909546,-8.789114952087402,4.1192240715026855,0.0018632676219567657,0.0023956298828125,-0.0053236219100654125
17757559069037,2.3032219409942627,-8.81664752960205,4.083311080932617,0.005589802749454975,0.0071868896484375,-0.0071868896484375
17757560306175,2.2852654457092285,-8.784326553344727,4.140771865844727,0.0066545275039970875,0.006122165359556675,-0.00692070834338665
17757561543300,2.2613234519958496,-8.787917137145996,4.124012470245361,0.00452507846057415,0.0063883461989462376,-0.00984870083630085
17757562780412,2.2685060501098633,-8.798691749572754,4.122815132141113,0.003460354171693325,0.00452507846057415,-0.0077192517928779125
17757564017537,2.2912509441375732,-8.809465408325195,4.094084739685059,0.0,0.0053236219100654125,-0.008251613937318325
17757565254687,2.2888567447662354,-8.78312873840332,4.125209331512451,0.004791259765625,0.0005323622026480734,-0.008251613937318325
17757566491812,2.2625205516815186,-8.814253807067871,4.1156325340271,0.0039927163161337376,0.0013309054775163531,-0.007453070487827063
17757567728962,2.3092074394226074,-8.813056945800781,4.161122798919678,0.0018632676219567657,0.0039927163161337376,-0.005057440605014563
17757568966075,2.3092074394226074,-8.78312873840332,4.126406669616699,0.0018632676219567657,0.0026618109550327063,-0.0015970865497365594
17757570203225,2.3104045391082764,-8.832210540771484,4.124012470245361,0.0029279920272529125,0.0039927163161337376,-0.0053236219100654125
17757571440337,2.29484224319458,-8.833407402038574,4.072536945343018,0.00692070834338665,0.00452507846057415,-0.005855984054505825
17757572677487,2.2601263523101807,-8.825027465820312,4.109647274017334,0.0042588976211845875,0.0037265352439135313,-0.0077192517928779125
17757573914600,2.2840683460235596,-8.80587387084961,4.086902141571045,0.0039927163161337376,0.00452507846057415,-0.0018632676219567657
17757575151737,2.278082847595215,-8.821435928344727,4.077325344085693,0.0042588976211845875,0.0039927163161337376,-0.0023956298828125
17757576388875,2.270900249481201,-8.863334655761719,4.106055736541748,0.00452507846057415,0.005057440605014563,-0.0026618109550327063
17757577626000,2.300827741622925,-8.842984199523926,4.109647274017334,0.0010647244052961469,0.0042588976211845875,-0.004791259765625
17757578863137,2.319981575012207,-8.852560997009277,4.155137062072754,0.0026618109550327063,0.010114881210029125,-0.0090501569211483
17757580100250,2.3032219409942627,-8.883685111999512,4.14795446395874,0.004791259765625,0.008783976547420025,-0.0031941730994731188
17757581337387,2.252943754196167,-8.850166320800781,4.091690540313721,0.0005323622026480734,0.00931633822619915,-0.005057440605014563
17757582574525,2.300827741622925,-8.828619003295898,4.1192240715026855,-0.0042588976211845875,0.0119781494140625,-0.0026618109550327063
17757583811650,2.299630641937256,-8.854954719543457,4.092887878417969,0.0026618109550327063,0.00931633822619915,-0.0031941730994731188
17757585048775,2.3163902759552,-8.877699851989746,4.062960147857666,0.0010647244052961469,0.010114881210029125,-0.0029279920272529125
17757586285937,2.275688648223877,-8.850166320800781,4.095282077789307,-0.0026618109550327063,0.008517795242369175,-0.003460354171693325
17757587523062,2.297236442565918,-8.817845344543457,4.098873138427734,-0.0002661811013240367,0.01171196810901165,0.0
17757588760200,2.3259670734405518,-8.875306129455566,4.080916881561279,0.0005323622026480734,0.007985432632267475,-0.0053236219100654125
17757589997312,2.2912509441375732,-8.857349395751953,4.083311080932617,-0.0039927163161337376,0.012510511092841625,-0.005589802749454975
17757591234450,2.3020248413085938,-8.814253807067871,4.109647274017334,-0.0015970865497365594,0.00958251953125,-0.0021294488105922937
17757592471575,2.318784475326538,-8.841787338256836,4.110844135284424,-0.0010647244052961469,0.00984870083630085,-0.00452507846057415
17757593708700,2.279279947280884,-8.847772598266602,4.141969203948975,-0.0042588976211845875,0.015172322280704975,-0.005589802749454975
17757594945825,2.270900249481201,-8.878896713256836,4.108449935913086,-0.0053236219100654125,0.010647243820130825,0.0
17757596182962,2.319981575012207,-8.854954719543457,4.100070476531982,-0.004791259765625,0.008783976547420025,0.0039927163161337376
17757597420100,2.3511061668395996,-8.823830604553223,4.089296340942383,-0.005589802749454975,0.00931633822619915,-0.005589802749454975
17757598657225,2.2888567447662354,-8.845377922058105,4.072536945343018,-0.005589802749454975,0.0138414166867733,0.0005323622026480734
17757599894362,2.3295583724975586,-8.83939266204834,4.108449935913086,-0.010114881210029125,0.015438503585755825,0.0013309054775163531
17757601131500,2.3032219409942627,-8.820239067077637,4.101267337799072,-0.0053236219100654125,0.01171196810901165,0.0007985432748682797
17757602368612,2.3092074394226074,-8.842984199523926,4.122815132141113,-0.0053236219100654125,0.015438503585755825,0.0007985432748682797
17757603605737,2.3319525718688965,-8.823830604553223,4.0976762771606445,-0.005057440605014563,0.01357523538172245,-0.0018632676219567657
17757604842900,2.3343467712402344,-8.882488250732422,4.106055736541748,-0.004791259765625,0.008517795242369175,-0.0031941730994731188
17757606080012,2.300827741622925,-8.866926193237305,4.090493679046631,-0.008783976547420025,0.012510511092841625,-0.00452507846057415
17757607317150,2.321178674697876,-8.842984199523926,4.078522682189941,-0.008783976547420025,0.010647243820130825,-0.0026618109550327063
17757608554287,2.299630641937256,-8.87171459197998,4.122815132141113,-0.008783976547420025,0.0167694091796875,-0.0031941730994731188
17757609791412,2.2876596450805664,-8.869319915771484,4.106055736541748,-0.01357523538172245,0.01463996060192585,-0.0010647244052961469
17757611028562,2.318784475326538,-8.844181060791016,4.090493679046631,-0.01410759799182415,0.015438503585755825,0.0013309054775163531
17757612265675,2.3139960765838623,-8.866926193237305,4.066551685333252,-0.012510511092841625,0.012510511092841625,0.0037265352439135313
17757613502800,2.3295583724975586,-8.859743118286133,4.071340084075928,-0.0138414166867733,0.01117960549890995,-0.0053236219100654125
17757614739937,2.3139960765838623,-8.877699851989746,4.108449935913086,-0.015172322280704975,0.01357523538172245,-0.003460354171693325
17757615977062,2.3295583724975586,-8.825027465820312,4.100070476531982,-0.01463996060192585,0.01650322787463665,0.0013309054775163531
17757617214200,2.341529369354248,-8.83699893951416,4.05817174911499,-0.015172322280704975,0.0167694091796875,0.0031941730994731188
17757618451337,2.360682964324951,-8.864531517028809,4.072536945343018,-0.0162370465695858,0.014373779296875,0.0015970865497365594
17757619688450,2.3319525718688965,-8.83939266204834,4.112041473388672,-0.0167694091796875,0.01463996060192585,-0.0013309054775163531
17757620925600,2.3080103397369385,-8.832210540771484,4.116829872131348,-0.02076212503015995,0.01703559048473835,0.003460354171693325
17757622162725,2.366668462753296,-8.829815864562988,4.085705280303955,-0.01996358297765255,0.0138414166867733,-0.0010647244052961469
17757623399875,2.33913516998291,-8.826224327087402,4.061763286590576,-0.01650322787463665,0.01224433071911335,0.0023956298828125
17757624636987,2.3295583724975586,-8.842984199523926,4.05817174911499,-0.014373779296875,0.012510511092841625,0.0042588976211845875
17757625874125,2.3511061668395996,-8.845377922058105,4.10366153717041,-0.01703559048473835,0.013309055007994175,-0.0010647244052961469
17757627111250,2.345120668411255,-8.798691749572754,4.086902141571045,-0.01889885775744915,0.014906140975654125,0.007985432632267475
17757628348375,2.3295583724975586,-8.786720275878906,4.055777549743652,-0.01783413253724575,0.0173017717897892,0.00931633822619915
17757629585500,2.3151931762695312,-8.80587387084961,4.037821292877197,-0.01410759799182415,0.013042873702943325,0.006122165359556675
17757630822637,2.33913516998291,-8.802282333374023,4.112041473388672,-0.015438503585755825,0.010381062515079975,0.010647243820130825
17757632059787,2.3523032665252686,-8.80587387084961,4.079719543457031,-0.02076212503015995,0.0186326764523983,0.007985432632267475
17757633296900,2.3259670734405518,-8.774749755859375,4.042609691619873,-0.0162370465695858,0.015172322280704975,0.010913425125181675
17757634534037,2.360682964324951,-8.785523414611816,4.049792289733887,-0.014373779296875,0.010381062515079975,0.00958251953125
17757635771162,2.3798365592956543,-8.796297073364258,4.071340084075928,-0.01996358297765255,0.0119781494140625,0.00931633822619915
17757637008312,2.3487119674682617,-8.80348014831543,4.078522682189941,-0.02076212503015995,0.012510511092841625,0.008251613937318325
17757638245437,2.345120668411255,-8.753201484680176,4.107253074645996,-0.01650322787463665,0.0119781494140625,0.00931633822619915
17757639482550,2.3139960765838623,-8.809465408325195,4.0533833503723145,-0.0220930315554142,0.01117960549890995,0.01224433071911335
17757640719700,2.321178674697876,-8.789114952087402,4.085705280303955,-0.0204959437251091,0.01463996060192585,0.014906140975654125
17757641956837,2.369062662124634,-8.814253807067871,4.088099479675293,-0.0210283063352108,0.0119781494140625,0.0157046839594841
17757643193962,2.3475148677825928,-8.811859130859375,4.000710964202881,-0.02076212503015995,0.008783976547420025,0.0162370465695858
17757644431087,2.3558945655822754,-8.798691749572754,4.042609691619873,-0.0234239362180233,0.008517795242369175,0.0167694091796875
17757645668225,2.360682964324951,-8.796297073364258,4.037821292877197,-0.02129448764026165,0.008517795242369175,0.01463996060192585
17757646905375,2.369062662124634,-8.801085472106934,4.048594951629639,-0.0215606689453125,0.0066545275039970875,0.01171196810901165
17757648142500,2.3307554721832275,-8.768763542175293,4.05817174911499,-0.0173017717897892,0.0114457868039608,0.010381062515079975
17757649379625,2.365471363067627,-8.785523414611816,4.045003890991211,-0.0186326764523983,0.01117960549890995,0.01357523538172245
17757650616737,2.342726469039917,-8.775946617126465,4.018667697906494,-0.02422248013317585,0.0053236219100654125,0.01943122036755085
17757651853887,2.3355438709259033,-8.811859130859375,4.034229755401611,-0.0223592109978199,0.008251613937318325,0.015438503585755825
17757653091012,2.3355438709259033,-8.793903350830078,4.004302501678467,-0.0215606689453125,0.0066545275039970875,0.02022976242005825
17757654328125,2.343923568725586,-8.74960994720459,4.048594951629639,-0.02555338479578495,0.007453070487827063,0.0181003138422966
17757655565275,2.341529369354248,-8.827422142028809,4.034229755401611,-0.0210283063352108,0.008251613937318325,0.0181003138422966
17757656802400,2.3271641731262207,-8.787917137145996,4.092887878417969,-0.01703559048473835,0.004791259765625,0.01783413253724575
17757658039512,2.346317768096924,-8.767566680908203,4.055777549743652,-0.01463996060192585,0.0042588976211845875,0.02422248013317585
17757659276662,2.3702597618103027,-8.790311813354492,4.067748546600342,-0.01597086526453495,0.0037265352439135313,0.0247548408806324
17757660513787,2.369062662124634,-8.763975143432617,4.019864559173584,-0.0157046839594841,0.0007985432748682797,0.0215606689453125
17757661750925,2.3977930545806885,-8.786720275878906,4.084507942199707,-0.01597086526453495,0.0010647244052961469,0.0181003138422966
17757662988050,2.3989901542663574,-8.756793022155762,4.028244495391846,-0.01783413253724575,-0.0015970865497365594,0.0210283063352108
17757664225187,2.342726469039917,-8.77953815460205,3.973177671432495,-0.02129448764026165,-0.0015970865497365594,0.0196974016726017
17757665462337,2.385822057723999,-8.78312873840332,4.027047157287598,-0.0191650390625,-0.0007985432748682797,0.01996358297765255
17757666699450,2.33913516998291,-8.791508674621582,4.031835556030273,-0.01889885775744915,-0.004791259765625,0.01756795309484005
17757667936575,2.36188006401062,-8.78312873840332,4.060565948486328,-0.0204959437251091,-0.0031941730994731188,0.01783413253724575
17757669173712,2.365471363067627,-8.78193187713623,4.089296340942383,-0.01463996060192585,-0.0018632676219567657,0.01783413253724575
17757670410850,2.3786394596099854,-8.80587387084961,4.082113742828369,-0.015172322280704975,-0.00452507846057415,0.01889885775744915
17757671647975,2.3487119674682617,-8.813056945800781,4.036623954772949,-0.01650322787463665,-0.0007985432748682797,0.01943122036755085
17757672885112,2.3570916652679443,-8.787917137145996,4.02345609664917,-0.0181003138422966,-0.004791259765625,0.014906140975654125
17757674122237,2.3810336589813232,-8.793903350830078,4.02345609664917,-0.01889885775744915,-0.0063883461989462376,0.0119781494140625
17757675359375,2.345120668411255,-8.793903350830078,4.004302501678467,-0.02129448764026165,-0.006122165359556675,0.01783413253724575
17757676596512,2.3594858646392822,-8.775946617126465,4.018667697906494,-0.02076212503015995,-0.0063883461989462376,0.0173017717897892
17757677833650,2.3558945655822754,-8.791508674621582,4.037821292877197,-0.02315775491297245,0.0010647244052961469,0.01117960549890995
17757679070775,2.3127989768981934,-8.743624687194824,4.018667697906494,-0.0196974016726017,-0.005855984054505825,0.01650322787463665
17757680307900,2.3355438709259033,-8.731653213500977,4.034229755401611,-0.0167694091796875,-0.008251613937318325,0.01756795309484005
17757681545025,2.3523032665252686,-8.75080680847168,4.02465295791626,-0.0215606689453125,-0.007985432632267475,0.0162370465695858
17757682782162,2.343923568725586,-8.730456352233887,4.019864559173584,-0.0220930315554142,-0.01117960549890995,0.01463996060192585
17757684019300,2.3367409706115723,-8.724471092224121,4.028244495391846,-0.01783413253724575,-0.0029279920272529125,0.01357523538172245
17757685256437,2.3139960765838623,-8.71489429473877,3.9911341667175293,-0.014373779296875,-0.0015970865497365594,0.01650322787463665
17757686493550,2.2852654457092285,-8.706514358520508,3.9911341667175293,-0.0157046839594841,-0.008251613937318325,0.01171196810901165
17757687730675,2.2876596450805664,-8.701725959777832,3.9624037742614746,-0.01756795309484005,-0.007453070487827063,0.0138414166867733
17757688967812,2.319981575012207,-8.702922821044922,3.9815573692321777,-0.0181003138422966,-0.0090501569211483,0.013042873702943325
17757690204962,2.318784475326538,-8.71369743347168,3.974374771118164,-0.01889885775744915,-0.008783976547420025,0.0138414166867733
17757691442087,2.3331496715545654,-8.71728801727295,3.9815573692321777,-0.013042873702943325,-0.007453070487827063,0.0157046839594841
17757692679225,2.3163902759552,-8.736441612243652,3.971980571746826,-0.0071868896484375,-0.01357523538172245,0.0157046839594841
17757693916350,2.3475148677825928,-8.761581420898438,3.9707834720611572,-0.00958251953125,-0.0138414166867733,0.0173017717897892
17757695153500,2.3546974658966064,-8.75080680847168,3.9659950733184814,-0.0119781494140625,-0.01357523538172245,0.015172322280704975
17757696390612,2.2816741466522217,-8.760384559631348,3.980360269546509,-0.008251613937318325,-0.01357523538172245,0.01597086526453495
17757697627750,2.319981575012207,-8.786720275878906,4.015076160430908,-0.0077192517928779125,-0.00958251953125,0.015438503585755825
17757698864875,2.3068132400512695,-8.784326553344727,3.9707834720611572,-0.0077192517928779125,-0.01171196810901165,0.01703559048473835
17757700102012,2.275688648223877,-8.811859130859375,3.997119665145874,-0.0071868896484375,-0.0157046839594841,0.015438503585755825
17757701339137,2.297236442565918,-8.792705535888672,3.9707834720611572,-0.005855984054505825,-0.013042873702943325,0.01836649514734745
17757702576275,2.299630641937256,-8.787917137145996,3.9384617805480957,-0.00931633822619915,-0.0090501569211483,0.02022976242005825
17757703813412,2.2697031497955322,-8.78193187713623,4.005499362945557,-0.006122165359556675,-0.013309055007994175,0.0210283063352108
17757705050550,2.2685060501098633,-8.787917137145996,4.025850296020508,-0.0042588976211845875,-0.013309055007994175,0.0244886614382267
17757706287662,2.3032219409942627,-8.74721622467041,4.004302501678467,-0.0063883461989462376,-0.0119781494140625,0.01996358297765255
17757707524775,2.3151931762695312,-8.790311813354492,4.009090900421143,-0.0042588976211845875,-0.0162370465695858,0.0204959437251091
17757708761925,2.300827741622925,-8.790311813354492,3.973177671432495,0.0002661811013240367,-0.02262539230287075,0.02794901467859745
17757709999062,2.3044190406799316,-8.755595207214355,4.001908302307129,-0.0031941730994731188,-0.0162370465695858,0.0268842913210392
17757711236175,2.2840683460235596,-8.765172958374023,3.9899370670318604,0.0,-0.01410759799182415,0.02262539230287075
17757712473300,2.273294448852539,-8.755595207214355,3.971980571746826,-0.0007985432748682797,-0.01836649514734745,0.0244886614382267
17757713710437,2.3511061668395996,-8.738836288452148,3.9851486682891846,0.0013309054775163531,-0.0247548408806324,0.02608574740588665
17757714947562,2.318784475326538,-8.7484130859375,3.9827544689178467,0.0007985432748682797,-0.02369011752307415,0.0295461006462574
17757716184712,2.278082847595215,-8.768763542175293,3.9875428676605225,0.0005323622026480734,-0.01889885775744915,0.0282151959836483
17757717421850,2.299630641937256,-8.762778282165527,3.9707834720611572,0.00452507846057415,-0.02182685025036335,0.02848137728869915
17757718658975,2.3092074394226074,-8.728062629699707,3.9923312664031982,0.0005323622026480734,-0.02369011752307415,0.0215606689453125
17757719896112,2.278082847595215,-8.734047889709473,3.9647979736328125,0.0023956298828125,-0.02262539230287075,0.0210283063352108
17757721133250,2.234987258911133,-8.787917137145996,3.995922565460205,0.005855984054505825,-0.01836649514734745,0.0263519287109375
17757722370362,2.250549554824829,-8.777143478393555,3.9815573692321777,0.0013309054775163531,-0.0181003138422966,0.0252872034907341
17757723607487,2.256535053253174,-8.74721622467041,3.9169139862060547,0.0015970865497365594,-0.02076212503015995,0.02502102218568325
17757724844625,2.255337953567505,-8.790311813354492,3.9636008739471436,0.007985432632267475,-0.02555338479578495,0.02502102218568325
17757726081775,2.251746654510498,-8.831012725830078,3.9671921730041504,0.005855984054505825,-0.0271504707634449,0.0234239362180233
17757727318887,2.2637176513671875,-8.83819580078125,3.9827544689178467,0.005855984054505825,-0.02608574740588665,0.02022976242005825
17757728556012,2.234987258911133,-8.811859130859375,3.9600095748901367,0.00692070834338665,-0.02555338479578495,0.01756795309484005
17757729793162,2.191891670227051,-8.828619003295898,3.95641827583313,0.005057440605014563,-0.02794901467859745,0.01996358297765255
17757731030275,2.2170307636260986,-8.797493934631348,3.9372646808624268,0.006122165359556675,-0.02794901467859745,0.02608574740588665
17757732267425,2.188300371170044,-8.828619003295898,3.951629877090454,0.003460354171693325,-0.0247548408806324,0.01756795309484005
17757733504550,2.2361843585968018,-8.78312873840332,3.977966070175171,0.0021294488105922937,-0.02422248013317585,0.0173017717897892
17757734741712,2.230198860168457,-8.787917137145996,3.9252936840057373,0.0037265352439135313,-0.023956298828125,0.01117960549890995
17757735978825,2.2038626670837402,-8.823830604553223,3.977966070175171,-0.0023956298828125,-0.0247548408806324,0.010647243820130825
17757737215962,2.256535053253174,-8.810662269592285,4.009090900421143,-0.0010647244052961469,-0.0215606689453125,0.0181003138422966
17757738453075,2.231395959854126,-8.78073501586914,3.9636008739471436,0.0042588976211845875,-0.0210283063352108,0.012510511092841625
17757739690225,2.2373814582824707,-8.778340339660645,3.977966070175171,0.0063883461989462376,-0.0210283063352108,0.007985432632267475
17757740927337,2.255337953567505,-8.797493934631348,3.995922565460205,0.008517795242369175,-0.0215606689453125,0.010381062515079975
17757742164487,2.2469582557678223,-8.7699613571167,3.973177671432495,0.0042588976211845875,-0.01836649514734745,0.01650322787463665
17757743401625,2.2601263523101807,-8.78073501586914,3.9636008739471436,0.0031941730994731188,-0.02022976242005825,0.008517795242369175
17757744638737,2.2445640563964844,-8.757989883422852,3.994725465774536,0.0029279920272529125,-0.01836649514734745,0.0063883461989462376
17757745875887,2.205059766769409,-8.742427825927734,3.998316764831543,0.005589802749454975,-0.0220930315554142,0.01117960549890995
17757747113000,2.22660756111145,-8.737639427185059,3.9624037742614746,0.004791259765625,-0.02129448764026165,0.006122165359556675
17757748350137,2.274491548538208,-8.731653213500977,4.018667697906494,0.0013309054775163531,-0.01996358297765255,0.006122165359556675
17757749587262,2.2385785579681396,-8.752004623413086,3.975571870803833,0.0063883461989462376,-0.01943122036755085,0.008251613937318325
17757750824387,2.251746654510498,-8.7268648147583,3.980360269546509,0.010114881210029125,-0.0181003138422966,0.0029279920272529125
17757752061525,2.2002713680267334,-8.744821548461914,3.954024076461792,0.01117960549890995,-0.02182685025036335,0.00452507846057415
17757753298662,2.2038626670837402,-8.7268648147583,3.973177671432495,0.00931633822619915,-0.0228915736079216,0.008517795242369175
17757754535800,2.2373814582824707,-8.711302757263184,3.975571870803833,0.007985432632267475,-0.02182685025036335,0.0071868896484375
17757755772912,2.2577321529388428,-8.718485832214355,3.9695863723754883,0.0114457868039608,-0.02129448764026165,0.005855984054505825
17757757010050,2.251746654510498,-8.705317497253418,3.9468414783477783,0.01117960549890995,-0.0196974016726017,0.0071868896484375
17757758247175,2.213439464569092,-8.753201484680176,3.980360269546509,0.010913425125181675,-0.0210283063352108,0.005855984054505825
17757759484312,2.2397756576538086,-8.737639427185059,3.976768970489502,0.014906140975654125,-0.02262539230287075,0.0015970865497365594
17757760721450,2.2194249629974365,-8.741230010986328,3.934870481491089,0.0119781494140625,-0.0247548408806324,0.00958251953125
17757761958600,2.2625205516815186,-8.755595207214355,3.995922565460205,0.012776692397892475,-0.0204959437251091,0.0010647244052961469
17757763195712,2.233790159225464,-8.699332237243652,3.9827544689178467,0.0138414166867733,-0.01996358297765255,0.0
17757764432850,2.2433669567108154,-8.71609115600586,3.9444472789764404,0.0204959437251091,-0.0220930315554142,0.0039927163161337376
17757765669975,2.2218191623687744,-8.765172958374023,3.9456443786621094,0.0167694091796875,-0.0247548408806324,0.0042588976211845875
17757766907112,2.211045265197754,-8.771158218383789,3.934870481491089,0.01783413253724575,-0.0263519287109375,0.0010647244052961469
17757768144250,2.205059766769409,-8.711302757263184,3.9707834720611572,0.01650322787463665,-0.01943122036755085,-0.0010647244052961469
17757769381375,2.255337953567505,-8.755595207214355,3.954024076461792,0.0186326764523983,-0.02262539230287075,0.003460354171693325
17757770618500,2.1954829692840576,-8.724471092224121,4.019864559173584,0.01996358297765255,-0.02129448764026165,0.0002661811013240367
17757771855625,2.2182278633117676,-8.696937561035156,3.9671921730041504,0.01996358297765255,-0.0186326764523983,-0.0015970865497365594
17757773092762,2.2242133617401123,-8.71489429473877,3.97916316986084,0.0220930315554142,-0.0210283063352108,-0.0002661811013240367
17757774329912,2.227804660797119,-8.688557624816895,3.974374771118164,0.0220930315554142,-0.0223592109978199,0.0002661811013240367
17757775567037,2.2397756576538086,-8.719682693481445,3.9815573692321777,0.0228915736079216,-0.0204959437251091,0.0021294488105922937
17757776804162,2.22660756111145,-8.696937561035156,3.9264907836914062,0.0220930315554142,-0.01889885775744915,0.0042588976211845875
17757778041287,2.2445640563964844,-8.700529098510742,3.93367338180542,0.02661811001598835,-0.02129448764026165,0.0037265352439135313
17757779278425,2.234987258911133,-8.718485832214355,3.9612066745758057,0.02981228195130825,-0.0204959437251091,0.0015970865497365594
17757780515562,2.233790159225464,-8.704120635986328,3.9911341667175293,0.0223592109978199,-0.02129448764026165,0.0029279920272529125
17757781752687,2.231395959854126,-8.724471092224121,4.001908302307129,0.0215606689453125,-0.02182685025036335,-0.0010647244052961469
17757782989825,2.2254104614257812,-8.731653213500977,3.977966070175171,0.0268842913210392,-0.0223592109978199,0.0039927163161337376
17757784226950,2.248155355453491,-8.738836288452148,3.9420530796051025,0.0292799212038517,-0.01756795309484005,0.0026618109550327063
17757785464087,2.2146365642547607,-8.757989883422852,3.9600095748901367,0.02981228195130825,-0.0119781494140625,0.0023956298828125
17757786701200,2.22660756111145,-8.71489429473877,3.9624037742614746,0.03087700717151165,-0.0220930315554142,0.00452507846057415
17757787938337,2.252943754196167,-8.736441612243652,4.000710964202881,0.033272635191679,-0.02369011752307415,0.00452507846057415
17757789175487,2.24935245513916,-8.756793022155762,3.971980571746826,0.0314093679189682,-0.02661811001598835,0.0015970865497365594
17757790412612,2.251746654510498,-8.730456352233887,3.9695863723754883,0.02422248013317585,-0.0181003138422966,0.0005323622026480734
17757791649737,2.208651065826416,-8.761581420898438,3.995922565460205,0.02502102218568325,-0.0186326764523983,0.0018632676219567657
17757792886887,2.2361843585968018,-8.768763542175293,4.067748546600342,0.02794901467859745,-0.02369011752307415,0.005589802749454975
17757794124000,2.2385785579681396,-8.753201484680176,4.06894588470459,0.0282151959836483,-0.01836649514734745,0.004791259765625
17757795361150,2.211045265197754,-8.77953815460205,4.010287761688232,0.0319417305290699,-0.0220930315554142,0.0010647244052961469
17757796598275,2.2361843585968018,-8.791508674621582,4.041412353515625,0.0306108258664608,-0.0181003138422966,0.0002661811013240367
17757797835412,2.1978771686553955,-8.767566680908203,4.062960147857666,0.0362006276845932,-0.0204959437251091,0.008517795242369175
17757799072550,2.2026655673980713,-8.773551940917969,4.045003890991211,0.0346035435795784,-0.0204959437251091,0.0063883461989462376
17757800309675,2.190694570541382,-8.784326553344727,4.02345609664917,0.0319417305290699,-0.0223592109978199,0.0018632676219567657
17757801546812,2.206256866455078,-8.845377922058105,4.019864559173584,0.0306108258664608,-0.0186326764523983,0.0007985432748682797
17757802783937,2.2242133617401123,-8.84058952331543,4.039018154144287,0.02901373989880085,-0.013042873702943325,0.0023956298828125
17757804021062,2.2170307636260986,-8.833407402038574,4.043806552886963,0.0292799212038517,-0.0167694091796875,0.00452507846057415
17757805258187,2.2373814582824707,-8.825027465820312,4.064157485961914,0.0271504707634449,-0.01943122036755085,0.0023956298828125
17757806495312,2.233790159225464,-8.850166320800781,4.003105163574219,0.0306108258664608,-0.0173017717897892,-0.0007985432748682797
17757807732462,2.184709072113037,-8.858546257019043,4.047398090362549,0.0300784632563591,-0.01650322787463665,0.0037265352439135313
17757808969587,2.229001760482788,-8.834604263305664,4.034229755401611,0.0292799212038517,-0.01357523538172245,0.005057440605014563
17757810206712,2.191891670227051,-8.858546257019043,4.060565948486328,0.02794901467859745,-0.01463996060192585,0.0023956298828125
17757811443850,2.2397756576538086,-8.851364135742188,4.072536945343018,0.0268842913210392,-0.01357523538172245,0.0013309054775163531
17757812680975,2.2433669567108154,-8.877699851989746,4.055777549743652,0.0292799212038517,-0.004791259765625,0.0037265352439135313
17757813918112,2.229001760482788,-8.862137794494629,4.010287761688232,0.02661811001598835,-0.008783976547420025,0.003460354171693325
17757815155250,2.2254104614257812,-8.851364135742188,4.041412353515625,0.0244886614382267,-0.010913425125181675,0.0007985432748682797
17757816392387,2.274491548538208,-8.899248123168945,4.088099479675293,0.02502102218568325,-0.01597086526453495,0.0005323622026480734
17757817629512,2.2218191623687744,-8.87171459197998,4.060565948486328,0.02874755859375,-0.015438503585755825,0.0031941730994731188
17757818866625,2.2409727573394775,-8.866926193237305,4.092887878417969,0.023956298828125,-0.0138414166867733,0.0013309054775163531
17757820103775,2.2158336639404297,-8.92917537689209,4.086902141571045,0.0244886614382267,-0.0119781494140625,0.0031941730994731188
17757821340900,2.2002713680267334,-8.884882926940918,4.060565948486328,0.03034464456140995,-0.010647243820130825,0.005589802749454975
17757822578025,2.2409727573394775,-8.886079788208008,4.079719543457031,0.0228915736079216,-0.0138414166867733,-0.0010647244052961469
17757823815150,2.2373814582824707,-8.904036521911621,4.091690540313721,0.02182685025036335,-0.012776692397892475,-0.005057440605014563
17757825052287,2.2373814582824707,-8.865729331970215,4.085705280303955,0.0276828333735466,-0.008251613937318325,0.0015970865497365594
17757826289437,2.2397756576538086,-8.878896713256836,4.0976762771606445,0.02369011752307415,-0.0021294488105922937,0.0018632676219567657
17757827526562,2.278082847595215,-8.851364135742188,4.084507942199707,0.01996358297765255,-0.004791259765625,-0.0021294488105922937
17757828763700,2.255337953567505,-8.9064302444458,4.082113742828369,0.0204959437251091,-0.0053236219100654125,0.0
17757830000825,2.2182278633117676,-8.898050308227539,4.017470359802246,0.02315775491297245,-0.00692070834338665,-0.0013309054775163531
17757831237975,2.2361843585968018,-8.865729331970215,4.088099479675293,0.01756795309484005,-0.0077192517928779125,-0.0026618109550327063
17757832475087,2.275688648223877,-8.882488250732422,4.047398090362549,0.01703559048473835,-0.0031941730994731188,-0.0053236219100654125
17757833712225,2.2840683460235596,-8.886079788208008,4.0569748878479,0.014373779296875,-0.0013309054775163531,0.0007985432748682797
17757834949362,2.2385785579681396,-8.905233383178711,4.0964789390563965,0.0114457868039608,-0.005855984054505825,0.0015970865497365594
17757836186475,2.2206220626831055,-8.893261909484863,4.072536945343018,0.013309055007994175,-0.0031941730994731188,0.0042588976211845875
17757837423612,2.2242133617401123,-8.877699851989746,4.090493679046631,0.0196974016726017,-0.0002661811013240367,0.0023956298828125
17757838660750,2.2194249629974365,-8.905233383178711,4.124012470245361,0.013309055007994175,-0.0029279920272529125,0.0029279920272529125
17757839897875,2.2433669567108154,-8.901641845703125,4.067748546600342,0.0114457868039608,-0.0002661811013240367,0.0042588976211845875
17757841135012,2.2816741466522217,-8.912415504455566,4.085705280303955,0.01224433071911335,0.0010647244052961469,0.004791259765625
17757842372137,2.2457611560821533,-8.912415504455566,4.086902141571045,0.012776692397892475,0.0026618109550327063,0.0018632676219567657
17757843609287,2.2445640563964844,-8.92917537689209,4.1180267333984375,0.0162370465695858,-0.006122165359556675,-0.0007985432748682797
17757844846412,2.2194249629974365,-8.87171459197998,4.107253074645996,0.015172322280704975,-0.0002661811013240367,-0.0018632676219567657
17757846083550,2.2457611560821533,-8.890868186950684,4.133589267730713,0.0119781494140625,0.003460354171693325,0.0015970865497365594
17757847320675,2.2637176513671875,-8.853757858276367,4.104858875274658,0.01171196810901165,0.0031941730994731188,0.00452507846057415
17757848557800,2.2397756576538086,-8.900444984436035,4.086902141571045,0.007985432632267475,-0.0021294488105922937,0.0015970865497365594
17757849794950,2.2170307636260986,-8.899248123168945,4.0976762771606445,0.010647243820130825,-0.0042588976211845875,0.0
17757851032087,2.2469582557678223,-8.875306129455566,4.094084739685059,0.007985432632267475,0.005057440605014563,0.0026618109550327063
17757852269200,2.211045265197754,-8.860940933227539,4.132391929626465,0.00984870083630085,0.007453070487827063,0.0023956298828125
17757853506350,2.2661118507385254,-8.887276649475098,4.138377666473389,0.010913425125181675,0.004791259765625,0.0063883461989462376
17757854743462,2.2445640563964844,-8.901641845703125,4.0964789390563965,0.00984870083630085,-0.0013309054775163531,0.005589802749454975
17757855980600,2.2421698570251465,-8.893261909484863,4.129997730255127,0.013042873702943325,0.004791259765625,0.007453070487827063
17757857217737,2.2242133617401123,-8.886079788208008,4.1180267333984375,0.0119781494140625,0.0053236219100654125,0.00692070834338665
17757858454862,2.2828712463378906,-8.862137794494629,4.07014274597168,0.00958251953125,0.0063883461989462376,0.003460354171693325
17757859691987,2.250549554824829,-8.888473510742188,4.11443567276001,0.00958251953125,0.007453070487827063,0.006122165359556675
17757860929112,2.229001760482788,-8.898050308227539,4.1156325340271,0.0013309054775163531,0.0053236219100654125,-0.0007985432748682797
17757862166275,2.2421698570251465,-8.901641845703125,4.082113742828369,-0.0010647244052961469,0.005589802749454975,0.0021294488105922937
17757863403400,2.270900249481201,-8.923190116882324,4.14675760269165,0.0031941730994731188,0.0053236219100654125,0.0042588976211845875
17757864640525,2.279279947280884,-8.904036521911621,4.073734283447266,0.0007985432748682797,0.0071868896484375,0.0039927163161337376
17757865877662,2.279279947280884,-8.87171459197998,4.109647274017334,0.005855984054505825,0.008783976547420025,0.0090501569211483
17757867114775,2.227804660797119,-8.900444984436035,4.127603530883789,0.0015970865497365594,0.010114881210029125,0.0031941730994731188
17757868351912,2.248155355453491,-8.918401718139648,4.05817174911499,0.0018632676219567657,0.005855984054505825,0.005589802749454975
17757869589062,2.298433542251587,-8.846575736999512,4.116829872131348,0.0005323622026480734,0.008517795242369175,0.008251613937318325
17757870826187,2.248155355453491,-8.888473510742188,4.100070476531982,-0.0021294488105922937,0.01117960549890995,0.00452507846057415
17757872063312,2.3044190406799316,-8.89685344696045,4.095282077789307,-0.0026618109550327063,0.0119781494140625,0.007453070487827063
17757873300462,2.2661118507385254,-8.908824920654297,4.085705280303955,-0.0007985432748682797,0.012776692397892475,0.0077192517928779125
17757874537575,2.2828712463378906,-8.892065048217773,4.101267337799072,0.0002661811013240367,0.010114881210029125,0.005855984054505825
17757875774712,2.2900538444519043,-8.876502990722656,4.062960147857666,0.0013309054775163531,0.014373779296875,0.008251613937318325
17757877011850,2.2876596450805664,-8.908824920654297,4.1180267333984375,0.0,0.0114457868039608,0.0063883461989462376
17757878248987,2.2888567447662354,-8.882488250732422,4.1192240715026855,-0.003460354171693325,0.010913425125181675,0.00958251953125
17757879486100,2.2828712463378906,-8.868123054504395,4.100070476531982,-0.0005323622026480734,0.00931633822619915,0.0023956298828125
17757880723225,2.3020248413085938,-8.862137794494629,4.094084739685059,-0.0023956298828125,0.013042873702943325,0.0063883461989462376
17757881960375,2.274491548538208,-8.815450668334961,4.1180267333984375,-0.004791259765625,0.012776692397892475,0.007985432632267475
17757883197512,2.293645143508911,-8.869319915771484,4.113238334655762,-0.0021294488105922937,0.0186326764523983,0.008251613937318325
17757884434625,2.29484224319458,-8.841787338256836,4.092887878417969,0.0026618109550327063,0.014373779296875,0.0090501569211483
17757885671762,2.3044190406799316,-8.844181060791016,4.10246467590332,-0.0026618109550327063,0.013309055007994175,0.00984870083630085
17757886908900,2.2673089504241943,-8.834604263305664,4.128800868988037,-0.00692070834338665,0.01463996060192585,0.0119781494140625
17757888146025,2.2852654457092285,-8.833407402038574,4.0964789390563965,-0.005589802749454975,0.013042873702943325,0.0071868896484375
17757889383137,2.293645143508911,-8.883685111999512,4.112041473388672,-0.0026618109550327063,0.010913425125181675,0.008517795242369175
17757890620312,2.2589292526245117,-8.847772598266602,4.141969203948975,-0.004791259765625,0.012776692397892475,0.010647243820130825
17757891857437,2.292448043823242,-8.888473510742188,4.095282077789307,-0.0021294488105922937,0.0114457868039608,0.010114881210029125
17757893094562,2.3116018772125244,-8.87410831451416,4.132391929626465,-0.0002661811013240367,0.007453070487827063,0.008251613937318325
17757894331712,2.3151931762695312,-8.845377922058105,4.078522682189941,-0.005855984054505825,0.00931633822619915,0.0042588976211845875
17757895568837,2.3139960765838623,-8.854954719543457,4.079719543457031,-0.0037265352439135313,0.0090501569211483,0.00452507846057415
17757896805950,2.3307554721832275,-8.834604263305664,4.085705280303955,-0.0021294488105922937,0.014906140975654125,0.008783976547420025
17757898043087,2.3104045391082764,-8.863334655761719,4.084507942199707,-0.0031941730994731188,0.0138414166867733,0.01756795309484005
17757899280225,2.292448043823242,-8.823830604553223,4.100070476531982,-0.0063883461989462376,0.010381062515079975,0.0063883461989462376
17757900517350,2.278082847595215,-8.832210540771484,4.113238334655762,-0.0053236219100654125,0.00984870083630085,0.0063883461989462376
17757901754487,2.2876596450805664,-8.845377922058105,4.116829872131348,-0.00984870083630085,0.007985432632267475,0.008783976547420025
17757902991600,2.293645143508911,-8.868123054504395,4.101267337799072,-0.005057440605014563,0.00931633822619915,0.00692070834338665
17757904228762,2.254140853881836,-8.83939266204834,4.085705280303955,-0.0077192517928779125,0.0039927163161337376,0.00984870083630085
17757905465862,2.3104045391082764,-8.835801124572754,4.060565948486328,-0.00692070834338665,0.00984870083630085,0.008251613937318325
17757906703000,2.3056161403656006,-8.866926193237305,4.078522682189941,-0.0066545275039970875,0.00931633822619915,0.0037265352439135313
17757907940150,2.274491548538208,-8.862137794494629,4.127603530883789,-0.005589802749454975,0.005589802749454975,0.00692070834338665
17757909177287,2.3355438709259033,-8.878896713256836,4.125209331512451,-0.0071868896484375,0.0015970865497365594,0.0162370465695858
17757910414412,2.317587375640869,-8.884882926940918,4.085705280303955,-0.010381062515079975,0.008251613937318325,0.0077192517928779125
17757911651550,2.318784475326538,-8.865729331970215,4.108449935913086,-0.00931633822619915,0.0071868896484375,0.005855984054505825
17757912888675,2.27209734916687,-8.83699893951416,4.084507942199707,-0.01117960549890995,0.0066545275039970875,0.004791259765625
17757914125812,2.276885747909546,-8.864531517028809,4.080916881561279,-0.01463996060192585,0.008251613937318325,0.0013309054775163531
17757915362925,2.300827741622925,-8.868123054504395,4.059369087219238,-0.01171196810901165,0.010913425125181675,0.007985432632267475
17757916600075,2.2876596450805664,-8.905233383178711,4.095282077789307,-0.01357523538172245,0.0162370465695858,0.0053236219100654125
17757917837212,2.3127989768981934,-8.854954719543457,4.048594951629639,-0.01171196810901165,0.008251613937318325,0.010647243820130825
17757919074337,2.318784475326538,-8.83699893951416,4.0976762771606445,-0.010647243820130825,0.004791259765625,0.0063883461989462376
17757920311475,2.275688648223877,-8.862137794494629,4.095282077789307,-0.01171196810901165,0.007453070487827063,0.0039927163161337376
17757921548600,2.2900538444519043,-8.87410831451416,4.125209331512451,-0.0119781494140625,0.0021294488105922937,0.0053236219100654125
17757922785737,2.293645143508911,-8.83819580078125,4.067748546600342,-0.014906140975654125,0.006122165359556675,0.0053236219100654125
17757924022875,2.3068132400512695,-8.832210540771484,4.07014274597168,-0.01410759799182415,0.007985432632267475,0.004791259765625
17757925260000,2.3319525718688965,-8.831012725830078,4.065354347229004,-0.01783413253724575,0.0090501569211483,0.00692070834338665
17757926497125,2.322375774383545,-8.813056945800781,4.022258758544922,-0.01463996060192585,0.0090501569211483,0.0053236219100654125
17757927734275,2.2888567447662354,-8.825027465820312,4.077325344085693,-0.012510511092841625,0.0071868896484375,0.0053236219100654125
17757928971375,2.2697031497955322,-8.834604263305664,4.036623954772949,-0.01357523538172245,0.004791259765625,0.008251613937318325
17757930208537,2.3355438709259033,-8.814253807067871,4.05817174911499,-0.013309055007994175,0.0026618109550327063,0.00984870083630085
17757931445650,2.319981575012207,-8.785523414611816,4.0761284828186035,-0.01171196810901165,0.0026618109550327063,0.008783976547420025
17757932682787,2.292448043823242,-8.8070707321167,4.0976762771606445,-0.014373779296875,0.0042588976211845875,0.0039927163161337376
17757933919912,2.3104045391082764,-8.80587387084961,4.084507942199707,-0.015438503585755825,0.0021294488105922937,0.00452507846057415
17757935157062,2.3163902759552,-8.808268547058105,4.0976762771606445,-0.014906140975654125,0.0018632676219567657,0.0066545275039970875
17757936394187,2.2912509441375732,-8.83819580078125,4.048594951629639,-0.01756795309484005,0.0021294488105922937,0.005855984054505825
17757937631325,2.3151931762695312,-8.821435928344727,4.079719543457031,-0.0119781494140625,0.0029279920272529125,0.008251613937318325
17757938868450,2.3295583724975586,-8.791508674621582,4.106055736541748,-0.01410759799182415,0.0015970865497365594,0.010114881210029125
17757940105587,2.318784475326538,-8.832210540771484,4.071340084075928,-0.01889885775744915,0.0026618109550327063,0.00958251953125
17757941342712,2.2864625453948975,-8.81664752960205,4.050989151000977,-0.0167694091796875,0.0031941730994731188,0.008783976547420025
17757942579862,2.3032219409942627,-8.778340339660645,4.009090900421143,-0.014373779296875,0.00692070834338665,0.007453070487827063
17757943816975,2.319981575012207,-8.777143478393555,4.077325344085693,-0.013309055007994175,0.0039927163161337376,0.007453070487827063
17757945054137,2.3307554721832275,-8.813056945800781,4.042609691619873,-0.0162370465695858,0.0039927163161337376,0.00984870083630085
17757946291250,2.3151931762695312,-8.813056945800781,4.064157485961914,-0.0138414166867733,0.0023956298828125,0.005855984054505825
17757947528387,2.3127989768981934,-8.829815864562988,4.027047157287598,-0.008251613937318325,-0.0005323622026480734,0.007985432632267475
17757948765512,2.3295583724975586,-8.802282333374023,4.073734283447266,-0.015172322280704975,0.0005323622026480734,0.010114881210029125
17757950002675,2.2888567447662354,-8.810662269592285,4.059369087219238,-0.0167694091796875,0.005589802749454975,0.00692070834338665
17757951239775,2.299630641937256,-8.80467700958252,4.025850296020508,-0.01650322787463665,0.0026618109550327063,0.006122165359556675
17757952476925,2.3032219409942627,-8.8070707321167,4.028244495391846,-0.0173017717897892,0.0021294488105922937,0.00984870083630085
17757953714050,2.3355438709259033,-8.822633743286133,4.060565948486328,-0.0191650390625,0.0002661811013240367,0.010381062515079975
17757954951200,2.3104045391082764,-8.822633743286133,4.064157485961914,-0.0181003138422966,0.0,0.00984870083630085
17757956188300,2.323572874069214,-8.797493934631348,4.048594951629639,-0.01463996060192585,0.006122165359556675,0.008783976547420025
17757957425450,2.254140853881836,-8.789114952087402,4.017470359802246,-0.01224433071911335,0.0,0.0063883461989462376
17757958662600,2.2589292526245117,-8.844181060791016,4.0533833503723145,-0.02129448764026165,0.0002661811013240367,0.005855984054505825
17757959899712,2.3307554721832275,-8.797493934631348,4.080916881561279,-0.0210283063352108,0.0002661811013240367,0.008783976547420025
17757961136837,2.297236442565918,-8.80348014831543,4.064157485961914,-0.0186326764523983,0.0010647244052961469,0.007453070487827063
17757962373975,2.2649147510528564,-8.826224327087402,3.9887399673461914,-0.01783413253724575,0.0037265352439135313,0.0157046839594841
17757963611112,2.2816741466522217,-8.754398345947266,3.980360269546509,-0.01650322787463665,0.005855984054505825,0.014906140975654125
17757964848237,2.2864625453948975,-8.795100212097168,4.039018154144287,-0.0138414166867733,0.0,0.0162370465695858
17757966085387,2.2828712463378906,-8.808268547058105,4.034229755401611,-0.01889885775744915,0.0005323622026480734,0.0167694091796875
17757967322512,2.3032219409942627,-8.801085472106934,4.02345609664917,-0.01889885775744915,0.0013309054775163531,0.01410759799182415
17757968559637,2.319981575012207,-8.802282333374023,4.094084739685059,-0.0138414166867733,0.0,0.013309055007994175
17757969796787,2.296039342880249,-8.7699613571167,4.067748546600342,-0.012510511092841625,-0.0018632676219567657,0.008783976547420025
17757971033912,2.2876596450805664,-8.819042205810547,4.009090900421143,-0.015172322280704975,-0.0039927163161337376,0.007985432632267475
17757972271037,2.317587375640869,-8.790311813354492,4.030638694763184,-0.02182685025036335,-0.0021294488105922937,0.008517795242369175
17757973508150,2.2900538444519043,-8.772355079650879,4.010287761688232,-0.0162370465695858,-0.004791259765625,0.010114881210029125
17757974745312,2.3092074394226074,-8.767566680908203,4.039018154144287,-0.0162370465695858,0.0005323622026480734,0.00984870083630085
17757975982437,2.296039342880249,-8.799888610839844,4.0330328941345215,-0.01889885775744915,-0.0026618109550327063,0.00931633822619915
17757977219562,2.256535053253174,-8.731653213500977,4.037821292877197,-0.01410759799182415,-0.0029279920272529125,0.01224433071911335
17757978456700,2.2816741466522217,-8.77953815460205,4.047398090362549,-0.01410759799182415,-0.0021294488105922937,0.013042873702943325
17757979693837,2.292448043823242,-8.756793022155762,4.034229755401611,-0.01783413253724575,-0.0077192517928779125,0.007985432632267475
17757980930962,2.299630641937256,-8.777143478393555,4.022258758544922,-0.0173017717897892,-0.0053236219100654125,0.0071868896484375
17757982168112,2.3020248413085938,-8.7699613571167,4.031835556030273,-0.012776692397892475,0.0015970865497365594,0.008783976547420025
17757983405225,2.292448043823242,-8.75080680847168,4.042609691619873,-0.0138414166867733,-0.0018632676219567657,0.014906140975654125
17757984642375,2.2864625453948975,-8.786720275878906,4.0078935623168945,-0.0173017717897892,-0.0037265352439135313,0.00958251953125
17757985879475,2.300827741622925,-8.775946617126465,4.0114850997924805,-0.0234239362180233,-0.0029279920272529125,0.010114881210029125
17757987116625,2.3127989768981934,-8.778340339660645,4.035427093505859,-0.01650322787463665,-0.006122165359556675,0.007985432632267475
17757988353762,2.279279947280884,-8.786720275878906,3.9899370670318604,-0.0173017717897892,-0.0015970865497365594,0.00984870083630085
17757989590900,2.3092074394226074,-8.761581420898438,3.980360269546509,-0.01756795309484005,0.0010647244052961469,0.010647243820130825
17757990828025,2.3056161403656006,-8.760384559631348,4.052186489105225,-0.01703559048473835,-0.0026618109550327063,0.0039927163161337376
17757992065150,2.3331496715545654,-8.74960994720459,4.05817174911499,-0.015438503585755825,-0.003460354171693325,0.005855984054505825
17757993302300,2.2852654457092285,-8.760384559631348,4.027047157287598,-0.012510511092841625,-0.004791259765625,0.00958251953125
17757994539437,2.2864625453948975,-8.773551940917969,4.013879299163818,-0.0181003138422966,-0.0053236219100654125,0.00984870083630085
17757995776562,2.299630641937256,-8.757989883422852,4.010287761688232,-0.013309055007994175,-0.0029279920272529125,0.01171196810901165
17757997013687,2.293645143508911,-8.752004623413086,4.043806552886963,-0.01357523538172245,0.0002661811013240367,0.0071868896484375
17757998250837,2.278082847595215,-8.744821548461914,3.995922565460205,-0.0138414166867733,-0.0021294488105922937,0.010114881210029125
17757999487950,2.3032219409942627,-8.756793022155762,3.97916316986084,-0.00931633822619915,-0.003460354171693325,0.012510511092841625
17758000725087,2.2601263523101807,-8.725667953491211,4.039018154144287,-0.00692070834338665,-0.0026618109550327063,0.00984870083630085
17758001962237,2.278082847595215,-8.753201484680176,4.013879299163818,-0.012776692397892475,-0.0010647244052961469,0.00931633822619915
17758003199350,2.2876596450805664,-8.722076416015625,4.047398090362549,-0.013042873702943325,-0.0018632676219567657,0.012776692397892475
17758004436487,2.2230162620544434,-8.71369743347168,4.021061897277832,-0.01224433071911335,-0.005057440605014563,0.008251613937318325
17758005673600,2.274491548538208,-8.728062629699707,4.0294413566589355,-0.0077192517928779125,-0.0021294488105922937,0.010381062515079975
17758006910725,2.293645143508911,-8.69095230102539,3.954024076461792,-0.006122165359556675,-0.0005323622026480734,0.008517795242369175
17758008147900,2.270900249481201,-8.71728801727295,3.9851486682891846,-0.004791259765625,-0.0018632676219567657,0.005589802749454975
17758009385012,2.2385785579681396,-8.730456352233887,4.017470359802246,-0.0071868896484375,-0.0010647244052961469,0.00958251953125
17758010622150,2.29484224319458,-8.734047889709473,4.000710964202881,-0.006122165359556675,-0.008783976547420025,0.013042873702943325
17758011859275,2.3307554721832275,-8.718485832214355,4.02345609664917,-0.0063883461989462376,-0.010114881210029125,0.00931633822619915
17758013096400,2.3116018772125244,-8.723274230957031,3.994725465774536,-0.0066545275039970875,-0.0031941730994731188,0.01171196810901165
17758014333550,2.3271641731262207,-8.687360763549805,3.994725465774536,-0.00931633822619915,-0.004791259765625,0.012510511092841625
17758015570687,2.251746654510498,-8.730456352233887,3.97916316986084,-0.005057440605014563,-0.0021294488105922937,0.0071868896484375
17758016807812,2.2673089504241943,-8.753201484680176,3.9911341667175293,-0.0021294488105922937,-0.003460354171693325,0.00931633822619915
17758018044937,2.248155355453491,-8.701725959777832,3.976768970489502,-0.0029279920272529125,-0.006122165359556675,0.01117960549890995
17758019282062,2.279279947280884,-8.6897554397583,3.977966070175171,-0.0021294488105922937,-0.0015970865497365594,0.01171196810901165
17758020519212,2.2697031497955322,-8.725667953491211,3.993528366088867,0.0007985432748682797,-0.0021294488105922937,0.00984870083630085
17758021756337,2.274491548538208,-8.71609115600586,4.000710964202881,0.0010647244052961469,-0.010114881210029125,0.0114457868039608
17758022993487,2.273294448852539,-8.729259490966797,3.9707834720611572,-0.0007985432748682797,-0.008517795242369175,0.0077192517928779125
17758024230612,2.298433542251587,-8.71728801727295,3.975571870803833,0.0015970865497365594,-0.006122165359556675,0.00692070834338665
17758025467750,2.273294448852539,-8.702922821044922,3.999513864517212,0.007453070487827063,-0.0042588976211845875,0.01410759799182415
17758026704875,2.2182278633117676,-8.735244750976562,3.9671921730041504,0.0031941730994731188,-0.003460354171693325,0.008517795242369175
17758027942012,2.274491548538208,-8.722076416015625,3.950432777404785,0.005057440605014563,-0.010647243820130825,0.01410759799182415
17758029179150,2.2864625453948975,-8.729259490966797,3.908534288406372,0.0053236219100654125,-0.00692070834338665,0.012510511092841625
17758030416262,2.213439464569092,-8.719682693481445,3.9420530796051025,0.0063883461989462376,-0.005589802749454975,0.008517795242369175
17758031653425,2.2397756576538086,-8.695740699768066,3.9683892726898193,0.00931633822619915,-0.00692070834338665,0.010114881210029125
17758032890525,2.233790159225464,-8.69214916229248,3.9480385780334473,0.0066545275039970875,-0.008783976547420025,0.0071868896484375
17758034127662,2.2445640563964844,-8.708909034729004,3.9420530796051025,0.010114881210029125,-0.005589802749454975,0.01410759799182415
17758035364800,2.2385785579681396,-8.674192428588867,3.9815573692321777,0.0071868896484375,-0.0090501569211483,0.00931633822619915
17758036601925,2.2625205516815186,-8.668207168579102,3.9444472789764404,0.010381062515079975,-0.00931633822619915,0.00692070834338665
17758037839050,2.2864625453948975,-8.688557624816895,3.950432777404785,0.015172322280704975,-0.005057440605014563,0.0063883461989462376
17758039076200,2.255337953567505,-8.743624687194824,3.993528366088867,0.0119781494140625,-0.005855984054505825,0.00958251953125
17758040313337,2.2673089504241943,-8.732851028442383,3.9683892726898193,0.015438503585755825,-0.0119781494140625,0.0039927163161337376
17758041550450,2.2589292526245117,-8.719682693481445,3.9815573692321777,0.01703559048473835,-0.0063883461989462376,0.004791259765625
17758042787575,2.292448043823242,-8.71369743347168,3.994725465774536,0.014906140975654125,-0.0066545275039970875,0.007453070487827063
17758044024725,2.297236442565918,-8.729259490966797,3.950432777404785,0.01463996060192585,-0.0071868896484375,0.0053236219100654125
17758045261850,2.279279947280884,-8.718485832214355,3.995922565460205,0.012510511092841625,-0.0066545275039970875,0.0023956298828125
17758046498987,2.273294448852539,-8.699332237243652,3.977966070175171,0.0196974016726017,-0.005589802749454975,0.0026618109550327063
17758047736137,2.3151931762695312,-8.6897554397583,3.9815573692321777,0.01889885775744915,-0.0063883461989462376,0.005589802749454975
17758048973262,2.317587375640869,-8.69214916229248,4.02345609664917,0.02022976242005825,-0.006122165359556675,-0.0007985432748682797
17758050210400,2.2852654457092285,-8.706514358520508,4.009090900421143,0.02608574740588665,-0.008251613937318325,0.0037265352439135313
17758051447525,2.300827741622925,-8.683769226074219,4.055777549743652,0.0244886614382267,-0.010114881210029125,0.004791259765625
17758052684650,2.27209734916687,-8.723274230957031,3.9468414783477783,0.02262539230287075,-0.00958251953125,0.0005323622026480734
17758053921787,2.390610456466675,-8.677783966064453,4.006696701049805,0.0247548408806324,-0.01410759799182415,0.0005323622026480734
17758055158937,2.3104045391082764,-8.661025047302246,3.9923312664031982,0.0300784632563591,-0.012776692397892475,0.005855984054505825
17758056396062,2.2589292526245117,-8.71728801727295,4.000710964202881,0.0292799212038517,-0.012510511092841625,-0.0002661811013240367
17758057633175,2.274491548538208,-8.688557624816895,3.999513864517212,0.0306108258664608,-0.01224433071911335,-0.0031941730994731188
17758058870312,2.279279947280884,-8.711302757263184,4.034229755401611,0.0351359061896801,-0.00931633822619915,0.0002661811013240367
17758060107437,2.2373814582824707,-8.701725959777832,4.039018154144287,0.0295461006462574,-0.0138414166867733,0.0039927163161337376
17758061344575,2.279279947280884,-8.752004623413086,3.9624037742614746,0.02741665206849575,-0.01224433071911335,-0.0023956298828125
17758062581700,2.2457611560821533,-8.711302757263184,4.022258758544922,0.0351359061896801,-0.013042873702943325,0.0005323622026480734
17758063818862,2.2685060501098633,-8.730456352233887,4.0761284828186035,0.0330064557492733,-0.015172322280704975,-0.0002661811013240367
17758065055987,2.279279947280884,-8.736441612243652,4.034229755401611,0.02981228195130825,-0.01703559048473835,-0.0015970865497365594
17758066293137,2.3020248413085938,-8.778340339660645,3.993528366088867,0.0377977155148983,-0.0191650390625,-0.0021294488105922937
17758067530262,2.278082847595215,-8.755595207214355,4.022258758544922,0.0372653529047966,-0.0138414166867733,-0.0013309054775163531
17758068767387,2.292448043823242,-8.755595207214355,4.013879299163818,0.0319417305290699,-0.013309055007994175,-0.0002661811013240367
17758070004525,2.2912509441375732,-8.786720275878906,4.031835556030273,0.0354020856320858,-0.0138414166867733,-0.0031941730994731188
17758071241650,2.340332269668579,-8.767566680908203,4.0533833503723145,0.0377977155148983,-0.0157046839594841,-0.00452507846057415
17758072478775,2.317587375640869,-8.734047889709473,4.028244495391846,0.0343373604118824,-0.0162370465695858,-0.0037265352439135313
17758073715912,2.2864625453948975,-8.78312873840332,4.01268196105957,0.0354020856320858,-0.0181003138422966,-0.0042588976211845875
17758074953037,2.3116018772125244,-8.80467700958252,3.974374771118164,0.0354020856320858,-0.01597086526453495,-0.005589802749454975
17758076190162,2.346317768096924,-8.777143478393555,4.02465295791626,0.042855154722929,-0.0204959437251091,-0.00452507846057415
17758077427325,2.2828712463378906,-8.768763542175293,4.000710964202881,0.0404595248401165,-0.0186326764523983,-0.0023956298828125
17758078664450,2.29484224319458,-8.774749755859375,4.07014274597168,0.0372653529047966,-0.0196974016726017,-0.0039927163161337376
17758079901562,2.323572874069214,-8.767566680908203,4.05817174911499,0.0404595248401165,-0.0228915736079216,-0.0071868896484375
17758081138700,2.2888567447662354,-8.746018409729004,4.036623954772949,0.0412580706179142,-0.02076212503015995,-0.0007985432748682797
17758082375850,2.346317768096924,-8.786720275878906,4.01268196105957,0.0385962575674057,-0.0215606689453125,-0.005589802749454975
17758083612987,2.318784475326538,-8.742427825927734,4.018667697906494,0.0415242500603199,-0.02422248013317585,0.0026618109550327063
17758084850112,2.345120668411255,-8.74960994720459,4.064157485961914,0.0399271659553051,-0.02555338479578495,0.0018632676219567657
17758086087250,2.3570916652679443,-8.78193187713623,4.036623954772949,0.0404595248401165,-0.02502102218568325,-0.0066545275039970875
17758087324375,2.364274263381958,-8.797493934631348,4.05817174911499,0.0401933453977108,-0.02741665206849575,-0.0063883461989462376
17758088561512,2.2912509441375732,-8.759186744689941,4.009090900421143,0.0417904332280159,-0.02502102218568325,-0.006122165359556675
17758089798650,2.2697031497955322,-8.755595207214355,4.073734283447266,0.0367329902946949,-0.023956298828125,-0.0077192517928779125
17758091035775,2.297236442565918,-8.798691749572754,4.090493679046631,0.0359344482421875,-0.02022976242005825,-0.005057440605014563
17758092272900,2.3343467712402344,-8.797493934631348,4.106055736541748,0.0375315360724926,-0.02422248013317585,-0.0053236219100654125
17758093510037,2.3068132400512695,-8.792705535888672,4.091690540313721,0.0375315360724926,-0.02502102218568325,-0.0053236219100654125
17758094747162,2.275688648223877,-8.786720275878906,4.065354347229004,0.0385962575674057,-0.0247548408806324,-0.004791259765625
17758095984300,2.3139960765838623,-8.773551940917969,4.050989151000977,0.0415242500603199,-0.0306108258664608,-0.0039927163161337376
17758097221437,2.3487119674682617,-8.797493934631348,4.085705280303955,0.0377977155148983,-0.0258195661008358,-0.0039927163161337376
17758098458562,2.323572874069214,-8.845377922058105,4.065354347229004,0.0367329902946949,-0.02315775491297245,0.0023956298828125
17758099695700,2.318784475326538,-8.856152534484863,4.079719543457031,0.0340711809694767,-0.02741665206849575,0.0021294488105922937
17758100932837,2.3080103397369385,-8.827422142028809,4.062960147857666,0.0351359061896801,-0.02661811001598835,-0.0021294488105922937
17758102169975,2.292448043823242,-8.886079788208008,4.041412353515625,0.0340711809694767,-0.0223592109978199,-0.0002661811013240367
17758103407087,2.2697031497955322,-8.878896713256836,4.106055736541748,0.0346035435795784,-0.0322079136967659,0.0021294488105922937
17758104644225,2.3163902759552,-8.910021781921387,4.088099479675293,0.0385962575674057,-0.0327402763068676,-0.0002661811013240367
17758105881362,2.3068132400512695,-8.883685111999512,4.078522682189941,0.0340711809694767,-0.02901373989880085,-0.0013309054775163531
17758107118500,2.273294448852539,-8.898050308227539,4.080916881561279,0.03087700717151165,-0.0300784632563591,0.0
17758108355637,2.2433669567108154,-8.9064302444458,4.080916881561279,0.0327402763068676,-0.0295461006462574,-0.0018632676219567657
17758109592750,2.292448043823242,-8.905233383178711,4.127603530883789,0.0292799212038517,-0.02661811001598835,-0.0005323622026480734
17758110829900,2.3163902759552,-8.862137794494629,4.095282077789307,0.0300784632563591,-0.02741665206849575,0.0018632676219567657
17758112067012,2.3044190406799316,-8.924386978149414,4.089296340942383,0.0220930315554142,-0.02794901467859745,0.0002661811013240367
17758113304150,2.2601263523101807,-8.96269416809082,4.0976762771606445,0.02315775491297245,-0.0348697230219841,0.0018632676219567657
17758114541287,2.2613234519958496,-8.935160636901855,4.094084739685059,0.0263519287109375,-0.02981228195130825,-0.0007985432748682797
17758115778425,2.2625205516815186,-8.905233383178711,4.083311080932617,0.0252872034907341,-0.0292799212038517,0.0
17758117015562,2.292448043823242,-8.916007041931152,4.101267337799072,0.0220930315554142,-0.02874755859375,0.0021294488105922937
17758118252687,2.274491548538208,-8.89685344696045,4.1156325340271,0.0215606689453125,-0.02741665206849575,0.0029279920272529125
17758119489837,2.2876596450805664,-8.919598579406738,4.086902141571045,0.01943122036755085,-0.02182685025036335,0.0053236219100654125
17758120726962,2.296039342880249,-8.887276649475098,4.0964789390563965,0.0196974016726017,-0.02608574740588665,0.005589802749454975
17758121964075,2.273294448852539,-8.898050308227539,4.108449935913086,0.02022976242005825,-0.0295461006462574,0.006122165359556675
17758123201212,2.3020248413085938,-8.859743118286133,4.077325344085693,0.01996358297765255,-0.0295461006462574,0.007453070487827063
17758124438337,2.2637176513671875,-8.910021781921387,4.0761284828186035,0.0181003138422966,-0.02981228195130825,0.005855984054505825
17758125675475,2.2840683460235596,-8.900444984436035,4.10246467590332,0.0173017717897892,-0.03034464456140995,0.00931633822619915
17758126912625,2.274491548538208,-8.889671325683594,4.100070476531982,0.010647243820130825,-0.0292799212038517,0.00931633822619915
17758128149737,2.2697031497955322,-8.884882926940918,4.0749311447143555,0.01171196810901165,-0.02555338479578495,0.0090501569211483
17758129386887,2.2876596450805664,-8.893261909484863,4.100070476531982,0.01357523538172245,-0.02661811001598835,0.0063883461989462376
17758130624025,2.3080103397369385,-8.851364135742188,4.091690540313721,0.01463996060192585,-0.02555338479578495,0.005057440605014563
17758131861150,2.275688648223877,-8.87410831451416,4.037821292877197,0.01117960549890995,-0.0258195661008358,0.00958251953125
17758133098275,2.292448043823242,-8.841787338256836,4.079719543457031,0.0090501569211483,-0.02848137728869915,0.00958251953125
17758134335412,2.3151931762695312,-8.856152534484863,4.10246467590332,0.012776692397892475,-0.02555338479578495,0.00692070834338665
17758135572550,2.3044190406799316,-8.828619003295898,4.113238334655762,0.015172322280704975,-0.0244886614382267,0.007985432632267475
17758136809687,2.3163902759552,-8.83699893951416,4.0976762771606445,0.01117960549890995,-0.02262539230287075,0.00958251953125
17758138046825,2.275688648223877,-8.856152534484863,4.067748546600342,0.01171196810901165,-0.02315775491297245,0.008251613937318325
17758139283950,2.2852654457092285,-8.81664752960205,4.073734283447266,0.013309055007994175,-0.0300784632563591,0.007985432632267475
17758140521087,2.2852654457092285,-8.847772598266602,4.138377666473389,0.01357523538172245,-0.02741665206849575,0.008517795242369175
17758141758212,2.273294448852539,-8.842984199523926,4.0976762771606445,0.012510511092841625,-0.0258195661008358,0.005589802749454975
17758142995337,2.3127989768981934,-8.833407402038574,4.120420932769775,0.013042873702943325,-0.0263519287109375,0.0077192517928779125
17758144232500,2.297236442565918,-8.825027465820312,4.151546001434326,0.01783413253724575,-0.023956298828125,0.005855984054505825
17758145469625,2.3032219409942627,-8.829815864562988,4.1431660652160645,0.01224433071911335,-0.02369011752307415,-0.0002661811013240367
17758146706750,2.255337953567505,-8.833407402038574,4.139575004577637,0.01357523538172245,-0.02262539230287075,0.0021294488105922937
17758147943887,2.2816741466522217,-8.829815864562988,4.129997730255127,0.007985432632267475,-0.02022976242005825,0.004791259765625
17758149181012,2.297236442565918,-8.829815864562988,4.094084739685059,0.008251613937318325,-0.02182685025036335,0.0015970865497365594
17758150418137,2.2816741466522217,-8.832210540771484,4.138377666473389,0.010381062515079975,-0.0223592109978199,-0.0023956298828125
17758151655275,2.276885747909546,-8.845377922058105,4.125209331512451,0.008251613937318325,-0.0220930315554142,-0.0002661811013240367
17758152892400,2.299630641937256,-8.841787338256836,4.106055736541748,0.010381062515079975,-0.0223592109978199,0.0010647244052961469
17758154129537,2.2613234519958496,-8.847772598266602,4.131195068359375,0.0037265352439135313,-0.012776692397892475,-0.0042588976211845875
17758155366675,2.2577321529388428,-8.881291389465332,4.10246467590332,0.0066545275039970875,-0.012776692397892475,-0.004791259765625
17758156603800,2.2445640563964844,-8.87051773071289,4.1192240715026855,0.01410759799182415,-0.0215606689453125,-0.0053236219100654125
17758157840937,2.2673089504241943,-8.890868186950684,4.138377666473389,0.008517795242369175,-0.01783413253724575,-0.0053236219100654125
17758159078062,2.2673089504241943,-8.869319915771484,4.128800868988037,0.00931633822619915,-0.01650322787463665,-0.0063883461989462376
17758160315200,2.2469582557678223,-8.87171459197998,4.131195068359375,0.0071868896484375,-0.0215606689453125,-0.01224433071911335
17758161552325,2.3044190406799316,-8.825027465820312,4.1647138595581055,0.0042588976211845875,-0.01996358297765255,-0.01357523538172245
17758162789475,2.278082847595215,-8.822633743286133,4.121618270874023,0.005589802749454975,-0.01703559048473835,-0.008517795242369175
17758164026612,2.2625205516815186,-8.797493934631348,4.137180805206299,0.0066545275039970875,-0.01597086526453495,-0.00452507846057415
17758165263737,2.3068132400512695,-8.795100212097168,4.161122798919678,0.0063883461989462376,-0.00931633822619915,-0.013042873702943325
17758166500862,2.2852654457092285,-8.809465408325195,4.1156325340271,0.0077192517928779125,-0.010913425125181675,-0.012776692397892475
17758167738000,2.2613234519958496,-8.833407402038574,4.153940200805664,0.005589802749454975,-0.007985432632267475,-0.010381062515079975
17758168975150,2.2433669567108154,-8.777143478393555,4.176684856414795,0.00958251953125,-0.005057440605014563,-0.007985432632267475
17758170212275,2.24935245513916,-8.815450668334961,4.145560264587402,0.008517795242369175,-0.0066545275039970875,-0.0071868896484375
17758171449387,2.3020248413085938,-8.754398345947266,4.1180267333984375,0.0042588976211845875,-0.0066545275039970875,-0.01117960549890995
17758172686537,2.273294448852539,-8.767566680908203,4.120420932769775,0.0063883461989462376,-0.0077192517928779125,-0.010647243820130825
17758173923687,2.299630641937256,-8.738836288452148,4.100070476531982,0.0090501569211483,-0.010114881210029125,-0.0037265352439135313
17758175160812,2.2864625453948975,-8.763975143432617,4.112041473388672,0.00958251953125,-0.007985432632267475,-0.008517795242369175
17758176397925,2.255337953567505,-8.78193187713623,4.091690540313721,0.003460354171693325,-0.0037265352439135313,-0.01171196810901165
17758177635075,2.278082847595215,-8.772355079650879,4.107253074645996,0.0053236219100654125,-0.0015970865497365594,-0.01224433071911335
17758178872212,2.321178674697876,-8.777143478393555,4.153940200805664,0.0090501569211483,-0.0042588976211845875,-0.010381062515079975
17758180109350,2.24935245513916,-8.74721622467041,4.126406669616699,0.01224433071911335,-0.0042588976211845875,-0.008517795242369175
17758181346475,2.2469582557678223,-8.763975143432617,4.129997730255127,0.0162370465695858,-0.006122165359556675,-0.01224433071911335
17758182583587,2.2816741466522217,-8.761581420898438,4.094084739685059,0.008517795242369175,-0.0042588976211845875,-0.0119781494140625
17758183820737,2.2852654457092285,-8.790311813354492,4.124012470245361,0.0063883461989462376,-0.004791259765625,-0.0119781494140625
17758185057862,2.2816741466522217,-8.793903350830078,4.107253074645996,0.007453070487827063,0.0005323622026480734,-0.01171196810901165
17758186295012,2.300827741622925,-8.820239067077637,4.127603530883789,0.01171196810901165,0.0015970865497365594,-0.007453070487827063
17758187532137,2.2912509441375732,-8.795100212097168,4.1180267333984375,0.010913425125181675,0.0037265352439135313,-0.007985432632267475
17758188769262,2.319981575012207,-8.768763542175293,4.133589267730713,0.008783976547420025,0.0026618109550327063,-0.005855984054505825
17758190006387,2.3080103397369385,-8.798691749572754,4.153940200805664,0.012510511092841625,0.0053236219100654125,-0.005057440605014563
17758191243550,2.3151931762695312,-8.787917137145996,4.101267337799072,0.01756795309484005,0.0031941730994731188,-0.00452507846057415
17758192480675,2.3104045391082764,-8.785523414611816,4.14795446395874,0.01597086526453495,0.005589802749454975,-0.003460354171693325
17758193717800,2.33913516998291,-8.810662269592285,4.125209331512451,0.0173017717897892,0.0042588976211845875,-0.0066545275039970875
17758194954925,2.3558945655822754,-8.809465408325195,4.1443634033203125,0.015172322280704975,0.00452507846057415,-0.0063883461989462376
17758196192087,2.317587375640869,-8.81664752960205,4.127603530883789,0.015438503585755825,0.0002661811013240367,0.0015970865497365594
17758197429187,2.3127989768981934,-8.827422142028809,4.120420932769775,0.0173017717897892,0.0029279920272529125,0.0031941730994731188
17758198666325,2.3343467712402344,-8.787917137145996,4.120420932769775,0.0167694091796875,0.0077192517928779125,-0.0026618109550327063
17758199903487,2.3714568614959717,-8.84058952331543,4.174290657043457,0.012510511092841625,0.0071868896484375,-0.0037265352439135313
17758201140600,2.3582887649536133,-8.864531517028809,4.198232650756836,0.0157046839594841,0.00452507846057415,0.0
17758202377750,2.3499090671539307,-8.834604263305664,4.132391929626465,0.012510511092841625,0.005589802749454975,0.0013309054775163531
17758203614862,2.3511061668395996,-8.853757858276367,4.15992546081543,0.01650322787463665,0.007453070487827063,0.003460354171693325
17758204852012,2.323572874069214,-8.832210540771484,4.191050052642822,0.0162370465695858,0.01117960549890995,0.008517795242369175
17758206089150,2.3283612728118896,-8.83939266204834,4.19344425201416,0.015438503585755825,0.00931633822619915,0.00452507846057415
17758207326275,2.3259670734405518,-8.8070707321167,4.122815132141113,0.0157046839594841,0.00984870083630085,0.004791259765625
17758208563400,2.3535003662109375,-8.815450668334961,4.161122798919678,0.01597086526453495,0.01224433071911335,0.0066545275039970875
17758209800550,2.387019157409668,-8.862137794494629,4.155137062072754,0.01756795309484005,0.00931633822619915,0.00692070834338665
17758211037675,2.3726539611816406,-8.834604263305664,4.153940200805664,0.0186326764523983,0.008783976547420025,0.0066545275039970875
17758212274800,2.36188006401062,-8.841787338256836,4.113238334655762,0.01224433071911335,0.010647243820130825,0.007453070487827063
17758213511925,2.343923568725586,-8.884882926940918,4.139575004577637,0.013042873702943325,0.008517795242369175,0.00931633822619915
17758214749062,2.3570916652679443,-8.842984199523926,4.163516998291016,0.01463996060192585,0.0119781494140625,0.00984870083630085
17758215986187,2.337938070297241,-8.87171459197998,4.1659111976623535,0.005057440605014563,0.007985432632267475,0.01117960549890995
17758217223350,2.3570916652679443,-8.848969459533691,4.1431660652160645,0.008783976547420025,0.0138414166867733,0.01117960549890995
17758218460462,2.360682964324951,-8.900444984436035,4.127603530883789,0.012776692397892475,0.010913425125181675,0.014373779296875
17758219697587,2.366668462753296,-8.919598579406738,4.152742862701416,0.0042588976211845875,0.013309055007994175,0.010913425125181675
17758220934725,2.3343467712402344,-8.854954719543457,4.15872859954834,0.0026618109550327063,0.007985432632267475,0.0119781494140625
17758222171862,2.3523032665252686,-8.876502990722656,4.194641590118408,0.005057440605014563,0.0066545275039970875,0.0157046839594841
17758223409000,2.363077163696289,-8.898050308227539,4.228160381317139,0.0090501569211483,0.01224433071911335,0.012776692397892475
17758224646125,2.364274263381958,-8.911218643188477,4.140771865844727,0.005589802749454975,0.01357523538172245,0.01171196810901165
17758225883275,2.3535003662109375,-8.908824920654297,4.133589267730713,0.006122165359556675,0.0114457868039608,0.013309055007994175
17758227120412,2.363077163696289,-8.878896713256836,4.155137062072754,0.0002661811013240367,0.01117960549890995,0.01650322787463665
17758228357525,2.408566951751709,-8.9064302444458,4.156334400177002,-0.0063883461989462376,0.01224433071911335,0.01410759799182415
17758229594662,2.3570916652679443,-8.938752174377441,4.1647138595581055,-0.0010647244052961469,0.012510511092841625,0.0119781494140625
17758230831787,2.3355438709259033,-8.932766914367676,4.155137062072754,0.0005323622026480734,0.01410759799182415,0.01357523538172245
17758232068912,2.3714568614959717,-8.92917537689209,4.185064792633057,-0.004791259765625,0.015438503585755825,0.01357523538172245
17758233306050,2.3523032665252686,-8.920795440673828,4.141969203948975,-0.0039927163161337376,0.014373779296875,0.010913425125181675
17758234543187,2.342726469039917,-8.889671325683594,4.197035789489746,-0.0026618109550327063,0.0138414166867733,0.0173017717897892
17758235780325,2.323572874069214,-8.916007041931152,4.155137062072754,-0.00692070834338665,0.015438503585755825,0.01357523538172245
17758237017462,2.3259670734405518,-8.945934295654297,4.091690540313721,-0.0042588976211845875,0.010114881210029125,0.0181003138422966
17758238254625,2.340332269668579,-8.959102630615234,4.168305397033691,-0.0066545275039970875,0.0119781494140625,0.0157046839594841
17758239491712,2.3726539611816406,-8.923190116882324,4.1443634033203125,-0.010114881210029125,0.014906140975654125,0.02022976242005825
17758240728862,2.3762452602386475,-8.927978515625,4.157531261444092,-0.0077192517928779125,0.0119781494140625,0.0210283063352108
17758241966000,2.3271641731262207,-8.920795440673828,4.15992546081543,-0.01463996060192585,0.01117960549890995,0.010913425125181675
17758243203150,2.369062662124634,-8.883685111999512,4.153940200805664,-0.01703559048473835,0.013309055007994175,0.013309055007994175
17758244440250,2.3355438709259033,-8.911218643188477,4.131195068359375,-0.0173017717897892,0.0138414166867733,0.0181003138422966
17758245677387,2.3511061668395996,-8.886079788208008,4.129997730255127,-0.0162370465695858,0.008517795242369175,0.0181003138422966
17758246914525,2.3750481605529785,-8.877699851989746,4.104858875274658,-0.0196974016726017,0.012510511092841625,0.0157046839594841
17758248151637,2.3475148677825928,-8.875306129455566,4.133589267730713,-0.02129448764026165,0.005589802749454975,0.0181003138422966
17758249388800,2.3307554721832275,-8.888473510742188,4.0761284828186035,-0.0210283063352108,0.008251613937318325,0.0220930315554142
17758250625925,2.3475148677825928,-8.884882926940918,4.11443567276001,-0.0204959437251091,0.005855984054505825,0.02129448764026165
17758251863062,2.360682964324951,-8.864531517028809,4.109647274017334,-0.01836649514734745,0.01224433071911335,0.0252872034907341
17758253100187,2.346317768096924,-8.869319915771484,4.153940200805664,-0.0204959437251091,0.010381062515079975,0.01996358297765255
17758254337337,2.3511061668395996,-8.862137794494629,4.0761284828186035,-0.0247548408806324,0.006122165359556675,0.0204959437251091
17758255574462,2.3738510608673096,-8.847772598266602,4.085705280303955,-0.0244886614382267,0.007453070487827063,0.0204959437251091
17758256811600,2.3798365592956543,-8.83819580078125,4.109647274017334,-0.02555338479578495,0.01357523538172245,0.02422248013317585
17758258048712,2.342726469039917,-8.846575736999512,4.106055736541748,-0.0292799212038517,0.010381062515079975,0.0234239362180233
17758259285850,2.3499090671539307,-8.828619003295898,4.109647274017334,-0.023956298828125,0.008251613937318325,0.0244886614382267
17758260522987,2.389413356781006,-8.844181060791016,4.064157485961914,-0.0247548408806324,0.01224433071911335,0.0244886614382267
17758261760125,2.389413356781006,-8.833407402038574,4.0569748878479,-0.03087700717151165,0.0119781494140625,0.0247548408806324
17758262997262,2.364274263381958,-8.811859130859375,4.080916881561279,-0.02981228195130825,0.01410759799182415,0.0210283063352108
17758264234387,2.4013843536376953,-8.854954719543457,4.101267337799072,-0.02901373989880085,0.00931633822619915,0.0228915736079216
17758265471525,2.3558945655822754,-8.813056945800781,4.0749311447143555,-0.0276828333735466,0.0053236219100654125,0.02369011752307415
17758266708650,2.385822057723999,-8.808268547058105,4.080916881561279,-0.02741665206849575,0.004791259765625,0.02608574740588665
17758267945775,2.383427858352661,-8.778340339660645,4.041412353515625,-0.0306108258664608,0.004791259765625,0.02608574740588665
17758269182925,2.409764051437378,-8.78073501586914,4.06894588470459,-0.0327402763068676,0.006122165359556675,0.0268842913210392
17758270420050,2.3942017555236816,-8.80587387084961,4.10246467590332,-0.033272635191679,0.0007985432748682797,0.0263519287109375
17758271657162,2.4013843536376953,-8.795100212097168,4.088099479675293,-0.0338049978017807,0.0,0.02874755859375
17758272894300,2.4133553504943848,-8.792705535888672,4.107253074645996,-0.0314093679189682,0.0029279920272529125,0.0340711809694767
17758274131450,2.367865562438965,-8.790311813354492,4.05817174911499,-0.02848137728869915,0.0018632676219567657,0.033538818359375
17758275368600,2.382230758666992,-8.791508674621582,4.045003890991211,-0.0263519287109375,-0.0013309054775163531,0.0354020856320858
17758276605725,2.3570916652679443,-8.785523414611816,4.052186489105225,-0.0322079136967659,0.0010647244052961469,0.03087700717151165
17758277842850,2.385822057723999,-8.741230010986328,4.049792289733887,-0.0356682650744915,0.0015970865497365594,0.0311431884765625
17758279079975,2.3738510608673096,-8.80467700958252,4.040215492248535,-0.0351359061896801,0.0002661811013240367,0.0327402763068676
17758280317125,2.3810336589813232,-8.789114952087402,4.041412353515625,-0.0348697230219841,-0.0015970865497365594,0.033272635191679
17758281554262,2.3523032665252686,-8.785523414611816,4.039018154144287,-0.033538818359375,-0.0029279920272529125,0.0354020856320858
17758282791375,2.3558945655822754,-8.763975143432617,4.092887878417969,-0.02981228195130825,-0.004791259765625,0.0354020856320858
17758284028525,2.337938070297241,-8.759186744689941,4.0569748878479,-0.0319417305290699,-0.008251613937318325,0.0311431884765625
17758285265650,2.3475148677825928,-8.744821548461914,4.055777549743652,-0.0306108258664608,-0.00452507846057415,0.0327402763068676
17758286502775,2.3343467712402344,-8.708909034729004,4.031835556030273,-0.0292799212038517,-0.0071868896484375,0.0322079136967659
17758287739925,2.406172752380371,-8.71609115600586,4.07014274597168,-0.02848137728869915,-0.00692070834338665,0.0354020856320858
17758288977062,2.364274263381958,-8.762778282165527,4.055777549743652,-0.02901373989880085,-0.008517795242369175,0.0311431884765625
17758290214175,2.406172752380371,-8.71609115600586,4.05817174911499,-0.0258195661008358,-0.006122165359556675,0.0292799212038517
17758291451312,2.369062662124634,-8.687360763549805,4.061763286590576,-0.0295461006462574,-0.01463996060192585,0.0247548408806324
17758292688450,2.319981575012207,-8.75080680847168,4.073734283447266,-0.023956298828125,-0.01410759799182415,0.033272635191679
17758293925587,2.3487119674682617,-8.720879554748535,4.066551685333252,-0.02076212503015995,-0.01410759799182415,0.0372653529047966
17758295162712,2.3714568614959717,-8.766369819641113,4.046200752258301,-0.02076212503015995,-0.014906140975654125,0.0300784632563591
17758296399850,2.3475148677825928,-8.757989883422852,4.0330328941345215,-0.0258195661008358,-0.015172322280704975,0.0300784632563591
17758297637000,2.33913516998291,-8.762778282165527,4.02345609664917,-0.0252872034907341,-0.012510511092841625,0.0369991734623909
17758298874100,2.3726539611816406,-8.80587387084961,4.049792289733887,-0.0234239362180233,-0.0157046839594841,0.0362006276845932
17758300111250,2.3762452602386475,-8.834604263305664,4.02345609664917,-0.01889885775744915,-0.014906140975654125,0.0300784632563591
17758301348387,2.278082847595215,-8.761581420898438,4.082113742828369,-0.0204959437251091,-0.0138414166867733,0.0268842913210392
17758302585500,2.293645143508911,-8.795100212097168,4.005499362945557,-0.0186326764523983,-0.0157046839594841,0.0276828333735466
17758303822650,2.27209734916687,-8.81664752960205,4.003105163574219,-0.0210283063352108,-0.0173017717897892,0.0311431884765625
17758305059800,2.293645143508911,-8.810662269592285,4.0533833503723145,-0.0167694091796875,-0.01410759799182415,0.0316755510866642
17758306296900,2.2661118507385254,-8.7699613571167,4.048594951629639,-0.02076212503015995,-0.0181003138422966,0.03087700717151165
17758307534062,2.3080103397369385,-8.825027465820312,4.049792289733887,-0.01996358297765255,-0.014906140975654125,0.0319417305290699
17758308771175,2.3092074394226074,-8.80467700958252,4.027047157287598,-0.02129448764026165,-0.010647243820130825,0.0306108258664608
17758310008325,2.2888567447662354,-8.80467700958252,4.039018154144287,-0.01996358297765255,-0.01836649514734745,0.0324740931391716
17758311245450,2.251746654510498,-8.790311813354492,4.015076160430908,-0.0191650390625,-0.02076212503015995,0.02901373989880085
17758312482575,2.2577321529388428,-8.777143478393555,4.025850296020508,-0.0204959437251091,-0.013309055007994175,0.0327402763068676
17758313719725,2.234987258911133,-8.757989883422852,4.040215492248535,-0.02182685025036335,-0.0138414166867733,0.0295461006462574
17758314956850,2.22660756111145,-8.785523414611816,4.015076160430908,-0.0228915736079216,-0.01463996060192585,0.03034464456140995
17758316193987,2.2445640563964844,-8.744821548461914,4.065354347229004,-0.0244886614382267,-0.0181003138422966,0.0327402763068676
17758317431125,2.248155355453491,-8.69334602355957,4.046200752258301,-0.0220930315554142,-0.012776692397892475,0.0324740931391716
17758318668250,2.2409727573394775,-8.700529098510742,4.05817174911499,-0.01943122036755085,-0.00452507846057415,0.0314093679189682
17758319905375,2.256535053253174,-8.682572364807129,4.034229755401611,-0.02555338479578495,-0.007985432632267475,0.0300784632563591
17758321142525,2.212242364883423,-8.674192428588867,4.05817174911499,-0.0247548408806324,-0.0114457868039608,0.033272635191679
17758322379662,2.2385785579681396,-8.65863037109375,4.060565948486328,-0.0204959437251091,-0.010647243820130825,0.0292799212038517
17758323616775,2.211045265197754,-8.704120635986328,4.022258758544922,-0.0204959437251091,-0.010913425125181675,0.0276828333735466
17758324853937,2.2361843585968018,-8.674192428588867,4.035427093505859,-0.01996358297765255,-0.010381062515079975,0.033272635191679
17758326091062,2.213439464569092,-8.71728801727295,4.042609691619873,-0.0220930315554142,-0.012510511092841625,0.03034464456140995
17758327328187,2.248155355453491,-8.722076416015625,3.9695863723754883,-0.01783413253724575,-0.010913425125181675,0.03034464456140995
17758328565312,2.2433669567108154,-8.734047889709473,4.0078935623168945,-0.01357523538172245,-0.005057440605014563,0.0322079136967659
17758329802450,2.2242133617401123,-8.738836288452148,4.01268196105957,-0.0196974016726017,-0.0063883461989462376,0.02848137728869915
17758331039575,2.279279947280884,-8.754398345947266,3.9612066745758057,-0.02076212503015995,-0.0031941730994731188,0.02608574740588665
17758332276712,2.211045265197754,-8.746018409729004,3.994725465774536,-0.0157046839594841,-0.0037265352439135313,0.02661811001598835
17758333513850,2.2206220626831055,-8.773551940917969,4.000710964202881,-0.015172322280704975,-0.005855984054505825,0.0330064557492733
17758334750987,2.1990742683410645,-8.829815864562988,4.027047157287598,-0.014906140975654125,-0.005855984054505825,0.0372653529047966
17758335988112,2.191891670227051,-8.847772598266602,4.0114850997924805,-0.0157046839594841,-0.0063883461989462376,0.0343373604118824
17758337225237,2.2206220626831055,-8.844181060791016,4.004302501678467,-0.0173017717897892,-0.00931633822619915,0.0322079136967659
17758338462387,2.187103271484375,-8.832210540771484,4.035427093505859,-0.0173017717897892,-0.0031941730994731188,0.0364668108522892
17758339699512,2.188300371170044,-8.831012725830078,4.004302501678467,-0.0186326764523983,0.0023956298828125,0.0343373604118824
17758340936650,2.208651065826416,-8.87171459197998,4.040215492248535,-0.0181003138422966,-0.0031941730994731188,0.033272635191679
17758342173775,2.2218191623687744,-8.829815864562988,4.043806552886963,-0.0186326764523983,-0.0015970865497365594,0.033272635191679
17758343410925,2.233790159225464,-8.831012725830078,4.031835556030273,-0.01943122036755085,-0.0005323622026480734,0.0343373604118824
17758344648037,2.2218191623687744,-8.83939266204834,4.000710964202881,-0.0167694091796875,-0.0026618109550327063,0.0372653529047966
17758345885187,2.2577321529388428,-8.80587387084961,4.022258758544922,-0.0191650390625,-0.0010647244052961469,0.0362006276845932
17758347122312,2.2469582557678223,-8.810662269592285,4.017470359802246,-0.014906140975654125,-0.0018632676219567657,0.0420566126704216
17758348359475,2.2613234519958496,-8.798691749572754,4.021061897277832,-0.010913425125181675,-0.0018632676219567657,0.0425889752805233
17758349596600,2.248155355453491,-8.778340339660645,3.9815573692321777,-0.0196974016726017,-0.006122165359556675,0.0409918874502182
17758350833725,2.275688648223877,-8.762778282165527,4.01268196105957,-0.02022976242005825,-0.0010647244052961469,0.0356682650744915
17758352070850,2.2637176513671875,-8.74960994720459,4.022258758544922,-0.0204959437251091,0.0007985432748682797,0.0356682650744915
17758353307987,2.2673089504241943,-8.757989883422852,4.015076160430908,-0.0186326764523983,0.003460354171693325,0.0367329902946949
17758354545125,2.233790159225464,-8.765172958374023,4.0330328941345215,-0.01783413253724575,-0.0007985432748682797,0.0354020856320858
17758355782275,2.2589292526245117,-8.772355079650879,4.017470359802246,-0.01756795309484005,0.0042588976211845875,0.0330064557492733
17758357019387,2.2433669567108154,-8.768763542175293,4.021061897277832,-0.014373779296875,0.0018632676219567657,0.0346035435795784
17758358256525,2.229001760482788,-8.74960994720459,4.01268196105957,-0.0186326764523983,0.0031941730994731188,0.0346035435795784
17758359493637,2.2589292526245117,-8.771158218383789,4.028244495391846,-0.013309055007994175,0.0023956298828125,0.0295461006462574
17758360730787,2.2409727573394775,-8.7699613571167,4.034229755401611,-0.01463996060192585,-0.0005323622026480734,0.0364668108522892
17758361967925,2.213439464569092,-8.795100212097168,4.017470359802246,-0.013042873702943325,-0.0053236219100654125,0.033538818359375
17758363205062,2.2421698570251465,-8.793903350830078,3.9612066745758057,-0.0196974016726017,-0.0002661811013240367,0.0295461006462574
17758364442200,2.230198860168457,-8.831012725830078,3.993528366088867,-0.0186326764523983,0.0007985432748682797,0.0316755510866642
17758365679312,2.206256866455078,-8.798691749572754,4.028244495391846,-0.01783413253724575,0.00452507846057415,0.02502102218568325
17758366916462,2.2457611560821533,-8.765172958374023,4.027047157287598,-0.0162370465695858,0.0029279920272529125,0.02182685025036335
17758368153600,2.2469582557678223,-8.84058952331543,4.000710964202881,-0.0114457868039608,-0.0015970865497365594,0.02182685025036335
17758369390725,2.233790159225464,-8.766369819641113,4.015076160430908,-0.01357523538172245,0.0031941730994731188,0.0234239362180233
17758370627862,2.255337953567505,-8.766369819641113,4.019864559173584,-0.01410759799182415,0.004791259765625,0.02422248013317585
17758371864987,2.293645143508911,-8.798691749572754,3.9923312664031982,-0.0119781494140625,0.0018632676219567657,0.0234239362180233
17758373102112,2.2661118507385254,-8.80348014831543,3.980360269546509,-0.0063883461989462376,0.0,0.02369011752307415
17758374339262,2.2637176513671875,-8.754398345947266,4.049792289733887,-0.0090501569211483,0.0010647244052961469,0.01836649514734745
17758375576387,2.2361843585968018,-8.789114952087402,4.055777549743652,-0.015172322280704975,-0.0007985432748682797,0.0162370465695858
17758376813525,2.2900538444519043,-8.787917137145996,4.065354347229004,-0.01410759799182415,-0.0039927163161337376,0.01703559048473835
17758378050637,2.2840683460235596,-8.740033149719238,4.064157485961914,-0.01463996060192585,0.0007985432748682797,0.0157046839594841
17758379287800,2.3104045391082764,-8.754398345947266,4.0761284828186035,-0.013309055007994175,-0.003460354171693325,0.01224433071911335
17758380524925,2.2912509441375732,-8.7268648147583,4.085705280303955,-0.01117960549890995,-0.006122165359556675,0.01703559048473835
17758381762062,2.3259670734405518,-8.698134422302246,4.084507942199707,-0.00984870083630085,-0.0039927163161337376,0.00931633822619915
17758382999200,2.275688648223877,-8.737639427185059,4.062960147857666,-0.0063883461989462376,0.0015970865497365594,0.015172322280704975
17758384236325,2.2601263523101807,-8.760384559631348,4.060565948486328,-0.004791259765625,-0.0039927163161337376,0.0114457868039608
17758385473475,2.2804770469665527,-8.725667953491211,4.062960147857666,-0.005057440605014563,-0.00692070834338665,0.007985432632267475
17758386710600,2.296039342880249,-8.69214916229248,4.07014274597168,-0.007453070487827063,-0.008783976547420025,0.00931633822619915
17758387947737,2.3092074394226074,-8.74960994720459,4.062960147857666,-0.0066545275039970875,-0.007985432632267475,0.008251613937318325
17758389184862,2.2697031497955322,-8.746018409729004,4.060565948486328,0.0,-0.0090501569211483,0.008783976547420025
17758390422012,2.3068132400512695,-8.75080680847168,4.0761284828186035,-0.0015970865497365594,-0.0031941730994731188,0.0071868896484375
17758391659137,2.293645143508911,-8.785523414611816,4.0761284828186035,0.0007985432748682797,-0.00692070834338665,0.010114881210029125
17758392896262,2.276885747909546,-8.784326553344727,4.0976762771606445,0.0015970865497365594,-0.013042873702943325,0.00958251953125
17758394133400,2.317587375640869,-8.809465408325195,4.066551685333252,0.0,-0.007985432632267475,0.00958251953125
17758395370525,2.3020248413085938,-8.820239067077637,4.049792289733887,-0.0031941730994731188,-0.00931633822619915,0.007453070487827063
17758396607662,2.293645143508911,-8.799888610839844,4.039018154144287,-0.0023956298828125,-0.01463996060192585,0.0063883461989462376
17758397844787,2.2888567447662354,-8.808268547058105,4.0545806884765625,0.0021294488105922937,-0.0114457868039608,0.00692070834338665
17758399081937,2.2888567447662354,-8.821435928344727,4.065354347229004,-0.0013309054775163531,-0.015438503585755825,0.0071868896484375
17758400319075,2.293645143508911,-8.842984199523926,3.994725465774536,-0.0023956298828125,-0.01410759799182415,0.0018632676219567657
17758401556200,2.2900538444519043,-8.826224327087402,4.028244495391846,-0.0005323622026480734,-0.013042873702943325,-0.0023956298828125
17758402793325,2.2625205516815186,-8.847772598266602,4.059369087219238,0.00452507846057415,-0.01410759799182415,0.0029279920272529125
17758404030462,2.2816741466522217,-8.825027465820312,4.040215492248535,0.0007985432748682797,-0.0138414166867733,0.0010647244052961469
17758405267612,2.3068132400512695,-8.811859130859375,4.028244495391846,-0.00452507846057415,-0.013309055007994175,-0.0010647244052961469
17758406504737,2.2649147510528564,-8.84058952331543,4.013879299163818,0.0018632676219567657,-0.0173017717897892,0.0021294488105922937
17758407741875,2.273294448852539,-8.841787338256836,4.061763286590576,0.005057440605014563,-0.01410759799182415,0.0029279920272529125
17758408979000,2.2697031497955322,-8.835801124572754,4.101267337799072,-0.0005323622026480734,-0.0138414166867733,0.0007985432748682797
17758410216125,2.2840683460235596,-8.84058952331543,4.060565948486328,-0.0037265352439135313,-0.01224433071911335,-0.0002661811013240367
17758411453275,2.3092074394226074,-8.84058952331543,3.998316764831543,0.0,-0.01597086526453495,0.0
17758412690400,2.2445640563964844,-8.83819580078125,4.062960147857666,0.0,-0.0191650390625,0.0023956298828125
17758413927550,2.2361843585968018,-8.80348014831543,4.019864559173584,0.0002661811013240367,-0.015438503585755825,0.0031941730994731188
17758415164650,2.2876596450805664,-8.826224327087402,4.021061897277832,-0.0015970865497365594,-0.0186326764523983,0.0037265352439135313
17758416401812,2.3032219409942627,-8.815450668334961,4.05817174911499,-0.0013309054775163531,-0.01756795309484005,0.0010647244052961469
17758417638937,2.2852654457092285,-8.815450668334961,4.009090900421143,0.0015970865497365594,-0.015172322280704975,0.0007985432748682797
17758418876062,2.2397756576538086,-8.790311813354492,4.0749311447143555,0.0002661811013240367,-0.01996358297765255,0.0018632676219567657
17758420113200,2.2804770469665527,-8.813056945800781,4.035427093505859,-0.0002661811013240367,-0.01463996060192585,-0.0013309054775163531
17758421350337,2.2685060501098633,-8.801085472106934,4.047398090362549,-0.0018632676219567657,-0.02022976242005825,-0.0026618109550327063
17758422587487,2.2409727573394775,-8.78312873840332,4.077325344085693,-0.0018632676219567657,-0.01836649514734745,-0.0023956298828125
17758423824600,2.3127989768981934,-8.789114952087402,4.022258758544922,-0.0031941730994731188,-0.01650322787463665,-0.0013309054775163531
17758425061737,2.2637176513671875,-8.772355079650879,4.036623954772949,-0.0023956298828125,-0.0186326764523983,0.0
17758426298862,2.279279947280884,-8.786720275878906,4.065354347229004,-0.00452507846057415,-0.01703559048473835,-0.0021294488105922937
17758427536012,2.230198860168457,-8.8070707321167,4.035427093505859,-0.003460354171693325,-0.01996358297765255,0.0031941730994731188
17758428773150,2.275688648223877,-8.801085472106934,4.005499362945557,-0.0005323622026480734,-0.0196974016726017,0.005589802749454975
17758430010275,2.2182278633117676,-8.831012725830078,4.047398090362549,-0.0039927163161337376,-0.01703559048473835,0.0018632676219567657
