timestamp_ns,accel_x,accel_y,accel_z,gyro_x,gyro_y,gyro_z
18049303625575,1.4185645580291748,-9.427168846130371,3.1663317680358887,-0.02848137728869915,0.0689409002661705,-0.015438503585755825
18049304862850,1.4113819599151611,-9.408015251159668,3.1723172664642334,-0.02608574740588665,0.0625525563955307,-0.00984870083630085
18049306100112,1.4018051624298096,-9.35773754119873,3.185485363006592,-0.02262539230287075,0.0612216517329216,-0.004791259765625
18049307337400,1.3994109630584717,-9.364919662475586,3.1711201667785645,-0.02422248013317585,0.0702718123793602,-0.006122165359556675
18049308574675,1.4089877605438232,-9.369708061218262,3.1435868740081787,-0.02848137728869915,0.0657467320561409,-0.010913425125181675
18049309811950,1.3838485479354858,-9.386467933654785,3.1687259674072266,-0.0322079136967659,0.0646820068359375,-0.00931633822619915
18049311049212,1.3934253454208374,-9.32541561126709,3.1495723724365234,-0.0282151959836483,0.0625525563955307,-0.01171196810901165
18049312286500,1.3922282457351685,-9.355342864990234,3.2142157554626465,-0.02901373989880085,0.0593583844602108,-0.008251613937318325
18049313523775,1.4113819599151611,-9.375694274902344,3.1723172664642334,-0.0343373604118824,0.0548333041369915,-0.013309055007994175
18049314761050,1.4113819599151611,-9.385271072387695,3.136404275894165,-0.0351359061896801,0.0609554722905159,-0.0138414166867733
18049315998325,1.382651448249817,-9.38048267364502,3.181894063949585,-0.0340711809694767,0.0614878311753273,-0.0077192517928779125
18049317235612,1.3766659498214722,-9.435548782348633,3.1040825843811035,-0.02794901467859745,0.0545671246945858,-0.010913425125181675
18049318472875,1.3994109630584717,-9.435548782348633,3.1256303787231445,-0.0330064557492733,0.0521714948117733,-0.010913425125181675
18049319710150,1.3706804513931274,-9.406818389892578,3.1196448802948,-0.0369991734623909,0.0511067695915699,-0.008783976547420025
18049320947412,1.3994109630584717,-9.398438453674316,3.116053581237793,-0.0367329902946949,0.0537685826420784,-0.01171196810901165
18049322184700,1.4317326545715332,-9.387664794921875,3.139995574951172,-0.0343373604118824,0.0500420443713665,-0.010647243820130825
18049323421975,1.4472949504852295,-9.408015251159668,3.098097085952759,-0.0319417305290699,0.0436537005007267,-0.008251613937318325
18049324659225,1.3934253454208374,-9.386467933654785,3.139995574951172,-0.0343373604118824,0.0492435023188591,-0.01463996060192585
18049325896512,1.3658920526504517,-9.387664794921875,3.1435868740081787,-0.0356682650744915,0.0500420443713665,-0.01597086526453495
18049327133787,1.382651448249817,-9.368511199951172,3.1004912853240967,-0.0364668108522892,0.0497758649289608,-0.0114457868039608
18049328371062,1.3850456476211548,-9.348160743713379,3.155557870864868,-0.0385962575674057,0.0495096817612648,-0.01756795309484005
18049329608337,1.3886369466781616,-9.379284858703613,3.1244332790374756,-0.0372653529047966,0.0487111397087574,-0.01889885775744915
18049330845625,1.3694833517074585,-9.36013126373291,3.1208419799804688,-0.0372653529047966,0.0449846051633358,-0.013309055007994175
18049332082900,1.3658920526504517,-9.340977668762207,3.094505786895752,-0.0393948033452034,0.0452507846057415,-0.0186326764523983
18049333320162,1.3682862520217896,-9.315838813781738,3.1064767837524414,-0.0396609827876091,0.0468478724360466,-0.013309055007994175
18049334557437,1.3491326570510864,-9.338583946228027,3.117250680923462,-0.038063894957304,0.0423227921128273,-0.012776692397892475
18049335794725,1.4173674583435059,-9.318233489990234,3.117250680923462,-0.0354020856320858,0.0396609827876091,-0.0119781494140625
18049337031975,1.4257471561431885,-9.271546363830566,3.118447780609131,-0.0372653529047966,0.0385962575674057,-0.010114881210029125
18049338269262,1.4329297542572021,-9.321824073791504,3.1208419799804688,-0.0388624407351017,0.038330078125,-0.0077192517928779125
18049339506550,1.4233529567718506,-9.249998092651367,3.118447780609131,-0.0407257080078125,0.0396609827876091,-0.014906140975654125
18049340743825,1.4401123523712158,-9.259574890136719,3.1004912853240967,-0.0362006276845932,0.0388624407351017,-0.01650322787463665
18049341981087,1.4305355548858643,-9.273940086364746,3.095702886581421,-0.0348697230219841,0.0364668108522892,-0.0204959437251091
18049343218350,1.4089877605438232,-9.210494041442871,3.1040825843811035,-0.0359344482421875,0.0354020856320858,-0.01943122036755085
18049344455637,1.3922282457351685,-9.248801231384277,3.089717388153076,-0.0367329902946949,0.0364668108522892,-0.015172322280704975
18049345692937,1.4257471561431885,-9.26675796508789,3.069366693496704,-0.038330078125,0.0324740931391716,-0.01650322787463665
18049346930187,1.4293384552001953,-9.258378028869629,3.0789434909820557,-0.02901373989880085,0.02608574740588665,-0.0138414166867733
18049348167462,1.4209587574005127,-9.229647636413574,3.09689998626709,-0.0306108258664608,0.02874755859375,-0.014373779296875
18049349404725,1.4053964614868164,-9.23443603515625,3.137601375579834,-0.0316755510866642,0.0316755510866642,-0.01650322787463665
18049350642025,1.4532804489135742,-9.168595314025879,3.1280245780944824,-0.033272635191679,0.0319417305290699,-0.02022976242005825
18049351879287,1.3838485479354858,-9.185355186462402,3.0849289894104004,-0.02874755859375,0.02848137728869915,-0.02076212503015995
18049353116562,1.4257471561431885,-9.162610054016113,3.1028854846954346,-0.02848137728869915,0.02661811001598835,-0.01171196810901165
18049354353837,1.3922282457351685,-9.1662015914917,3.1016883850097656,-0.0263519287109375,0.0252872034907341,-0.0066545275039970875
18049355591100,1.4065935611724854,-9.173383712768555,3.1064767837524414,-0.0247548408806324,0.02848137728869915,-0.012510511092841625
18049356828387,1.416170358657837,-9.14225959777832,3.1256303787231445,-0.02315775491297245,0.02794901467859745,-0.0162370465695858
18049358065662,1.416170358657837,-9.184157371520996,3.0813376903533936,-0.0173017717897892,0.0181003138422966,-0.014373779296875
18049359302950,1.4437036514282227,-9.120711326599121,3.0561985969543457,-0.01463996060192585,0.0196974016726017,-0.013042873702943325
18049360540212,1.4089877605438232,-9.147047996520996,3.1052796840667725,-0.0186326764523983,0.02129448764026165,-0.010647243820130825
18049361777487,1.41257905960083,-9.14225959777832,3.093308687210083,-0.01783413253724575,0.0157046839594841,-0.013042873702943325
18049363014750,1.4293384552001953,-9.135076522827148,3.0861260890960693,-0.010913425125181675,0.01357523538172245,-0.008517795242369175
18049364252025,1.4437036514282227,-9.170989990234375,3.094505786895752,-0.0077192517928779125,0.0138414166867733,-0.0138414166867733
18049365489312,1.4209587574005127,-9.174580574035645,3.0442276000976562,-0.010647243820130825,0.014906140975654125,-0.0066545275039970875
18049366726587,1.3850456476211548,-9.181763648986816,3.0573956966400146,-0.004791259765625,0.013309055007994175,-0.00931633822619915
18049367963850,1.4221558570861816,-9.168595314025879,3.093308687210083,-0.006122165359556675,0.00931633822619915,-0.00958251953125
18049369201137,1.3623007535934448,-9.20211410522461,3.070563793182373,-0.0029279920272529125,0.01117960549890995,-0.005589802749454975
18049370438400,1.380257248878479,-9.17817211151123,3.113659381866455,-0.0053236219100654125,0.01410759799182415,-0.004791259765625
18049371675687,1.3718775510787964,-9.204508781433105,3.027467966079712,-0.00452507846057415,0.012510511092841625,-0.008251613937318325
18049372912950,1.3862427473068237,-9.232041358947754,3.0573956966400146,-0.0007985432748682797,0.0090501569211483,-0.01171196810901165
18049374150225,1.3970166444778442,-9.20211410522461,3.068169593811035,0.0010647244052961469,0.007453070487827063,-0.00931633822619915
18049375387512,1.4233529567718506,-9.192537307739258,3.0597898960113525,0.0039927163161337376,0.008251613937318325,-0.008251613937318325
18049376624800,1.3706804513931274,-9.193734169006348,3.1004912853240967,0.0026618109550327063,0.0063883461989462376,-0.00692070834338665
18049377862050,1.3838485479354858,-9.239224433898926,3.1028854846954346,-0.0013309054775163531,0.005589802749454975,-0.004791259765625
18049379099337,1.434126853942871,-9.227252960205078,3.072957992553711,-0.0015970865497365594,0.0021294488105922937,-0.00692070834338665
18049380336625,1.3898340463638306,-9.226056098937988,3.098097085952759,-0.0002661811013240367,0.0018632676219567657,-0.0053236219100654125
18049381573887,1.4101848602294922,-9.244012832641602,3.094505786895752,0.0042588976211845875,0.0018632676219567657,-0.00452507846057415
18049382811162,1.4030022621154785,-9.23323917388916,3.0442276000976562,0.0042588976211845875,0.0031941730994731188,-0.0015970865497365594
18049384048437,1.4209587574005127,-9.197325706481934,3.0621840953826904,0.0029279920272529125,0.0018632676219567657,0.0013309054775163531
18049385285712,1.4101848602294922,-9.245209693908691,3.0885202884674072,0.003460354171693325,-0.0023956298828125,-0.005589802749454975
18049386522975,1.4089877605438232,-9.254786491394043,3.0550014972686768,0.00692070834338665,-0.010647243820130825,-0.0090501569211483
18049387760262,1.414973258972168,-9.226056098937988,3.0621840953826904,0.005855984054505825,-0.01224433071911335,0.0002661811013240367
18049388997550,1.4496891498565674,-9.238027572631836,3.0178911685943604,0.008251613937318325,-0.010114881210029125,0.0021294488105922937
18049390234812,1.4245500564575195,-9.23443603515625,3.0585927963256836,0.0090501569211483,-0.005589802749454975,-0.0114457868039608
18049391472087,1.3766659498214722,-9.222464561462402,3.069366693496704,0.010913425125181675,-0.008783976547420025,-0.0007985432748682797
18049392709375,1.3994109630584717,-9.239224433898926,3.0346505641937256,0.008783976547420025,-0.010913425125181675,0.0007985432748682797
18049393946650,1.3766659498214722,-9.29069995880127,3.046621799468994,0.0053236219100654125,-0.00958251953125,-0.003460354171693325
18049395183912,1.381454348564148,-9.306262016296387,3.0777463912963867,0.00931633822619915,-0.012510511092841625,-0.0077192517928779125
18049396421187,1.4293384552001953,-9.261969566345215,3.072957992553711,0.005057440605014563,-0.01410759799182415,-0.0063883461989462376
18049397658450,1.4065935611724854,-9.287108421325684,3.0346505641937256,0.0066545275039970875,-0.01224433071911335,-0.0007985432748682797
18049398895737,1.4053964614868164,-9.300276756286621,3.0609869956970215,0.0119781494140625,-0.012510511092841625,-0.010913425125181675
18049400133025,1.3754688501358032,-9.26795482635498,3.114856481552124,0.010913425125181675,-0.008251613937318325,-0.014373779296875
18049401370275,1.3527239561080933,-9.263166427612305,3.0777463912963867,0.013309055007994175,-0.01703559048473835,-0.008517795242369175
18049402607537,1.3946224451065063,-9.271546363830566,3.0585927963256836,0.01357523538172245,-0.0173017717897892,-0.0039927163161337376
18049403844850,1.3946224451065063,-9.242815971374512,3.069366693496704,0.010381062515079975,-0.0157046839594841,-0.0021294488105922937
18049405082112,1.3982137441635132,-9.247604370117188,3.0825347900390625,0.013309055007994175,-0.02129448764026165,-0.00692070834338665
18049406319387,1.3946224451065063,-9.285911560058594,3.0418334007263184,0.01224433071911335,-0.02555338479578495,-0.005855984054505825
18049407556662,1.37906014919281,-9.245209693908691,3.0131027698516846,0.014373779296875,-0.02182685025036335,-0.0053236219100654125
18049408793937,1.41257905960083,-9.294291496276855,3.1076738834381104,0.014906140975654125,-0.02262539230287075,-0.0010647244052961469
18049410031225,1.4317326545715332,-9.246407508850098,3.09689998626709,0.01410759799182415,-0.023956298828125,-0.0010647244052961469
18049411268475,1.3898340463638306,-9.229647636413574,3.0358476638793945,0.012510511092841625,-0.0263519287109375,-0.005589802749454975
18049412505775,1.434126853942871,-9.259574890136719,3.090914487838745,0.005589802749454975,-0.02422248013317585,-0.00692070834338665
18049413743012,1.4269442558288574,-9.218873977661133,3.0837318897247314,0.00984870083630085,-0.02661811001598835,-0.0063883461989462376
18049414980312,1.4209587574005127,-9.23682975769043,3.093308687210083,0.013309055007994175,-0.0271504707634449,-0.008251613937318325
18049416217587,1.4269442558288574,-9.230844497680664,3.0861260890960693,0.01357523538172245,-0.0258195661008358,-0.0053236219100654125
18049417454875,1.4520833492279053,-9.244012832641602,3.0597898960113525,0.0138414166867733,-0.0322079136967659,-0.0031941730994731188
18049418692137,1.4460978507995605,-9.23563289642334,3.1064767837524414,0.013309055007994175,-0.0348697230219841,-0.0066545275039970875
18049419929412,1.4449007511138916,-9.214085578918457,3.1507694721221924,0.0191650390625,-0.0346035435795784,-0.0026618109550327063
18049421166700,1.4413094520568848,-9.246407508850098,3.072957992553711,0.0167694091796875,-0.0375315360724926,-0.008251613937318325
18049422403962,1.4389152526855469,-9.239224433898926,3.089717388153076,0.0167694091796875,-0.0311431884765625,-0.0071868896484375
18049423641237,1.4401123523712158,-9.257181167602539,3.1304187774658203,0.01703559048473835,-0.0338049978017807,-0.010114881210029125
18049424878512,1.380257248878479,-9.245209693908691,3.1208419799804688,0.02076212503015995,-0.0385962575674057,-0.007985432632267475
18049426115787,1.381454348564148,-9.23443603515625,3.0849289894104004,0.02129448764026165,-0.038330078125,-0.00931633822619915
18049427353075,1.4030022621154785,-9.251195907592773,3.0801405906677246,0.01996358297765255,-0.042855154722929,-0.010114881210029125
18049428590350,1.414973258972168,-9.217676162719727,3.0645782947540283,0.0186326764523983,-0.0433875173330307,-0.01117960549890995
18049429827612,1.4317326545715332,-9.224859237670898,3.159149169921875,0.0210283063352108,-0.0417904332280159,-0.00984870083630085
18049431064887,1.460463047027588,-9.221267700195312,3.1268274784088135,0.023956298828125,-0.0455169677734375,-0.00984870083630085
18049432302175,1.4233529567718506,-9.239224433898926,3.1316158771514893,0.0234239362180233,-0.0473802350461483,-0.0066545275039970875
18049433539425,1.3982137441635132,-9.239224433898926,3.1471781730651855,0.02555338479578495,-0.0521714948117733,-0.007453070487827063
18049434776712,1.436521053314209,-9.240421295166016,3.139995574951172,0.0268842913210392,-0.047646414488554,-0.00692070834338665
18049436013975,1.434126853942871,-9.223662376403809,3.1483752727508545,0.0282151959836483,-0.0471140518784523,-0.010647243820130825
18049437251250,1.459265947341919,-9.23563289642334,3.1256303787231445,0.02661811001598835,-0.0516391322016716,-0.0090501569211483
18049438488550,1.4688427448272705,-9.232041358947754,3.1316158771514893,0.0268842913210392,-0.0529700368642807,-0.01117960549890995
18049439725837,1.456871747970581,-9.239224433898926,3.1028854846954346,0.0306108258664608,-0.0511067695915699,-0.008251613937318325
18049440963087,1.4437036514282227,-9.25598430633545,3.138798475265503,0.0348697230219841,-0.0537685826420784,-0.014906140975654125
18049442200375,1.4101848602294922,-9.260772705078125,3.1028854846954346,0.0300784632563591,-0.0566965714097023,-0.0157046839594841
18049443437662,1.4245500564575195,-9.263166427612305,3.1076738834381104,0.02502102218568325,-0.0519053116440773,-0.0138414166867733
18049444674925,1.4053964614868164,-9.245209693908691,3.138798475265503,0.0282151959836483,-0.0574951171875,-0.0114457868039608
18049445912200,1.3982137441635132,-9.270349502563477,3.161543369293213,0.0327402763068676,-0.0617540143430233,-0.0114457868039608
18049447149462,1.434126853942871,-9.241618156433105,3.1507694721221924,0.02848137728869915,-0.0609554722905159,-0.010381062515079975
18049448386750,1.413776159286499,-9.247604370117188,3.163937568664551,0.0311431884765625,-0.0543009415268898,-0.01171196810901165
18049449624025,1.3623007535934448,-9.261969566345215,3.161543369293213,0.02981228195130825,-0.0558980293571949,-0.014373779296875
18049450861300,1.37906014919281,-9.26675796508789,3.1471781730651855,0.0314093679189682,-0.0601569265127182,-0.00692070834338665
18049452098562,1.3862427473068237,-9.295488357543945,3.1471781730651855,0.0300784632563591,-0.0580274797976017,-0.013042873702943325
18049453335837,1.3874398469924927,-9.26795482635498,3.137601375579834,0.02741665206849575,-0.062286376953125,-0.0090501569211483
18049454573125,1.4053964614868164,-9.278728485107422,3.138798475265503,0.0348697230219841,-0.0694732666015625,-0.008251613937318325
18049455810387,1.4425065517425537,-9.313445091247559,3.132812976837158,0.0311431884765625,-0.066545270383358,-0.0114457868039608
18049457047662,1.4832079410552979,-9.283516883850098,3.068169593811035,0.033272635191679,-0.0641496405005455,-0.01410759799182415
18049458284950,1.459265947341919,-9.29069995880127,3.1423897743225098,0.0340711809694767,-0.0654805526137352,-0.012510511092841625
18049459522212,1.4221558570861816,-9.295488357543945,3.156754970550537,0.0367329902946949,-0.0660129114985466,-0.012776692397892475
18049460759500,1.3694833517074585,-9.308656692504883,3.1435868740081787,0.0348697230219841,-0.0668114572763443,-0.0162370465695858
18049461996775,1.3706804513931274,-9.277531623840332,3.184288263320923,0.0367329902946949,-0.0702718123793602,-0.0119781494140625
18049463234050,1.334767460823059,-9.276334762573242,3.162740468978882,0.0377977155148983,-0.0694732666015625,-0.010913425125181675
18049464471325,1.359906554222107,-9.260772705078125,3.159149169921875,0.0351359061896801,-0.0694732666015625,-0.0119781494140625
18049465708587,1.3611036539077759,-9.288305282592773,3.1914708614349365,0.0412580706179142,-0.0694732666015625,-0.0090501569211483
18049466945862,1.2808979749679565,-9.294291496276855,3.207033157348633,0.0407257080078125,-0.0705379918217659,-0.0039927163161337376
18049468183150,1.3299790620803833,-9.288305282592773,3.1687259674072266,0.0404595248401165,-0.0739983469247818,-0.004791259765625
18049469420425,1.3539210557937622,-9.283516883850098,3.1723172664642334,0.0409918874502182,-0.0734659805893898,-0.00692070834338665
18049470657700,1.3778630495071411,-9.29189682006836,3.1950621604919434,0.0364668108522892,-0.0726674422621727,-0.0077192517928779125
18049471894987,1.3766659498214722,-9.28950309753418,3.1962592601776123,0.043121337890625,-0.0731998011469841,-0.0042588976211845875
18049473132250,1.3778630495071411,-9.251195907592773,3.161543369293213,0.0351359061896801,-0.0729336217045784,-0.0071868896484375
18049474369525,1.3742717504501343,-9.284714698791504,3.1435868740081787,0.0404595248401165,-0.0726674422621727,-0.0053236219100654125
18049475606800,1.357512354850769,-9.278728485107422,3.1699230670928955,0.0463155098259449,-0.076127789914608,-0.0071868896484375
18049476844062,1.382651448249817,-9.29189682006836,3.156754970550537,0.0385962575674057,-0.0742645263671875,-0.00692070834338665
18049478081362,1.359906554222107,-9.297882080078125,3.118447780609131,0.0436537005007267,-0.0742645263671875,-0.005589802749454975
18049479318637,1.4113819599151611,-9.327810287475586,3.160346269607544,0.0417904332280159,-0.071336530148983,-0.005589802749454975
18049480555900,1.4209587574005127,-9.32421875,3.135207176208496,0.0362006276845932,-0.0689409002661705,-0.0063883461989462376
18049481793175,1.3766659498214722,-9.307458877563477,3.179499864578247,0.0425889752805233,-0.0750630721449852,-0.00958251953125
18049483030450,1.4173674583435059,-9.339780807495117,3.1866824626922607,0.0460493303835392,-0.0750630721449852,-0.0042588976211845875
18049484267737,1.3994109630584717,-9.346963882446289,3.162740468978882,0.0388624407351017,-0.0729336217045784,-0.0071868896484375
18049485505012,1.3922282457351685,-9.344569206237793,3.160346269607544,0.0362006276845932,-0.0724012553691864,-0.010381062515079975
18049486742262,1.357512354850769,-9.35773754119873,3.251325845718384,0.0375315360724926,-0.0734659805893898,-0.010913425125181675
18049487979562,1.337161660194397,-9.390059471130371,3.2369606494903564,0.0377977155148983,-0.0678761824965477,-0.008783976547420025
18049489216837,1.3407529592514038,-9.39365005493164,3.1914708614349365,0.0409918874502182,-0.0729336217045784,-0.004791259765625
18049490454112,1.3467384576797485,-9.427168846130371,3.1531636714935303,0.038330078125,-0.0793219655752182,-0.0071868896484375
18049491691387,1.3335703611373901,-9.404424667358398,3.247734546661377,0.0396609827876091,-0.0763939768075943,-0.012776692397892475
18049492928650,1.3204022645950317,-9.397241592407227,3.2106244564056396,0.0369991734623909,-0.0758616104722023,-0.0119781494140625
18049494165937,1.3239935636520386,-9.422380447387695,3.1962592601776123,0.0354020856320858,-0.0716027170419693,-0.010381062515079975
18049495403200,1.2976573705673218,-9.418789863586426,3.220201253890991,0.0356682650744915,-0.071336530148983,-0.008783976547420025
18049496640487,1.3000515699386597,-9.378087997436523,3.1747114658355713,0.0348697230219841,-0.0769263356924057,-0.00984870083630085
18049497877775,1.2892776727676392,-9.370905876159668,3.205836057662964,0.0351359061896801,-0.0811852365732193,-0.013042873702943325
18049499115037,1.337161660194397,-9.378087997436523,3.2166099548339844,0.0319417305290699,-0.0742645263671875,-0.010381062515079975
18049500352312,1.3754688501358032,-9.35654067993164,3.205836057662964,0.0324740931391716,-0.0710703507065773,-0.01783413253724575
18049501589562,1.3958195447921753,-9.372102737426758,3.162740468978882,0.033538818359375,-0.0763939768075943,-0.01996358297765255
18049502826862,1.37906014919281,-9.376891136169434,3.157952070236206,0.0367329902946949,-0.0763939768075943,-0.015438503585755825
18049504064125,1.3527239561080933,-9.32541561126709,3.222595453262329,0.033538818359375,-0.0785234197974205,-0.0167694091796875
18049505301412,1.3323732614517212,-9.317035675048828,3.222595453262329,0.0324740931391716,-0.0734659805893898,-0.01650322787463665
18049506538712,1.335964560508728,-9.331400871276855,3.1938650608062744,0.0319417305290699,-0.0716027170419693,-0.0119781494140625
18049507775975,1.3443442583084106,-9.354146003723145,3.184288263320923,0.033538818359375,-0.0734659805893898,-0.01410759799182415
18049509013237,1.357512354850769,-9.313445091247559,3.203441858291626,0.02981228195130825,-0.0689409002661705,-0.0138414166867733
18049510250512,1.3335703611373901,-9.312247276306152,3.2082302570343018,0.0282151959836483,-0.0678761824965477,-0.008517795242369175
18049511487787,1.3335703611373901,-9.296685218811035,3.251325845718384,0.0316755510866642,-0.0692070871591568,-0.01171196810901165
18049512725062,1.3299790620803833,-9.332598686218262,3.2190041542053223,0.0322079136967659,-0.0681423619389534,-0.0138414166867733
18049513962337,1.3527239561080933,-9.312247276306152,3.264493942260742,0.0306108258664608,-0.0724012553691864,-0.01171196810901165
18049515199600,1.3096283674240112,-9.272743225097656,3.2417490482330322,0.03034464456140995,-0.0697394460439682,-0.010647243820130825
18049516436887,1.3563152551651,-9.300276756286621,3.2297780513763428,0.033272635191679,-0.0668114572763443,-0.007985432632267475
18049517674175,1.3742717504501343,-9.3026704788208,3.2297780513763428,0.02981228195130825,-0.0673438161611557,-0.012510511092841625
18049518911450,1.3527239561080933,-9.263166427612305,3.1962592601776123,0.02661811001598835,-0.0681423619389534,-0.01410759799182415
18049520148712,1.3275848627090454,-9.308656692504883,3.250128746032715,0.02848137728869915,-0.0676099956035614,-0.014373779296875
18049521386012,1.3634978532791138,-9.337387084960938,3.2525229454040527,0.0311431884765625,-0.0644158273935318,-0.01650322787463665
18049522623262,1.3682862520217896,-9.331400871276855,3.2106244564056396,0.0300784632563591,-0.0646820068359375,-0.01357523538172245
18049523860537,1.3491326570510864,-9.311050415039062,3.2106244564056396,0.0276828333735466,-0.0636172816157341,-0.01224433071911335
18049525097825,1.3682862520217896,-9.317035675048828,3.2190041542053223,0.02981228195130825,-0.0657467320561409,-0.0090501569211483
18049526335100,1.3898340463638306,-9.342175483703613,3.2597055435180664,0.0322079136967659,-0.0644158273935318,-0.01117960549890995
18049527572362,1.3682862520217896,-9.345766067504883,3.2369606494903564,0.02981228195130825,-0.0646820068359375,-0.01117960549890995
18049528809637,1.3551181554794312,-9.313445091247559,3.2393548488616943,0.02874755859375,-0.0636172816157341,-0.0071868896484375
18049530046912,1.4053964614868164,-9.336189270019531,3.294421672821045,0.0351359061896801,-0.0654805526137352,-0.0071868896484375
18049531284187,1.3706804513931274,-9.369708061218262,3.2752678394317627,0.02981228195130825,-0.0636172816157341,-0.01357523538172245
18049532521450,1.3527239561080933,-9.35654067993164,3.289633274078369,0.02981228195130825,-0.052703857421875,-0.013042873702943325
18049533758750,1.3467384576797485,-9.346963882446289,3.2537200450897217,0.0292799212038517,-0.0596245639026165,-0.0173017717897892
18049534996025,1.3251906633377075,-9.327810287475586,3.264493942260742,0.0271504707634449,-0.062020193785429,-0.0167694091796875
18049536233300,1.3754688501358032,-9.351752281188965,3.2357635498046875,0.0276828333735466,-0.0577612966299057,-0.007985432632267475
18049537470562,1.3742717504501343,-9.363722801208496,3.2776620388031006,0.02901373989880085,-0.0558980293571949,-0.010114881210029125
18049538707850,1.3467384576797485,-9.385271072387695,3.289633274078369,0.0247548408806324,-0.0582936592400074,-0.007985432632267475
18049539945112,1.3443442583084106,-9.355342864990234,3.2836475372314453,0.02502102218568325,-0.0596245639026165,-0.0077192517928779125
18049541182387,1.3563152551651,-9.376891136169434,3.270479440689087,0.02555338479578495,-0.0601569265127182,-0.008251613937318325
18049542419650,1.3970166444778442,-9.354146003723145,3.2357635498046875,0.02608574740588665,-0.0598907470703125,-0.0090501569211483
18049543656937,1.357512354850769,-9.344569206237793,3.2321722507476807,0.0228915736079216,-0.0588260218501091,-0.00931633822619915
18049544894225,1.3623007535934448,-9.35773754119873,3.2609026432037354,0.02315775491297245,-0.0574951171875,-0.0090501569211483
18049546131487,1.3204022645950317,-9.329007148742676,3.224989652633667,0.02315775491297245,-0.0561642125248909,-0.010381062515079975
18049547368775,1.3215993642807007,-9.351752281188965,3.2369606494903564,0.02182685025036335,-0.0508405901491642,-0.007985432632267475
18049548606050,1.3215993642807007,-9.364919662475586,3.2405519485473633,0.01889885775744915,-0.0532362200319767,-0.00931633822619915
18049549843325,1.358709454536438,-9.333795547485352,3.250128746032715,0.01996358297765255,-0.052703857421875,-0.0039927163161337376
18049551080600,1.358709454536438,-9.345766067504883,3.24414324760437,0.015172322280704975,-0.0535023994743824,-0.005855984054505825
18049552317887,1.3395558595657349,-9.338583946228027,3.246537446975708,0.01756795309484005,-0.0481787770986557,-0.0066545275039970875
18049553555162,1.314416766166687,-9.378087997436523,3.2405519485473633,0.0247548408806324,-0.0468478724360466,0.0005323622026480734
18049554792437,1.3623007535934448,-9.35773754119873,3.2764649391174316,0.0196974016726017,-0.0452507846057415,-0.0039927163161337376
18049556029712,1.3646949529647827,-9.38167953491211,3.26688814163208,0.01783413253724575,-0.0447184219956398,-0.0007985432748682797
18049557266975,1.359906554222107,-9.398438453674316,3.269282341003418,0.014373779296875,-0.0399271659553051,-0.0066545275039970875
18049558504262,1.3287819623947144,-9.39245319366455,3.24414324760437,0.01756795309484005,-0.0441860631108284,-0.00692070834338665
18049559741525,1.3778630495071411,-9.402029991149902,3.2860419750213623,0.012776692397892475,-0.0455169677734375,-0.0007985432748682797
18049560978800,1.3754688501358032,-9.412803649902344,3.2848448753356934,0.012776692397892475,-0.0447184219956398,0.0015970865497365594
18049562216087,1.3419500589370728,-9.374496459960938,3.2776620388031006,0.01171196810901165,-0.0412580706179142,-0.0010647244052961469
18049563453350,1.3658920526504517,-9.429563522338867,3.3195607662200928,0.0090501569211483,-0.0409918874502182,0.0005323622026480734
18049564690625,1.334767460823059,-9.384073257446289,3.2609026432037354,0.00984870083630085,-0.0393948033452034,0.0015970865497365594
18049565927925,1.4077906608581543,-9.424775123596191,3.251325845718384,0.013309055007994175,-0.0415242500603199,0.0002661811013240367
18049567165187,1.3898340463638306,-9.429563522338867,3.265691041946411,0.01171196810901165,-0.0393948033452034,0.0018632676219567657
18049568402462,1.4006080627441406,-9.427168846130371,3.2884361743927,0.010114881210029125,-0.0452507846057415,0.0010647244052961469
18049569639737,1.3658920526504517,-9.436745643615723,3.2573113441467285,0.0039927163161337376,-0.0409918874502182,-0.0010647244052961469
18049570877025,1.3958195447921753,-9.428366661071777,3.2740707397460938,0.00958251953125,-0.0356682650744915,-0.0021294488105922937
18049572114275,1.3922282457351685,-9.366117477416992,3.292027473449707,0.007985432632267475,-0.0319417305290699,-0.0021294488105922937
18049573351562,1.3910311460494995,-9.412803649902344,3.289633274078369,0.0066545275039970875,-0.0351359061896801,0.0002661811013240367
18049574588825,1.3658920526504517,-9.436745643615723,3.3028013706207275,0.0023956298828125,-0.0425889752805233,0.0023956298828125
18049575826112,1.3838485479354858,-9.398438453674316,3.2393548488616943,0.0015970865497365594,-0.0354020856320858,0.0063883461989462376
18049577063387,1.3623007535934448,-9.399636268615723,3.2130186557769775,0.0031941730994731188,-0.0314093679189682,0.008783976547420025
18049578300637,1.3431471586227417,-9.422380447387695,3.2417490482330322,0.004791259765625,-0.0372653529047966,0.00931633822619915
18049579537950,1.3491326570510864,-9.386467933654785,3.2860419750213623,-0.0015970865497365594,-0.038063894957304,0.005589802749454975
18049580775200,1.3563152551651,-9.404424667358398,3.2166099548339844,-0.0015970865497365594,-0.03034464456140995,0.007985432632267475
18049582012500,1.3682862520217896,-9.374496459960938,3.2345664501190186,0.0005323622026480734,-0.0300784632563591,0.004791259765625
18049583249775,1.3682862520217896,-9.350554466247559,3.2537200450897217,-0.005589802749454975,-0.0311431884765625,0.00692070834338665
18049584487037,1.338358759880066,-9.363722801208496,3.2345664501190186,-0.007985432632267475,-0.0319417305290699,0.008783976547420025
18049585724300,1.3311761617660522,-9.36013126373291,3.2190041542053223,-0.0013309054775163531,-0.0372653529047966,0.010381062515079975
18049586961587,1.3455413579940796,-9.390059471130371,3.228580951690674,-0.0026618109550327063,-0.0367329902946949,0.0071868896484375
18049588198875,1.3287819623947144,-9.406818389892578,3.2333693504333496,-0.005855984054505825,-0.0300784632563591,0.008517795242369175
18049589436150,1.338358759880066,-9.374496459960938,3.246537446975708,-0.00692070834338665,-0.0282151959836483,0.010913425125181675
18049590673412,1.3443442583084106,-9.362525939941406,3.2405519485473633,-0.01117960549890995,-0.0292799212038517,0.010381062515079975
18049591910700,1.3491326570510864,-9.394847869873047,3.242946147918701,-0.008783976547420025,-0.0292799212038517,0.0090501569211483
18049593147975,1.3527239561080933,-9.375694274902344,3.2872390747070312,-0.00931633822619915,-0.023956298828125,0.00958251953125
18049594385250,1.3419500589370728,-9.355342864990234,3.1926679611206055,-0.01171196810901165,-0.023956298828125,0.014906140975654125
18049595622512,1.3718775510787964,-9.373299598693848,3.245340347290039,-0.01117960549890995,-0.0263519287109375,0.0138414166867733
18049596859812,1.381454348564148,-9.386467933654785,3.1866824626922607,-0.01357523538172245,-0.0244886614382267,0.01224433071911335
18049598097075,1.3623007535934448,-9.375694274902344,3.247734546661377,-0.01357523538172245,-0.0263519287109375,0.00984870083630085
18049599334350,1.3503297567367554,-9.379284858703613,3.2848448753356934,-0.01117960549890995,-0.0186326764523983,0.013042873702943325
18049600571612,1.380257248878479,-9.351752281188965,3.2369606494903564,-0.01357523538172245,-0.0186326764523983,0.0191650390625
18049601808900,1.381454348564148,-9.35893440246582,3.245340347290039,-0.01783413253724575,-0.0258195661008358,0.0191650390625
18049603046175,1.3874398469924927,-9.372102737426758,3.2082302570343018,-0.0173017717897892,-0.02315775491297245,0.0196974016726017
18049604283450,1.3658920526504517,-9.376891136169434,3.242946147918701,-0.01597086526453495,-0.01756795309484005,0.0119781494140625
18049605520737,1.3670891523361206,-9.375694274902344,3.222595453262329,-0.014373779296875,-0.0167694091796875,0.013042873702943325
18049606757987,1.4101848602294922,-9.361329078674316,3.1711201667785645,-0.02076212503015995,-0.02022976242005825,0.01357523538172245
18049607995275,1.3730746507644653,-9.352949142456055,3.2178070545196533,-0.01996358297765255,-0.01783413253724575,0.01597086526453495
18049609232537,1.3742717504501343,-9.390059471130371,3.2154128551483154,-0.01783413253724575,-0.02129448764026165,0.013042873702943325
18049610469837,1.3898340463638306,-9.345766067504883,3.180696964263916,-0.01836649514734745,-0.01889885775744915,0.01463996060192585
18049611707125,1.434126853942871,-9.39365005493164,3.22139835357666,-0.0228915736079216,-0.0186326764523983,0.01357523538172245
18049612944387,1.3850456476211548,-9.36013126373291,3.2130186557769775,-0.0210283063352108,-0.015172322280704975,0.012510511092841625
18049614181650,1.381454348564148,-9.346963882446289,3.1926679611206055,-0.0204959437251091,-0.01996358297765255,0.01463996060192585
18049615418925,1.3874398469924927,-9.375694274902344,3.178302764892578,-0.0191650390625,-0.01996358297765255,0.013042873702943325
18049616656200,1.3994109630584717,-9.35654067993164,3.222595453262329,-0.0220930315554142,-0.01463996060192585,0.0114457868039608
18049617893475,1.3922282457351685,-9.375694274902344,3.2106244564056396,-0.02661811001598835,-0.01410759799182415,0.015438503585755825
18049619130762,1.3934253454208374,-9.314641952514648,3.2333693504333496,-0.02741665206849575,-0.01650322787463665,0.01943122036755085
18049620368037,1.3467384576797485,-9.351752281188965,3.2381577491760254,-0.0252872034907341,-0.01357523538172245,0.01703559048473835
18049621605312,1.3443442583084106,-9.35654067993164,3.1902737617492676,-0.023956298828125,-0.0186326764523983,0.01783413253724575
18049622842587,1.4089877605438232,-9.35654067993164,3.202244758605957,-0.0234239362180233,-0.013309055007994175,0.0162370465695858
18049624079850,1.4018051624298096,-9.348160743713379,3.242946147918701,-0.0268842913210392,-0.010913425125181675,0.0162370465695858
18049625317137,1.3838485479354858,-9.333795547485352,3.224989652633667,-0.02182685025036335,-0.01756795309484005,0.014373779296875
18049626554400,1.382651448249817,-9.351752281188965,3.181894063949585,-0.02502102218568325,-0.01463996060192585,0.0162370465695858
18049627791675,1.3623007535934448,-9.32302188873291,3.1723172664642334,-0.02502102218568325,-0.015438503585755825,0.01889885775744915
18049629028975,1.3754688501358032,-9.3828763961792,3.1687259674072266,-0.0210283063352108,-0.014906140975654125,0.0210283063352108
18049630266225,1.3778630495071411,-9.32302188873291,3.1938650608062744,-0.0244886614382267,-0.012776692397892475,0.0186326764523983
18049631503500,1.4006080627441406,-9.314641952514648,3.177105665206909,-0.0258195661008358,-0.014373779296875,0.0119781494140625
18049632740775,1.3886369466781616,-9.295488357543945,3.1519665718078613,-0.0271504707634449,-0.0138414166867733,0.0138414166867733
18049633978075,1.4101848602294922,-9.320627212524414,3.2369606494903564,-0.0282151959836483,-0.01410759799182415,0.01756795309484005
18049635215337,1.37906014919281,-9.320627212524414,3.184288263320923,-0.0271504707634449,-0.01410759799182415,0.015438503585755825
18049636452612,1.4508862495422363,-9.345766067504883,3.179499864578247,-0.0244886614382267,-0.013042873702943325,0.013309055007994175
18049637689875,1.413776159286499,-9.317035675048828,3.181894063949585,-0.02502102218568325,-0.01117960549890995,0.01783413253724575
18049638927162,1.3934253454208374,-9.329007148742676,3.185485363006592,-0.02794901467859745,-0.01224433071911335,0.01703559048473835
18049640164450,1.3910311460494995,-9.306262016296387,3.1531636714935303,-0.0247548408806324,-0.01703559048473835,0.0157046839594841
18049641401712,1.4077906608581543,-9.32302188873291,3.1675288677215576,-0.02608574740588665,-0.01117960549890995,0.0157046839594841
18049642639000,1.4065935611724854,-9.345766067504883,3.2297780513763428,-0.0306108258664608,-0.00984870083630085,0.0157046839594841
18049643876275,1.414973258972168,-9.32302188873291,3.2130186557769775,-0.02741665206849575,-0.010647243820130825,0.01410759799182415
18049645113550,1.436521053314209,-9.279926300048828,3.1519665718078613,-0.0263519287109375,-0.010381062515079975,0.01783413253724575
18049646350825,1.4269442558288574,-9.355342864990234,3.154360771179199,-0.0292799212038517,-0.01357523538172245,0.01783413253724575
18049647588100,1.3994109630584717,-9.296685218811035,3.1699230670928955,-0.0295461006462574,-0.007985432632267475,0.01783413253724575
18049648825350,1.4089877605438232,-9.28950309753418,3.159149169921875,-0.02369011752307415,-0.010114881210029125,0.02022976242005825
18049650062637,1.4065935611724854,-9.296685218811035,3.1711201667785645,-0.02129448764026165,-0.010381062515079975,0.0167694091796875
18049651299925,1.4113819599151611,-9.312247276306152,3.1663317680358887,-0.02369011752307415,-0.006122165359556675,0.014373779296875
18049652537200,1.4053964614868164,-9.327810287475586,3.1268274784088135,-0.0258195661008358,-0.008783976547420025,0.013309055007994175
18049653774475,1.4041993618011475,-9.303868293762207,3.184288263320923,-0.0295461006462574,-0.008783976547420025,0.01410759799182415
18049655011750,1.4209587574005127,-9.362525939941406,3.1759085655212402,-0.0295461006462574,-0.008783976547420025,0.014373779296875
18049656249025,1.4185645580291748,-9.329007148742676,3.1663317680358887,-0.0311431884765625,-0.0114457868039608,0.0167694091796875
18049657486300,1.4113819599151611,-9.334992408752441,3.163937568664551,-0.0263519287109375,-0.0138414166867733,0.01783413253724575
18049658723587,1.4293384552001953,-9.333795547485352,3.162740468978882,-0.0300784632563591,-0.0114457868039608,0.01597086526453495
18049659960850,1.3886369466781616,-9.276334762573242,3.177105665206909,-0.0295461006462574,-0.013042873702943325,0.014373779296875
18049661198137,1.3694833517074585,-9.311050415039062,3.19865345954895,-0.02794901467859745,-0.0119781494140625,0.010647243820130825
18049662435425,1.3838485479354858,-9.318233489990234,3.1723172664642334,-0.02794901467859745,-0.01171196810901165,0.015172322280704975
18049663672687,1.3742717504501343,-9.26795482635498,3.159149169921875,-0.02981228195130825,-0.0063883461989462376,0.008251613937318325
18049664909950,1.382651448249817,-9.26675796508789,3.1531636714935303,-0.02981228195130825,-0.007985432632267475,0.008517795242369175
18049666147225,1.3479355573654175,-9.279926300048828,3.1316158771514893,-0.02874755859375,-0.005855984054505825,0.0138414166867733
18049667384500,1.3862427473068237,-9.306262016296387,3.1759085655212402,-0.02874755859375,-0.00984870083630085,0.014373779296875
18049668621750,1.4257471561431885,-9.303868293762207,3.070563793182373,-0.02794901467859745,-0.01357523538172245,0.0186326764523983
18049669859062,1.4185645580291748,-9.295488357543945,3.1088709831237793,-0.0263519287109375,-0.010647243820130825,0.015438503585755825
18049671096325,1.4257471561431885,-9.300276756286621,3.0873231887817383,-0.0220930315554142,-0.00931633822619915,0.015172322280704975
18049672333600,1.4197616577148438,-9.314641952514648,3.071760892868042,-0.0210283063352108,-0.008783976547420025,0.015438503585755825
18049673570887,1.3958195447921753,-9.3026704788208,3.1088709831237793,-0.02901373989880085,-0.0021294488105922937,0.0119781494140625
18049674808175,1.3946224451065063,-9.305065155029297,3.114856481552124,-0.03087700717151165,-0.013309055007994175,0.01836649514734745
18049676045450,1.3910311460494995,-9.309853553771973,3.1196448802948,-0.0268842913210392,-0.00931633822619915,0.01703559048473835
18049677282725,1.4089877605438232,-9.32302188873291,3.1256303787231445,-0.0292799212038517,-0.0053236219100654125,0.007453070487827063
18049678520000,1.3682862520217896,-9.32541561126709,3.161543369293213,-0.02741665206849575,-0.006122165359556675,0.010647243820130825
18049679757275,1.3742717504501343,-9.312247276306152,3.1507694721221924,-0.0268842913210392,-0.00931633822619915,0.00958251953125
18049680994550,1.4389152526855469,-9.301473617553711,3.1447839736938477,-0.0223592109978199,-0.01171196810901165,0.01650322787463665
18049682231800,1.4329297542572021,-9.276334762573242,3.1747114658355713,-0.0276828333735466,-0.010114881210029125,0.0173017717897892
18049683469100,1.4065935611724854,-9.319430351257324,3.179499864578247,-0.0295461006462574,-0.007985432632267475,0.012510511092841625
18049684706362,1.3754688501358032,-9.313445091247559,3.1447839736938477,-0.0282151959836483,-0.005589802749454975,0.01171196810901165
18049685943650,1.4077906608581543,-9.25598430633545,3.201047658920288,-0.0271504707634449,-0.0066545275039970875,0.012776692397892475
18049687180912,1.4173674583435059,-9.282320022583008,3.141192674636841,-0.0295461006462574,-0.005057440605014563,0.015172322280704975
18049688418175,1.413776159286499,-9.32541561126709,3.154360771179199,-0.02794901467859745,-0.005589802749454975,0.0119781494140625
18049689655487,1.4053964614868164,-9.295488357543945,3.161543369293213,-0.0306108258664608,-0.00452507846057415,0.01357523538172245
18049690892737,1.416170358657837,-9.277531623840332,3.154360771179199,-0.0300784632563591,-0.010114881210029125,0.013309055007994175
18049692130012,1.436521053314209,-9.297882080078125,3.118447780609131,-0.0268842913210392,-0.013309055007994175,0.01117960549890995
18049693367300,1.4413094520568848,-9.2655611038208,3.116053581237793,-0.02661811001598835,-0.010114881210029125,0.01171196810901165
18049694604562,1.4449007511138916,-9.270349502563477,3.098097085952759,-0.0276828333735466,-0.0063883461989462376,0.01597086526453495
18049695841837,1.4856021404266357,-9.23443603515625,3.113659381866455,-0.02874755859375,-0.0007985432748682797,0.014906140975654125
18049697079125,1.4317326545715332,-9.206902503967285,3.157952070236206,-0.0252872034907341,-0.0031941730994731188,0.01117960549890995
18049698316387,1.4305355548858643,-9.240421295166016,3.1064767837524414,-0.02608574740588665,-0.0037265352439135313,0.013309055007994175
18049699553675,1.4305355548858643,-9.224859237670898,3.112462282180786,-0.02022976242005825,-0.007453070487827063,0.0114457868039608
18049700790950,1.3862427473068237,-9.270349502563477,3.09689998626709,-0.02369011752307415,-0.007453070487827063,0.01224433071911335
18049702028212,1.3922282457351685,-9.271546363830566,3.137601375579834,-0.02076212503015995,-0.005855984054505825,0.015172322280704975
18049703265500,1.3670891523361206,-9.242815971374512,3.156754970550537,-0.02182685025036335,-0.008517795242369175,0.014373779296875
18049704502775,1.3778630495071411,-9.220070838928223,3.1459810733795166,-0.0215606689453125,-0.007453070487827063,0.015438503585755825
18049705740062,1.3766659498214722,-9.220070838928223,3.139995574951172,-0.01889885775744915,-0.0063883461989462376,0.0138414166867733
18049706977312,1.4269442558288574,-9.232041358947754,3.111265182495117,-0.01943122036755085,-0.00452507846057415,0.012510511092841625
18049708214612,1.3946224451065063,-9.220070838928223,3.0861260890960693,-0.01703559048473835,-0.003460354171693325,0.015172322280704975
18049709451887,1.414973258972168,-9.186552047729492,3.118447780609131,-0.01703559048473835,-0.0071868896484375,0.0173017717897892
18049710689150,1.3982137441635132,-9.247604370117188,3.094505786895752,-0.0186326764523983,-0.004791259765625,0.01756795309484005
18049711926412,1.3970166444778442,-9.23563289642334,3.1004912853240967,-0.0162370465695858,-0.0018632676219567657,0.015438503585755825
18049713163700,1.4018051624298096,-9.244012832641602,3.1483752727508545,-0.0138414166867733,-0.008783976547420025,0.014373779296875
18049714400962,1.3946224451065063,-9.193734169006348,3.072957992553711,-0.02076212503015995,-0.005057440605014563,0.013309055007994175
18049715638275,1.4221558570861816,-9.246407508850098,3.1280245780944824,-0.01783413253724575,-0.00452507846057415,0.01357523538172245
18049716875537,1.41257905960083,-9.242815971374512,3.1052796840667725,-0.013042873702943325,-0.007453070487827063,0.0167694091796875
18049718112812,1.4245500564575195,-9.253589630126953,3.0789434909820557,-0.014906140975654125,-0.0021294488105922937,0.01783413253724575
18049719350100,1.3898340463638306,-9.271546363830566,3.1304187774658203,-0.014906140975654125,-0.0023956298828125,0.010647243820130825
18049720587375,1.4209587574005127,-9.228450775146484,3.111265182495117,-0.0157046839594841,0.0005323622026480734,0.014906140975654125
18049721824637,1.381454348564148,-9.271546363830566,3.134010076522827,-0.0114457868039608,-0.0018632676219567657,0.0162370465695858
18049723061925,1.4197616577148438,-9.208099365234375,3.116053581237793,-0.008251613937318325,-0.0026618109550327063,0.01463996060192585
18049724299187,1.4089877605438232,-9.214085578918457,3.1016883850097656,-0.0090501569211483,-0.0005323622026480734,0.010381062515079975
18049725536462,1.4185645580291748,-9.23443603515625,3.1292216777801514,-0.0114457868039608,-0.0037265352439135313,0.014906140975654125
18049726773750,1.4484920501708984,-9.260772705078125,3.1304187774658203,-0.0119781494140625,-0.008251613937318325,0.0119781494140625
18049728011012,1.4305355548858643,-9.232041358947754,3.160346269607544,-0.0114457868039608,-0.006122165359556675,0.012510511092841625
18049729248300,1.4030022621154785,-9.23563289642334,3.116053581237793,-0.010381062515079975,-0.00452507846057415,0.0114457868039608
18049730485562,1.4616601467132568,-9.247604370117188,3.117250680923462,-0.010381062515079975,-0.0066545275039970875,0.010913425125181675
18049731722850,1.4449007511138916,-9.261969566345215,3.156754970550537,-0.006122165359556675,-0.003460354171693325,0.01117960549890995
18049732960125,1.4305355548858643,-9.276334762573242,3.1483752727508545,-0.0037265352439135313,-0.0063883461989462376,0.01357523538172245
18049734197400,1.4041993618011475,-9.246407508850098,3.1304187774658203,-0.0037265352439135313,-0.0063883461989462376,0.013309055007994175
18049735434662,1.3994109630584717,-9.242815971374512,3.1268274784088135,-0.0071868896484375,-0.0066545275039970875,0.010381062515079975
18049736671950,1.380257248878479,-9.251195907592773,3.1507694721221924,-0.007985432632267475,-0.0015970865497365594,0.0071868896484375
18049737909225,1.43532395362854,-9.271546363830566,3.1304187774658203,-0.00692070834338665,-0.0013309054775163531,0.006122165359556675
18049739146500,1.413776159286499,-9.275137901306152,3.112462282180786,-0.007453070487827063,0.0015970865497365594,0.010381062515079975
18049740383787,1.4245500564575195,-9.303868293762207,3.0789434909820557,-0.0042588976211845875,-0.0039927163161337376,0.013042873702943325
18049741621037,1.436521053314209,-9.287108421325684,3.1028854846954346,-0.005589802749454975,-0.0010647244052961469,0.0138414166867733
18049742858325,1.4293384552001953,-9.26795482635498,3.1208419799804688,-0.0015970865497365594,-0.0007985432748682797,0.01117960549890995
18049744095600,1.4173674583435059,-9.275137901306152,3.1232361793518066,-0.0013309054775163531,-0.0031941730994731188,0.008517795242369175
18049745332875,1.4317326545715332,-9.271546363830566,3.1076738834381104,-0.004791259765625,-0.008517795242369175,0.00692070834338665
18049746570150,1.4233529567718506,-9.272743225097656,3.1304187774658203,-0.0031941730994731188,-0.0013309054775163531,0.0090501569211483
18049747807425,1.4269442558288574,-9.276334762573242,3.1052796840667725,-0.00452507846057415,-0.0010647244052961469,0.00931633822619915
18049749044700,1.456871747970581,-9.258378028869629,3.132812976837158,0.0023956298828125,-0.0029279920272529125,0.01171196810901165
18049750281975,1.4544775485992432,-9.241618156433105,3.114856481552124,0.0015970865497365594,-0.0063883461989462376,0.0114457868039608
18049751519237,1.4688427448272705,-9.245209693908691,3.118447780609131,0.0005323622026480734,-0.006122165359556675,0.00931633822619915
18049752756512,1.4401123523712158,-9.216479301452637,3.1220390796661377,0.0021294488105922937,-0.0063883461989462376,0.008783976547420025
18049753993812,1.459265947341919,-9.230844497680664,3.1256303787231445,0.0042588976211845875,-0.0021294488105922937,0.0162370465695858
18049755231087,1.436521053314209,-9.211690902709961,3.1208419799804688,0.0053236219100654125,-0.006122165359556675,0.01357523538172245
18049756468350,1.460463047027588,-9.210494041442871,3.112462282180786,0.005855984054505825,-0.007453070487827063,0.010647243820130825
18049757705625,1.4652514457702637,-9.239224433898926,3.162740468978882,0.005855984054505825,-0.0063883461989462376,0.0114457868039608
18049758942912,1.4508862495422363,-9.23682975769043,3.1292216777801514,0.00958251953125,-0.006122165359556675,0.005855984054505825
18049760180175,1.4544775485992432,-9.208099365234375,3.137601375579834,0.005057440605014563,-0.010114881210029125,0.015438503585755825
18049761417462,1.4449007511138916,-9.232041358947754,3.1507694721221924,0.0015970865497365594,-0.0031941730994731188,0.008783976547420025
18049762654737,1.456871747970581,-9.23682975769043,3.1459810733795166,0.005855984054505825,-0.0037265352439135313,0.0066545275039970875
18049763892012,1.4915876388549805,-9.21288776397705,3.157952070236206,0.01171196810901165,-0.00931633822619915,0.014373779296875
18049765129300,1.4951789379119873,-9.224859237670898,3.138798475265503,0.013309055007994175,-0.008251613937318325,0.01224433071911335
18049766366562,1.501164436340332,-9.224859237670898,3.1100680828094482,0.0066545275039970875,-0.008517795242369175,0.007985432632267475
18049767603837,1.4700398445129395,-9.258378028869629,3.138798475265503,0.008783976547420025,-0.0037265352439135313,0.00931633822619915
18049768841112,1.459265947341919,-9.241618156433105,3.157952070236206,0.01117960549890995,0.0005323622026480734,0.0071868896484375
18049770078375,1.4472949504852295,-9.278728485107422,3.116053581237793,0.01357523538172245,-0.006122165359556675,0.0077192517928779125
18049771315675,1.437718152999878,-9.239224433898926,3.132812976837158,0.008251613937318325,-0.008517795242369175,0.006122165359556675
18049772552962,1.437718152999878,-9.283516883850098,3.157952070236206,0.0071868896484375,-0.007453070487827063,0.004791259765625
18049773790225,1.4640543460845947,-9.303868293762207,3.1507694721221924,0.01650322787463665,-0.008783976547420025,0.010114881210029125
18049775027487,1.4018051624298096,-9.264363288879395,3.1244332790374756,0.01463996060192585,-0.010647243820130825,0.0063883461989462376
18049776264762,1.434126853942871,-9.313445091247559,3.1423897743225098,0.0162370465695858,-0.00931633822619915,0.0077192517928779125
18049777502050,1.4233529567718506,-9.315838813781738,3.1447839736938477,0.014373779296875,-0.005589802749454975,0.0031941730994731188
18049778739312,1.4413094520568848,-9.329007148742676,3.1866824626922607,0.0071868896484375,-0.005855984054505825,-0.0018632676219567657
18049779976600,1.4676456451416016,-9.28950309753418,3.184288263320923,0.007985432632267475,-0.004791259765625,0.004791259765625
18049781213875,1.4736311435699463,-9.283516883850098,3.1256303787231445,0.0114457868039608,-0.0114457868039608,0.005855984054505825
18049782451162,1.4472949504852295,-9.330204010009766,3.136404275894165,0.0119781494140625,-0.01171196810901165,0.007985432632267475
18049783688425,1.4628572463989258,-9.337387084960938,3.1076738834381104,0.0114457868039608,-0.0077192517928779125,0.008783976547420025
18049784925712,1.4472949504852295,-9.342175483703613,3.137601375579834,0.013042873702943325,-0.010647243820130825,0.004791259765625
18049786162987,1.4401123523712158,-9.346963882446289,3.135207176208496,0.0138414166867733,-0.010114881210029125,0.00931633822619915
18049787400237,1.4425065517425537,-9.363722801208496,3.1735143661499023,0.01783413253724575,-0.008783976547420025,0.010647243820130825
18049788637512,1.4891934394836426,-9.378087997436523,3.1914708614349365,0.01996358297765255,-0.00984870083630085,0.0138414166867733
18049789874800,1.499967336654663,-9.345766067504883,3.1519665718078613,0.01117960549890995,-0.01357523538172245,0.012776692397892475
18049791112087,1.4389152526855469,-9.333795547485352,3.1232361793518066,0.01171196810901165,-0.0090501569211483,0.00958251953125
18049792349362,1.4628572463989258,-9.36013126373291,3.1423897743225098,0.010114881210029125,-0.008517795242369175,0.00931633822619915
18049793586612,1.4903905391693115,-9.364919662475586,3.160346269607544,0.0066545275039970875,-0.010913425125181675,0.005855984054505825
18049794823912,1.5131354331970215,-9.336189270019531,3.156754970550537,0.008783976547420025,-0.0119781494140625,0.0071868896484375
18049796061200,1.4748282432556152,-9.351752281188965,3.163937568664551,0.01171196810901165,-0.00984870083630085,0.0162370465695858
18049797298462,1.4844050407409668,-9.313445091247559,3.156754970550537,0.0090501569211483,-0.0042588976211845875,0.012776692397892475
18049798535737,1.4532804489135742,-9.32661247253418,3.163937568664551,0.0114457868039608,-0.003460354171693325,0.01171196810901165
18049799773012,1.4724340438842773,-9.35893440246582,3.1890766620635986,0.01357523538172245,-0.010913425125181675,0.0090501569211483
18049801010287,1.455674648284912,-9.3026704788208,3.207033157348633,0.0138414166867733,-0.01357523538172245,0.014373779296875
18049802247575,1.4640543460845947,-9.308656692504883,3.1675288677215576,0.010913425125181675,-0.01357523538172245,0.01650322787463665
18049803484837,1.434126853942871,-9.282320022583008,3.1675288677215576,0.01703559048473835,-0.01357523538172245,0.01889885775744915
18049804722100,1.434126853942871,-9.348160743713379,3.185485363006592,0.014906140975654125,-0.0119781494140625,0.02555338479578495
18049805959400,1.4844050407409668,-9.327810287475586,3.1950621604919434,0.01703559048473835,-0.008517795242369175,0.0173017717897892
18049807196662,1.4640543460845947,-9.320627212524414,3.160346269607544,0.0114457868039608,-0.01357523538172245,0.0167694091796875
18049808433950,1.4760253429412842,-9.344569206237793,3.183091163635254,0.008783976547420025,-0.01357523538172245,0.02262539230287075
18049809671212,1.4712369441986084,-9.309853553771973,3.134010076522827,0.01224433071911335,-0.010381062515079975,0.0263519287109375
18049810908487,1.4760253429412842,-9.309853553771973,3.1316158771514893,0.012510511092841625,-0.00931633822619915,0.02369011752307415
18049812145775,1.4748282432556152,-9.287108421325684,3.1950621604919434,0.0114457868039608,-0.008783976547420025,0.0215606689453125
18049813383062,1.436521053314209,-9.276334762573242,3.177105665206909,0.015172322280704975,-0.014373779296875,0.01996358297765255
18049814620312,1.478419542312622,-9.297882080078125,3.1747114658355713,0.010913425125181675,-0.01224433071911335,0.0210283063352108
18049815857600,1.4484920501708984,-9.281123161315918,3.2130186557769775,0.01224433071911335,-0.007453070487827063,0.0247548408806324
18049817094887,1.4760253429412842,-9.279926300048828,3.1723172664642334,0.0114457868039608,-0.013042873702943325,0.0252872034907341
18049818332150,1.478419542312622,-9.283516883850098,3.161543369293213,0.012776692397892475,-0.015172322280704975,0.02076212503015995
18049819569412,1.4652514457702637,-9.285911560058594,3.2106244564056396,0.010913425125181675,-0.012776692397892475,0.02076212503015995
18049820806700,1.4736311435699463,-9.299079895019531,3.1914708614349365,0.01357523538172245,-0.0138414166867733,0.0191650390625
18049822044000,1.4520833492279053,-9.327810287475586,3.181894063949585,0.00984870083630085,-0.01650322787463665,0.0204959437251091
18049823281250,1.4772224426269531,-9.294291496276855,3.141192674636841,0.010114881210029125,-0.012776692397892475,0.02076212503015995
18049824518537,1.456871747970581,-9.340977668762207,3.222595453262329,0.00692070834338665,-0.01410759799182415,0.0223592109978199
18049825755825,1.4508862495422363,-9.342175483703613,3.185485363006592,0.00452507846057415,-0.015172322280704975,0.02502102218568325
18049826993100,1.4460978507995605,-9.311050415039062,3.19865345954895,0.0031941730994731188,-0.007453070487827063,0.0204959437251091
18049828230375,1.455674648284912,-9.349357604980469,3.1711201667785645,0.0015970865497365594,-0.01410759799182415,0.0223592109978199
18049829467637,1.4389152526855469,-9.339780807495117,3.1675288677215576,0.0037265352439135313,-0.01597086526453495,0.02182685025036335
18049830704912,1.434126853942871,-9.32661247253418,3.162740468978882,0.008251613937318325,-0.01224433071911335,0.02076212503015995
18049831942187,1.4185645580291748,-9.339780807495117,3.134010076522827,0.008251613937318325,-0.01357523538172245,0.0228915736079216
18049833179475,1.4891934394836426,-9.373299598693848,3.2130186557769775,0.00984870083630085,-0.02369011752307415,0.02262539230287075
18049834416737,1.4293384552001953,-9.314641952514648,3.181894063949585,0.0071868896484375,-0.01756795309484005,0.01783413253724575
18049835654012,1.456871747970581,-9.329007148742676,3.2082302570343018,0.005589802749454975,-0.00931633822619915,0.02076212503015995
18049836891300,1.4425065517425537,-9.333795547485352,3.1926679611206055,0.00452507846057415,-0.01410759799182415,0.02076212503015995
18049838128562,1.4401123523712158,-9.345766067504883,3.1902737617492676,0.0039927163161337376,-0.0114457868039608,0.01703559048473835
18049839365850,1.4018051624298096,-9.35893440246582,3.2166099548339844,0.0053236219100654125,-0.010114881210029125,0.0181003138422966
18049840603125,1.4496891498565674,-9.351752281188965,3.2345664501190186,0.005057440605014563,-0.014373779296875,0.0186326764523983
18049841840412,1.4544775485992432,-9.294291496276855,3.2094273567199707,0.0013309054775163531,-0.01410759799182415,0.0196974016726017
18049843077675,1.460463047027588,-9.317035675048828,3.177105665206909,0.0023956298828125,-0.01463996060192585,0.01756795309484005
18049844314962,1.460463047027588,-9.364919662475586,3.162740468978882,0.005589802749454975,-0.013309055007994175,0.015438503585755825
18049845552225,1.456871747970581,-9.344569206237793,3.2405519485473633,0.0039927163161337376,-0.010114881210029125,0.0181003138422966
18049846789512,1.4544775485992432,-9.369708061218262,3.202244758605957,0.0023956298828125,-0.008517795242369175,0.0167694091796875
18049848026787,1.4293384552001953,-9.345766067504883,3.178302764892578,-0.0021294488105922937,-0.013042873702943325,0.01650322787463665
18049849264075,1.4329297542572021,-9.355342864990234,3.1962592601776123,0.0023956298828125,-0.010381062515079975,0.0167694091796875
18049850501337,1.4257471561431885,-9.338583946228027,3.185485363006592,0.0,-0.0138414166867733,0.015438503585755825
18049851738612,1.4748282432556152,-9.320627212524414,3.185485363006592,0.0029279920272529125,-0.01410759799182415,0.013042873702943325
18049852975887,1.460463047027588,-9.281123161315918,3.2309751510620117,-0.0010647244052961469,-0.010913425125181675,0.013042873702943325
18049854213150,1.4006080627441406,-9.336189270019531,3.2309751510620117,0.0013309054775163531,-0.01357523538172245,0.014906140975654125
18049855450437,1.3970166444778442,-9.348160743713379,3.1878795623779297,0.005057440605014563,-0.010913425125181675,0.02182685025036335
18049856687712,1.3982137441635132,-9.282320022583008,3.202244758605957,0.0071868896484375,-0.012510511092841625,0.02129448764026165
18049857925000,1.4197616577148438,-9.288305282592773,3.2154128551483154,0.0066545275039970875,-0.01171196810901165,0.0186326764523983
18049859162275,1.4401123523712158,-9.300276756286621,3.1974563598632812,0.0071868896484375,-0.00958251953125,0.0244886614382267
18049860399550,1.4401123523712158,-9.303868293762207,3.220201253890991,0.0002661811013240367,-0.0119781494140625,0.0173017717897892
18049861636825,1.4317326545715332,-9.279926300048828,3.223792552947998,0.0007985432748682797,-0.007985432632267475,0.01224433071911335
18049862874100,1.4077906608581543,-9.299079895019531,3.224989652633667,0.0021294488105922937,-0.005589802749454975,0.01597086526453495
18049864111375,1.413776159286499,-9.32421875,3.1926679611206055,0.0013309054775163531,-0.005589802749454975,0.01943122036755085
18049865348662,1.460463047027588,-9.301473617553711,3.1974563598632812,0.0018632676219567657,-0.00958251953125,0.0157046839594841
18049866585925,1.413776159286499,-9.25598430633545,3.204638957977295,0.0042588976211845875,-0.0063883461989462376,0.01836649514734745
18049867823212,1.434126853942871,-9.281123161315918,3.1914708614349365,0.0010647244052961469,-0.004791259765625,0.02076212503015995
18049869060475,1.4065935611724854,-9.2655611038208,3.2309751510620117,0.0031941730994731188,-0.006122165359556675,0.0204959437251091
18049870297762,1.4197616577148438,-9.29189682006836,3.1938650608062744,0.0026618109550327063,-0.00931633822619915,0.01410759799182415
18049871535025,1.3838485479354858,-9.258378028869629,3.161543369293213,0.0021294488105922937,-0.010114881210029125,0.01996358297765255
18049872772300,1.3886369466781616,-9.26795482635498,3.1914708614349365,0.003460354171693325,-0.0090501569211483,0.0247548408806324
18049874009587,1.4413094520568848,-9.29069995880127,3.1962592601776123,0.0018632676219567657,-0.0037265352439135313,0.0258195661008358
18049875246850,1.3934253454208374,-9.294291496276855,3.201047658920288,0.0037265352439135313,-0.003460354171693325,0.0196974016726017
18049876484137,1.4030022621154785,-9.3026704788208,3.1699230670928955,-0.0010647244052961469,-0.003460354171693325,0.01597086526453495
18049877721412,1.3694833517074585,-9.284714698791504,3.185485363006592,0.0018632676219567657,-0.0042588976211845875,0.02502102218568325
18049878958687,1.3551181554794312,-9.279926300048828,3.1866824626922607,0.0018632676219567657,-0.00452507846057415,0.0220930315554142
18049880195950,1.3850456476211548,-9.288305282592773,3.154360771179199,0.005589802749454975,-0.007453070487827063,0.0271504707634449
18049881433237,1.413776159286499,-9.330204010009766,3.1519665718078613,0.005057440605014563,-0.01117960549890995,0.0282151959836483
18049882670512,1.434126853942871,-9.3026704788208,3.2118215560913086,0.005589802749454975,-0.008783976547420025,0.02901373989880085
18049883907800,1.3994109630584717,-9.297882080078125,3.1926679611206055,0.0039927163161337376,-0.0018632676219567657,0.02874755859375
18049885145050,1.4065935611724854,-9.342175483703613,3.1938650608062744,0.003460354171693325,-0.0031941730994731188,0.0258195661008358
18049886382362,1.3970166444778442,-9.339780807495117,3.1902737617492676,0.005589802749454975,-0.004791259765625,0.02874755859375
18049887619612,1.4089877605438232,-9.309853553771973,3.177105665206909,0.0063883461989462376,-0.003460354171693325,0.0295461006462574
18049888856887,1.4113819599151611,-9.346963882446289,3.1938650608062744,0.0053236219100654125,0.0005323622026480734,0.02901373989880085
18049890094187,1.4173674583435059,-9.361329078674316,3.2118215560913086,0.007453070487827063,0.0005323622026480734,0.0263519287109375
18049891331462,1.3910311460494995,-9.362525939941406,3.163937568664551,0.00692070834338665,0.0010647244052961469,0.02661811001598835
18049892568725,1.3946224451065063,-9.327810287475586,3.1747114658355713,0.0010647244052961469,0.0031941730994731188,0.0210283063352108
18049893806012,1.3994109630584717,-9.35773754119873,3.134010076522827,0.0026618109550327063,0.0042588976211845875,0.0276828333735466
18049895043275,1.3886369466781616,-9.321824073791504,3.179499864578247,0.0007985432748682797,0.00692070834338665,0.02848137728869915
18049896280562,1.413776159286499,-9.321824073791504,3.19865345954895,0.0023956298828125,0.0042588976211845875,0.0314093679189682
18049897517825,1.337161660194397,-9.387664794921875,3.2118215560913086,-0.0007985432748682797,0.0010647244052961469,0.0316755510866642
18049898755125,1.3862427473068237,-9.376891136169434,3.199850559234619,0.0013309054775163531,0.0053236219100654125,0.0282151959836483
18049899992400,1.4053964614868164,-9.348160743713379,3.178302764892578,-0.0007985432748682797,0.00692070834338665,0.02874755859375
18049901229662,1.359906554222107,-9.38167953491211,3.223792552947998,-0.0021294488105922937,0.007985432632267475,0.0295461006462574
18049902466937,1.3682862520217896,-9.373299598693848,3.180696964263916,-0.0031941730994731188,0.0042588976211845875,0.0300784632563591
18049903704200,1.3874398469924927,-9.36013126373291,3.1962592601776123,-0.0018632676219567657,0.005057440605014563,0.0300784632563591
18049904941512,1.4030022621154785,-9.363722801208496,3.156754970550537,-0.0029279920272529125,0.008783976547420025,0.02502102218568325
18049906178762,1.4197616577148438,-9.35654067993164,3.1651346683502197,-0.0026618109550327063,0.007985432632267475,0.0271504707634449
18049907416050,1.3862427473068237,-9.35654067993164,3.134010076522827,-0.005057440605014563,0.007985432632267475,0.02315775491297245
18049908653312,1.3910311460494995,-9.39245319366455,3.1519665718078613,-0.0039927163161337376,0.007985432632267475,0.0191650390625
18049909890600,1.3682862520217896,-9.397241592407227,3.183091163635254,-0.005057440605014563,0.0077192517928779125,0.02369011752307415
18049911127875,1.3838485479354858,-9.367314338684082,3.179499864578247,-0.00452507846057415,0.005855984054505825,0.0292799212038517
18049912365137,1.4113819599151611,-9.352949142456055,3.181894063949585,-0.0037265352439135313,0.0063883461989462376,0.02661811001598835
18049913602437,1.3455413579940796,-9.384073257446289,3.180696964263916,-0.008251613937318325,0.010114881210029125,0.0247548408806324
18049914839712,1.3551181554794312,-9.370905876159668,3.137601375579834,-0.005855984054505825,0.013309055007994175,0.02741665206849575
18049916076975,1.3503297567367554,-9.399636268615723,3.184288263320923,-0.0071868896484375,0.015172322280704975,0.0268842913210392
18049917314262,1.334767460823059,-9.400833129882812,3.1435868740081787,-0.00958251953125,0.01171196810901165,0.02741665206849575
18049918551512,1.3742717504501343,-9.366117477416992,3.1711201667785645,-0.0066545275039970875,0.01171196810901165,0.02369011752307415
18049919788800,1.3742717504501343,-9.384073257446289,3.1483752727508545,-0.01117960549890995,0.012776692397892475,0.02422248013317585
18049921026087,1.359906554222107,-9.402029991149902,3.177105665206909,-0.010381062515079975,0.0138414166867733,0.0223592109978199
18049922263350,1.3311761617660522,-9.388861656188965,3.1483752727508545,-0.01117960549890995,0.01410759799182415,0.02555338479578495
18049923500637,1.3886369466781616,-9.362525939941406,3.161543369293213,-0.010114881210029125,0.0186326764523983,0.0295461006462574
18049924737912,1.3742717504501343,-9.369708061218262,3.180696964263916,-0.010114881210029125,0.013309055007994175,0.02901373989880085
18049925975200,1.3670891523361206,-9.384073257446289,3.185485363006592,-0.01224433071911335,0.0138414166867733,0.0306108258664608
18049927212450,1.3634978532791138,-9.38167953491211,3.2082302570343018,-0.01410759799182415,0.0167694091796875,0.02369011752307415
18049928449737,1.3850456476211548,-9.355342864990234,3.177105665206909,-0.0114457868039608,0.015172322280704975,0.0228915736079216
18049929687037,1.380257248878479,-9.354146003723145,3.1280245780944824,-0.015438503585755825,0.0138414166867733,0.02555338479578495
18049930924275,1.3730746507644653,-9.385271072387695,3.1292216777801514,-0.0157046839594841,0.015172322280704975,0.03087700717151165
18049932161575,1.3515268564224243,-9.367314338684082,3.137601375579834,-0.01224433071911335,0.0138414166867733,0.02555338479578495
18049933398850,1.3515268564224243,-9.321824073791504,3.1735143661499023,-0.014373779296875,0.01996358297765255,0.0263519287109375
18049934636125,1.3706804513931274,-9.330204010009766,3.1531636714935303,-0.015172322280704975,0.0204959437251091,0.02794901467859745
18049935873412,1.3646949529647827,-9.375694274902344,3.1735143661499023,-0.01650322787463665,0.01943122036755085,0.0268842913210392
18049937110687,1.413776159286499,-9.361329078674316,3.1531636714935303,-0.010381062515079975,0.01889885775744915,0.0306108258664608
18049938347950,1.3682862520217896,-9.330204010009766,3.1483752727508545,-0.010114881210029125,0.01650322787463665,0.038330078125
18049939585225,1.3563152551651,-9.297882080078125,3.177105665206909,-0.0181003138422966,0.01703559048473835,0.03087700717151165
18049940822525,1.3706804513931274,-9.327810287475586,3.1447839736938477,-0.01783413253724575,0.02182685025036335,0.02555338479578495
18049942059787,1.3886369466781616,-9.312247276306152,3.1938650608062744,-0.0173017717897892,0.0244886614382267,0.0311431884765625
18049943297062,1.382651448249817,-9.339780807495117,3.1675288677215576,-0.0191650390625,0.01943122036755085,0.033272635191679
18049944534325,1.41257905960083,-9.281123161315918,3.1675288677215576,-0.01597086526453495,0.0162370465695858,0.02981228195130825
18049945771612,1.3958195447921753,-9.340977668762207,3.157952070236206,-0.01463996060192585,0.01889885775744915,0.0343373604118824
18049947008875,1.381454348564148,-9.334992408752441,3.1100680828094482,-0.012776692397892475,0.01756795309484005,0.0330064557492733
18049948246162,1.334767460823059,-9.330204010009766,3.1699230670928955,-0.0196974016726017,0.014373779296875,0.0322079136967659
18049949483450,1.359906554222107,-9.342175483703613,3.1447839736938477,-0.01597086526453495,0.0191650390625,0.0324740931391716
18049950720725,1.3395558595657349,-9.354146003723145,3.162740468978882,-0.01943122036755085,0.01943122036755085,0.0346035435795784
18049951958000,1.3862427473068237,-9.342175483703613,3.1100680828094482,-0.014373779296875,0.0186326764523983,0.0343373604118824
18049953195275,1.3658920526504517,-9.384073257446289,3.154360771179199,-0.0181003138422966,0.02262539230287075,0.0300784632563591
18049954432550,1.3443442583084106,-9.342175483703613,3.1100680828094482,-0.0181003138422966,0.0210283063352108,0.0338049978017807
18049955669825,1.3443442583084106,-9.38167953491211,3.094505786895752,-0.0204959437251091,0.01996358297765255,0.0319417305290699
18049956907100,1.3072341680526733,-9.344569206237793,3.0825347900390625,-0.0223592109978199,0.0204959437251091,0.0346035435795784
18049958144375,1.357512354850769,-9.361329078674316,3.141192674636841,-0.01836649514734745,0.0210283063352108,0.0327402763068676
18049959381650,1.3227964639663696,-9.329007148742676,3.157952070236206,-0.01836649514734745,0.0220930315554142,0.0322079136967659
18049960618937,1.3215993642807007,-9.320627212524414,3.1052796840667725,-0.01650322787463665,0.0196974016726017,0.0351359061896801
18049961856200,1.3036428689956665,-9.373299598693848,3.116053581237793,-0.01783413253724575,0.015438503585755825,0.0343373604118824
18049963093475,1.3407529592514038,-9.334992408752441,3.0801405906677246,-0.0223592109978199,0.02608574740588665,0.0292799212038517
18049964330762,1.3072341680526733,-9.349357604980469,3.1004912853240967,-0.01943122036755085,0.02555338479578495,0.0319417305290699
18049965568037,1.3539210557937622,-9.331400871276855,3.1256303787231445,-0.02262539230287075,0.02022976242005825,0.0330064557492733
18049966805312,1.359906554222107,-9.317035675048828,3.0825347900390625,-0.02502102218568325,0.0186326764523983,0.0354020856320858
18049968042587,1.3263877630233765,-9.346963882446289,3.0825347900390625,-0.0220930315554142,0.01889885775744915,0.033538818359375
18049969279875,1.335964560508728,-9.349357604980469,3.0801405906677246,-0.0186326764523983,0.02262539230287075,0.0340711809694767
18049970517125,1.3419500589370728,-9.32421875,3.0789434909820557,-0.0196974016726017,0.0220930315554142,0.0346035435795784
18049971754425,1.3419500589370728,-9.332598686218262,3.089717388153076,-0.02901373989880085,0.0215606689453125,0.033272635191679
18049972991700,1.3443442583084106,-9.352949142456055,3.045424699783325,-0.023956298828125,0.01703559048473835,0.0372653529047966
18049974228975,1.314416766166687,-9.318233489990234,3.1076738834381104,-0.0181003138422966,0.0162370465695858,0.0372653529047966
18049975466250,1.337161660194397,-9.332598686218262,3.1507694721221924,-0.014906140975654125,0.02182685025036335,0.0372653529047966
18049976703525,1.3491326570510864,-9.331400871276855,3.1004912853240967,-0.0162370465695858,0.0204959437251091,0.0359344482421875
18049977940800,1.3180080652236938,-9.29069995880127,3.1016883850097656,-0.0191650390625,0.01783413253724575,0.0409918874502182
18049979178075,1.3323732614517212,-9.283516883850098,3.0885202884674072,-0.02182685025036335,0.0181003138422966,0.0425889752805233
18049980415337,1.3263877630233765,-9.261969566345215,3.1220390796661377,-0.0186326764523983,0.013042873702943325,0.0391286201775074
18049981652625,1.3299790620803833,-9.247604370117188,3.1447839736938477,-0.0186326764523983,0.0181003138422966,0.0388624407351017
18049982889900,1.3455413579940796,-9.227252960205078,3.1280245780944824,-0.0204959437251091,0.02022976242005825,0.0385962575674057
18049984127187,1.3527239561080933,-9.244012832641602,3.112462282180786,-0.015438503585755825,0.01410759799182415,0.0436537005007267
18049985364462,1.3551181554794312,-9.246407508850098,3.098097085952759,-0.015172322280704975,0.0181003138422966,0.0415242500603199
18049986601725,1.3706804513931274,-9.277531623840332,3.092111587524414,-0.013042873702943325,0.015438503585755825,0.0433875173330307
18049987839012,1.3192051649093628,-9.23323917388916,3.0849289894104004,-0.014373779296875,0.0196974016726017,0.0377977155148983
18049989076300,1.3299790620803833,-9.283516883850098,3.0825347900390625,-0.01836649514734745,0.01410759799182415,0.0393948033452034
18049990313575,1.3479355573654175,-9.271546363830566,3.0813376903533936,-0.015438503585755825,0.01117960549890995,0.0423227921128273
18049991550850,1.3718775510787964,-9.319430351257324,3.0561985969543457,-0.01783413253724575,0.01410759799182415,0.038063894957304
18049992788125,1.3096283674240112,-9.308656692504883,3.07415509223938,-0.015438503585755825,0.01117960549890995,0.0343373604118824
18049994025387,1.3287819623947144,-9.320627212524414,3.1232361793518066,-0.012776692397892475,0.015172322280704975,0.0396609827876091
18049995262675,1.3467384576797485,-9.278728485107422,3.052607297897339,-0.0138414166867733,0.01171196810901165,0.0388624407351017
18049996499962,1.3479355573654175,-9.320627212524414,3.095702886581421,-0.015438503585755825,0.01171196810901165,0.0324740931391716
18049997737225,1.3287819623947144,-9.387664794921875,3.070563793182373,-0.0173017717897892,0.010114881210029125,0.0359344482421875
18049998974500,1.3479355573654175,-9.385271072387695,3.0765492916107178,-0.01889885775744915,0.010647243820130825,0.0372653529047966
18050000211775,1.3455413579940796,-9.379284858703613,3.0873231887817383,-0.02076212503015995,0.01171196810901165,0.0362006276845932
18050001449050,1.3299790620803833,-9.361329078674316,3.050213098526001,-0.0173017717897892,0.01463996060192585,0.0354020856320858
18050002686325,1.3251906633377075,-9.320627212524414,3.092111587524414,-0.01703559048473835,0.013309055007994175,0.0295461006462574
18050003923612,1.3227964639663696,-9.283516883850098,3.1064767837524414,-0.015172322280704975,0.010114881210029125,0.02794901467859745
18050005160887,1.3096283674240112,-9.36013126373291,3.1316158771514893,-0.01650322787463665,0.00958251953125,0.0346035435795784
18050006398162,1.337161660194397,-9.349357604980469,3.1064767837524414,-0.01597086526453495,0.00984870083630085,0.02981228195130825
18050007635425,1.2844892740249634,-9.348160743713379,3.112462282180786,-0.0204959437251091,0.010913425125181675,0.02502102218568325
18050008872712,1.335964560508728,-9.297882080078125,3.1256303787231445,-0.02076212503015995,0.0119781494140625,0.0258195661008358
18050010110000,1.292868971824646,-9.342175483703613,3.111265182495117,-0.0196974016726017,0.0173017717897892,0.02315775491297245
18050011347275,1.3551181554794312,-9.327810287475586,3.1220390796661377,-0.02076212503015995,0.010381062515079975,0.02369011752307415
18050012584550,1.3479355573654175,-9.301473617553711,3.0885202884674072,-0.0210283063352108,0.004791259765625,0.02661811001598835
18050013821825,1.3299790620803833,-9.282320022583008,3.1316158771514893,-0.01943122036755085,0.0066545275039970875,0.02555338479578495
18050015059112,1.3192051649093628,-9.279926300048828,3.1196448802948,-0.014906140975654125,0.010381062515079975,0.02262539230287075
18050016296387,1.381454348564148,-9.287108421325684,3.137601375579834,-0.014906140975654125,0.00958251953125,0.0181003138422966
18050017533675,1.3491326570510864,-9.252392768859863,3.1052796840667725,-0.01597086526453495,0.008251613937318325,0.02022976242005825
18050018770937,1.3539210557937622,-9.252392768859863,3.1531636714935303,-0.01597086526453495,0.008251613937318325,0.02262539230287075
18050020008200,1.3479355573654175,-9.306262016296387,3.1040825843811035,-0.013309055007994175,0.00452507846057415,0.01650322787463665
18050021245487,1.3395558595657349,-9.258378028869629,3.0801405906677246,-0.015438503585755825,0.0039927163161337376,0.0173017717897892
18050022482762,1.3096283674240112,-9.260772705078125,3.090914487838745,-0.01171196810901165,0.0039927163161337376,0.02022976242005825
18050023720050,1.3611036539077759,-9.264363288879395,3.118447780609131,-0.0157046839594841,0.005855984054505825,0.0173017717897892
18050024957325,1.3563152551651,-9.242815971374512,3.1256303787231445,-0.01357523538172245,0.0077192517928779125,0.0186326764523983
18050026194600,1.3395558595657349,-9.220070838928223,3.1052796840667725,-0.01171196810901165,0.0026618109550327063,0.0186326764523983
18050027431887,1.3527239561080933,-9.241618156433105,3.1040825843811035,-0.01224433071911335,0.0039927163161337376,0.01783413253724575
18050028669150,1.337161660194397,-9.279926300048828,3.0789434909820557,-0.010913425125181675,0.0071868896484375,0.01224433071911335
18050029906425,1.3311761617660522,-9.264363288879395,3.155557870864868,-0.01117960549890995,0.003460354171693325,0.0167694091796875
18050031143712,1.3563152551651,-9.318233489990234,3.112462282180786,-0.010114881210029125,0.0039927163161337376,0.01783413253724575
18050032380987,1.3551181554794312,-9.278728485107422,3.1016883850097656,-0.008251613937318325,0.0023956298828125,0.0138414166867733
18050033618287,1.338358759880066,-9.272743225097656,3.1208419799804688,-0.010647243820130825,0.0042588976211845875,0.01410759799182415
18050034855537,1.3611036539077759,-9.254786491394043,3.0789434909820557,-0.0053236219100654125,0.0031941730994731188,0.02502102218568325
18050036092812,1.2832921743392944,-9.239224433898926,3.1100680828094482,-0.005057440605014563,-0.0026618109550327063,0.0167694091796875
18050037330100,1.3299790620803833,-9.240421295166016,3.1028854846954346,-0.010381062515079975,-0.0002661811013240367,0.015438503585755825
18050038567362,1.358709454536438,-9.26675796508789,3.0573956966400146,-0.010114881210029125,-0.0010647244052961469,0.01650322787463665
18050039804637,1.3539210557937622,-9.245209693908691,3.07415509223938,-0.0138414166867733,0.0010647244052961469,0.01943122036755085
18050041041912,1.2952631711959839,-9.248801231384277,3.113659381866455,-0.0066545275039970875,-0.0018632676219567657,0.013042873702943325
18050042279200,1.3215993642807007,-9.246407508850098,3.116053581237793,-0.0039927163161337376,0.0026618109550327063,0.008783976547420025
18050043516462,1.294066071510315,-9.251195907592773,3.141192674636841,-0.0007985432748682797,0.0023956298828125,0.014373779296875
18050044753750,1.3287819623947144,-9.249998092651367,3.0837318897247314,-0.0031941730994731188,-0.0018632676219567657,0.015172322280704975
18050045991025,1.3311761617660522,-9.253589630126953,3.0621840953826904,-0.0037265352439135313,0.0,0.010647243820130825
18050047228312,1.3239935636520386,-9.247604370117188,3.1016883850097656,-0.0029279920272529125,-0.0042588976211845875,0.014906140975654125
18050048465587,1.2521674633026123,-9.253589630126953,3.1028854846954346,-0.0010647244052961469,-0.005057440605014563,0.015172322280704975
18050049702862,1.291671872138977,-9.229647636413574,3.093308687210083,-0.0021294488105922937,-0.0042588976211845875,0.01463996060192585
18050050940137,1.3275848627090454,-9.247604370117188,3.07415509223938,0.0013309054775163531,-0.0021294488105922937,0.01597086526453495
18050052177412,1.3491326570510864,-9.239224433898926,3.053804397583008,-0.0005323622026480734,0.0002661811013240367,0.0181003138422966
18050053414687,1.3084312677383423,-9.247604370117188,3.1088709831237793,0.0018632676219567657,-0.0042588976211845875,0.014906140975654125
18050054651975,1.3096283674240112,-9.259574890136719,3.066972494125366,0.0018632676219567657,-0.0018632676219567657,0.0138414166867733
18050055889237,1.3407529592514038,-9.198522567749023,3.071760892868042,0.005589802749454975,0.0007985432748682797,0.0157046839594841
18050057126525,1.3694833517074585,-9.244012832641602,3.09689998626709,0.006122165359556675,-0.00452507846057415,0.0138414166867733
18050058363812,1.3658920526504517,-9.252392768859863,3.095702886581421,0.0021294488105922937,-0.0066545275039970875,0.01224433071911335
18050059601075,1.3479355573654175,-9.240421295166016,3.1016883850097656,0.007453070487827063,-0.0015970865497365594,0.013309055007994175
18050060838350,1.314416766166687,-9.248801231384277,3.118447780609131,0.0031941730994731188,-0.0066545275039970875,0.014373779296875
18050062075637,1.334767460823059,-9.247604370117188,3.093308687210083,0.0007985432748682797,-0.0042588976211845875,0.006122165359556675
18050063312912,1.315613865852356,-9.277531623840332,3.1028854846954346,0.0026618109550327063,-0.0037265352439135313,0.010114881210029125
18050064550175,1.3275848627090454,-9.259574890136719,3.1028854846954346,0.0039927163161337376,-0.00452507846057415,0.0119781494140625
18050065787462,1.3407529592514038,-9.285911560058594,3.07415509223938,0.0039927163161337376,-0.008783976547420025,0.00984870083630085
18050067024737,1.3108254671096802,-9.272743225097656,3.0394389629364014,0.005589802749454975,-0.0018632676219567657,0.013309055007994175
18050068262025,1.3227964639663696,-9.264363288879395,3.1028854846954346,0.00452507846057415,0.0002661811013240367,0.0138414166867733
18050069499287,1.3239935636520386,-9.2655611038208,3.114856481552124,0.00452507846057415,-0.0053236219100654125,0.0138414166867733
18050070736575,1.2856863737106323,-9.296685218811035,3.136404275894165,0.00931633822619915,-0.00958251953125,0.014373779296875
18050071973837,1.3287819623947144,-9.294291496276855,3.0992941856384277,0.013309055007994175,-0.008251613937318325,0.00984870083630085
18050073211112,1.2844892740249634,-9.315838813781738,3.1304187774658203,0.01410759799182415,-0.007453070487827063,0.0063883461989462376
18050074448387,1.294066071510315,-9.285911560058594,3.1088709831237793,0.0042588976211845875,-0.007453070487827063,0.0071868896484375
18050075685675,1.335964560508728,-9.307458877563477,3.1064767837524414,0.003460354171693325,-0.0037265352439135313,0.00958251953125
18050076922950,1.3239935636520386,-9.284714698791504,3.1244332790374756,0.0066545275039970875,-0.0039927163161337376,0.00692070834338665
18050078160237,1.3060370683670044,-9.239224433898926,3.0837318897247314,0.004791259765625,-0.0063883461989462376,0.0042588976211845875
18050079397525,1.3251906633377075,-9.264363288879395,3.118447780609131,0.003460354171693325,-0.013309055007994175,0.0071868896484375
18050080634787,1.3275848627090454,-9.242815971374512,3.116053581237793,0.010114881210029125,-0.005589802749454975,0.0071868896484375
18050081872075,1.314416766166687,-9.223662376403809,3.1064767837524414,0.01224433071911335,-0.0023956298828125,0.0071868896484375
18050083109337,1.3204022645950317,-9.23682975769043,3.117250680923462,0.010114881210029125,-0.007453070487827063,0.0090501569211483
18050084346612,1.334767460823059,-9.223662376403809,3.1747114658355713,0.0077192517928779125,-0.00958251953125,0.0010647244052961469
18050085583900,1.3311761617660522,-9.23563289642334,3.138798475265503,0.0090501569211483,-0.0063883461989462376,0.0018632676219567657
18050086821175,1.3299790620803833,-9.208099365234375,3.0777463912963867,0.0119781494140625,-0.00692070834338665,0.0031941730994731188
18050088058450,1.2737152576446533,-9.257181167602539,3.1088709831237793,0.01357523538172245,-0.00958251953125,0.0042588976211845875
18050089295712,1.3215993642807007,-9.21288776397705,3.089717388153076,0.00958251953125,-0.008517795242369175,0.0026618109550327063
18050090533012,1.3024457693099976,-9.2033109664917,3.070563793182373,0.010913425125181675,-0.004791259765625,0.0
18050091770275,1.2880805730819702,-9.257181167602539,3.1040825843811035,0.01410759799182415,-0.0026618109550327063,0.0007985432748682797
18050093007550,1.2868834733963013,-9.23323917388916,3.134010076522827,0.0162370465695858,-0.00452507846057415,0.005855984054505825
18050094244825,1.2820950746536255,-9.259574890136719,3.0765492916107178,0.01650322787463665,-0.004791259765625,-0.0010647244052961469
18050095482125,1.3395558595657349,-9.26915168762207,3.1256303787231445,0.01756795309484005,-0.008783976547420025,-0.0007985432748682797
18050096719400,1.314416766166687,-9.253589630126953,3.116053581237793,0.0186326764523983,-0.0071868896484375,-0.0042588976211845875
18050097956675,1.294066071510315,-9.287108421325684,3.1244332790374756,0.02022976242005825,-0.0037265352439135313,-0.00452507846057415
18050099193950,1.3120225667953491,-9.288305282592773,3.136404275894165,0.0191650390625,-0.00931633822619915,-0.0042588976211845875
18050100431237,1.3395558595657349,-9.257181167602539,3.1304187774658203,0.01783413253724575,-0.00958251953125,-0.0021294488105922937
18050101668512,1.2868834733963013,-9.251195907592773,3.0813376903533936,0.01836649514734745,-0.008517795242369175,0.0007985432748682797
18050102905775,1.2856863737106323,-9.3026704788208,3.1220390796661377,0.01756795309484005,-0.007985432632267475,-0.00452507846057415
18050104143050,1.2689268589019775,-9.232041358947754,3.134010076522827,0.0173017717897892,-0.005057440605014563,-0.005057440605014563
18050105380312,1.3072341680526733,-9.23682975769043,3.1495723724365234,0.02076212503015995,-0.00692070834338665,-0.0005323622026480734
18050106617612,1.2988544702529907,-9.222464561462402,3.139995574951172,0.02369011752307415,-0.008517795242369175,-0.005855984054505825
18050107854875,1.314416766166687,-9.244012832641602,3.137601375579834,0.023956298828125,-0.008517795242369175,-0.0066545275039970875
18050109092175,1.3072341680526733,-9.248801231384277,3.0992941856384277,0.02129448764026165,-0.0090501569211483,-0.0037265352439135313
18050110329437,1.2952631711959839,-9.252392768859863,3.1268274784088135,0.0223592109978199,-0.0066545275039970875,-0.0023956298828125
18050111566700,1.313219666481018,-9.23443603515625,3.135207176208496,0.0258195661008358,-0.0063883461989462376,-0.005057440605014563
18050112803987,1.337161660194397,-9.216479301452637,3.157952070236206,0.02315775491297245,-0.005057440605014563,-0.00692070834338665
18050114041275,1.2761094570159912,-9.245209693908691,3.1435868740081787,0.02661811001598835,-0.00958251953125,-0.007985432632267475
18050115278550,1.3060370683670044,-9.252392768859863,3.132812976837158,0.0300784632563591,-0.00958251953125,-0.0042588976211845875
18050116515825,1.3563152551651,-9.224859237670898,3.1902737617492676,0.0263519287109375,-0.01224433071911335,-0.0042588976211845875
18050117753087,1.2773066759109497,-9.23682975769043,3.154360771179199,0.02502102218568325,-0.010913425125181675,0.0
18050118990387,1.2449848651885986,-9.246407508850098,3.205836057662964,0.0306108258664608,-0.00692070834338665,-0.0053236219100654125
18050120227650,1.3311761617660522,-9.281123161315918,3.180696964263916,0.0292799212038517,-0.005589802749454975,-0.005855984054505825
18050121464925,1.3024457693099976,-9.254786491394043,3.1483752727508545,0.0282151959836483,-0.0071868896484375,-0.0042588976211845875
18050122702200,1.3467384576797485,-9.311050415039062,3.201047658920288,0.03034464456140995,-0.005855984054505825,-0.00452507846057415
18050123939475,1.290474772453308,-9.313445091247559,3.2190041542053223,0.02848137728869915,-0.003460354171693325,-0.007453070487827063
18050125176762,1.2856863737106323,-9.294291496276855,3.1747114658355713,0.0338049978017807,-0.007985432632267475,-0.0090501569211483
18050126414037,1.3467384576797485,-9.319430351257324,3.1962592601776123,0.03087700717151165,-0.008517795242369175,-0.005057440605014563
18050127651312,1.3180080652236938,-9.29309368133545,3.2130186557769775,0.0369991734623909,-0.0071868896484375,-0.006122165359556675
18050128888587,1.3323732614517212,-9.32421875,3.1651346683502197,0.0367329902946949,-0.007985432632267475,-0.0071868896484375
18050130125862,1.3539210557937622,-9.319430351257324,3.2094273567199707,0.0343373604118824,-0.006122165359556675,-0.005855984054505825
18050131363137,1.3431471586227417,-9.29309368133545,3.1723172664642334,0.0348697230219841,-0.003460354171693325,-0.0119781494140625
18050132600412,1.3024457693099976,-9.355342864990234,3.1950621604919434,0.0327402763068676,-0.0026618109550327063,-0.008251613937318325
18050133837712,1.3539210557937622,-9.32541561126709,3.207033157348633,0.0314093679189682,0.0010647244052961469,-0.007453070487827063
18050135074975,1.316810965538025,-9.32661247253418,3.2345664501190186,0.0306108258664608,-0.0031941730994731188,-0.0114457868039608
18050136312262,1.3754688501358032,-9.342175483703613,3.2130186557769775,0.0314093679189682,-0.005057440605014563,-0.008517795242369175
18050137549525,1.3108254671096802,-9.345766067504883,3.202244758605957,0.03087700717151165,-0.0042588976211845875,-0.012510511092841625
18050138786787,1.314416766166687,-9.398438453674316,3.220201253890991,0.033538818359375,0.0002661811013240367,-0.01410759799182415
18050140024087,1.3180080652236938,-9.390059471130371,3.205836057662964,0.02794901467859745,0.0015970865497365594,-0.013309055007994175
18050141261337,1.3180080652236938,-9.398438453674316,3.184288263320923,0.03034464456140995,-0.0015970865497365594,-0.01410759799182415
18050142498662,1.2737152576446533,-9.41639518737793,3.2118215560913086,0.0263519287109375,-0.0013309054775163531,-0.015172322280704975
18050143735912,1.3299790620803833,-9.418789863586426,3.184288263320923,0.0234239362180233,0.003460354171693325,-0.008783976547420025
18050144973187,1.3192051649093628,-9.387664794921875,3.2118215560913086,0.0258195661008358,-0.0002661811013240367,-0.0039927163161337376
18050146210475,1.3204022645950317,-9.403226852416992,3.201047658920288,0.0311431884765625,-0.0071868896484375,-0.012510511092841625
18050147447750,1.3335703611373901,-9.419986724853516,3.2166099548339844,0.0271504707634449,-0.00692070834338665,-0.01171196810901165
18050148685025,1.315613865852356,-9.384073257446289,3.223792552947998,0.02422248013317585,-0.0005323622026480734,-0.00958251953125
18050149922312,1.290474772453308,-9.3828763961792,3.226186752319336,0.0247548408806324,0.0021294488105922937,-0.01463996060192585
18050151159587,1.3287819623947144,-9.379284858703613,3.207033157348633,0.0295461006462574,0.0002661811013240367,-0.01410759799182415
18050152396862,1.3251906633377075,-9.340977668762207,3.180696964263916,0.02422248013317585,-0.0010647244052961469,-0.010114881210029125
18050153634112,1.3275848627090454,-9.361329078674316,3.201047658920288,0.01756795309484005,0.0039927163161337376,-0.0119781494140625
18050154871412,1.3443442583084106,-9.338583946228027,3.1938650608062744,0.02182685025036335,0.0,-0.01117960549890995
18050156108687,1.3263877630233765,-9.311050415039062,3.242946147918701,0.02661811001598835,0.0013309054775163531,-0.01357523538172245
18050157345962,1.3443442583084106,-9.29189682006836,3.201047658920288,0.0271504707634449,0.0037265352439135313,-0.012510511092841625
18050158583225,1.3299790620803833,-9.295488357543945,3.1962592601776123,0.023956298828125,0.0018632676219567657,-0.01357523538172245
18050159820512,1.3287819623947144,-9.327810287475586,3.224989652633667,0.0215606689453125,0.003460354171693325,-0.0162370465695858
18050161057800,1.314416766166687,-9.342175483703613,3.205836057662964,0.02369011752307415,0.0005323622026480734,-0.01783413253724575
18050162295075,1.3527239561080933,-9.391256332397461,3.269282341003418,0.02315775491297245,0.0037265352439135313,-0.01410759799182415
18050163532337,1.3227964639663696,-9.32302188873291,3.3051955699920654,0.02608574740588665,0.003460354171693325,-0.01597086526453495
18050164769625,1.3922282457351685,-9.345766067504883,3.2166099548339844,0.0228915736079216,0.0031941730994731188,-0.0138414166867733
18050166006900,1.3634978532791138,-9.337387084960938,3.2142157554626465,0.0204959437251091,0.0010647244052961469,-0.01756795309484005
18050167244187,1.3634978532791138,-9.32421875,3.2573113441467285,0.0252872034907341,-0.0005323622026480734,-0.015172322280704975
18050168481437,1.3611036539077759,-9.374496459960938,3.22139835357666,0.0191650390625,0.0039927163161337376,-0.01463996060192585
18050169718737,1.3419500589370728,-9.346963882446289,3.226186752319336,0.01889885775744915,0.0031941730994731188,-0.013042873702943325
18050170956012,1.3611036539077759,-9.35893440246582,3.22139835357666,0.01783413253724575,0.0013309054775163531,-0.01703559048473835
18050172193287,1.3455413579940796,-9.388861656188965,3.199850559234619,0.0162370465695858,0.0037265352439135313,-0.01463996060192585
18050173430562,1.3623007535934448,-9.38048267364502,3.2597055435180664,0.0196974016726017,0.0042588976211845875,-0.010647243820130825
18050174667850,1.4018051624298096,-9.361329078674316,3.264493942260742,0.0228915736079216,0.00452507846057415,-0.00958251953125
18050175905112,1.4221558570861816,-9.370905876159668,3.2632968425750732,0.0173017717897892,0.0053236219100654125,-0.01650322787463665
18050177142412,1.3982137441635132,-9.378087997436523,3.248931646347046,0.01463996060192585,0.0077192517928779125,-0.0138414166867733
18050178379675,1.4065935611724854,-9.376891136169434,3.226186752319336,0.0157046839594841,0.0071868896484375,-0.01836649514734745
18050179616950,1.4113819599151611,-9.311050415039062,3.2118215560913086,0.0138414166867733,0.004791259765625,-0.01996358297765255
18050180854237,1.3862427473068237,-9.36013126373291,3.2357635498046875,0.01410759799182415,0.0039927163161337376,-0.014906140975654125
18050182091512,1.380257248878479,-9.379284858703613,3.2178070545196533,0.01996358297765255,0.0029279920272529125,-0.013309055007994175
18050183328787,1.3994109630584717,-9.388861656188965,3.2393548488616943,0.012776692397892475,0.0013309054775163531,-0.010913425125181675
18050184566050,1.382651448249817,-9.364919662475586,3.264493942260742,0.01597086526453495,0.0013309054775163531,-0.01357523538172245
18050185803325,1.3742717504501343,-9.32541561126709,3.2381577491760254,0.01171196810901165,0.00452507846057415,-0.0138414166867733
18050187040612,1.3754688501358032,-9.362525939941406,3.2848448753356934,0.00692070834338665,0.0021294488105922937,-0.01117960549890995
18050188277887,1.3646949529647827,-9.349357604980469,3.2537200450897217,0.0077192517928779125,0.0021294488105922937,-0.014373779296875
18050189515175,1.4041993618011475,-9.327810287475586,3.202244758605957,0.008251613937318325,0.0026618109550327063,-0.01836649514734745
18050190752437,1.3910311460494995,-9.336189270019531,3.2369606494903564,0.008251613937318325,0.0053236219100654125,-0.01357523538172245
18050191989725,1.4018051624298096,-9.352949142456055,3.2321722507476807,0.010114881210029125,0.00452507846057415,-0.01171196810901165
18050193227000,1.3682862520217896,-9.348160743713379,3.250128746032715,0.007985432632267475,-0.0015970865497365594,-0.014373779296875
18050194464275,1.3754688501358032,-9.345766067504883,3.2561142444610596,0.007985432632267475,0.0018632676219567657,-0.010913425125181675
18050195701550,1.3934253454208374,-9.388861656188965,3.2357635498046875,0.012776692397892475,0.00452507846057415,-0.01463996060192585
18050196938837,1.4185645580291748,-9.370905876159668,3.228580951690674,0.005855984054505825,0.0007985432748682797,-0.01463996060192585
18050198176087,1.3634978532791138,-9.364919662475586,3.201047658920288,0.006122165359556675,0.0023956298828125,-0.01224433071911335
18050199413387,1.3706804513931274,-9.409213066101074,3.2357635498046875,0.00958251953125,0.0007985432748682797,-0.010647243820130825
18050200650662,1.3910311460494995,-9.375694274902344,3.1950621604919434,0.0042588976211845875,0.0053236219100654125,-0.010381062515079975
18050201887925,1.4101848602294922,-9.373299598693848,3.2118215560913086,0.0077192517928779125,0.007453070487827063,-0.015172322280704975
18050203125212,1.43532395362854,-9.343372344970703,3.2190041542053223,0.008783976547420025,0.0018632676219567657,-0.014373779296875
18050204362487,1.3886369466781616,-9.378087997436523,3.250128746032715,0.007453070487827063,0.0018632676219567657,-0.010381062515079975
18050205599775,1.3910311460494995,-9.363722801208496,3.179499864578247,0.0013309054775163531,0.0042588976211845875,-0.013309055007994175
18050206837037,1.3934253454208374,-9.369708061218262,3.180696964263916,0.0021294488105922937,0.0015970865497365594,-0.01224433071911335
18050208074325,1.3419500589370728,-9.39365005493164,3.205836057662964,0.0066545275039970875,0.00452507846057415,-0.00958251953125
18050209311587,1.4053964614868164,-9.35893440246582,3.1926679611206055,0.0063883461989462376,0.0018632676219567657,-0.0114457868039608
18050210548887,1.3718775510787964,-9.363722801208496,3.226186752319336,0.0015970865497365594,-0.0015970865497365594,-0.01224433071911335
18050211786162,1.3982137441635132,-9.39245319366455,3.224989652633667,0.003460354171693325,0.0007985432748682797,-0.010647243820130825
18050213023412,1.3658920526504517,-9.3828763961792,3.2154128551483154,0.005589802749454975,0.0042588976211845875,-0.0114457868039608
18050214260712,1.3515268564224243,-9.361329078674316,3.2166099548339844,0.0066545275039970875,0.0042588976211845875,-0.0090501569211483
18050215497987,1.3910311460494995,-9.368511199951172,3.207033157348633,0.0013309054775163531,0.0042588976211845875,-0.0071868896484375
18050216735262,1.3658920526504517,-9.369708061218262,3.202244758605957,0.0026618109550327063,0.0002661811013240367,-0.00452507846057415
18050217972550,1.4030022621154785,-9.35893440246582,3.1926679611206055,-0.0013309054775163531,-0.0007985432748682797,-0.0071868896484375
18050219209825,1.3682862520217896,-9.348160743713379,3.22139835357666,-0.0029279920272529125,0.0029279920272529125,-0.006122165359556675
18050220447100,1.3742717504501343,-9.349357604980469,3.222595453262329,0.0018632676219567657,0.0037265352439135313,-0.00692070834338665
18050221684387,1.3706804513931274,-9.405621528625488,3.227383852005005,0.0018632676219567657,0.0077192517928779125,-0.0071868896484375
18050222921650,1.4089877605438232,-9.374496459960938,3.224989652633667,0.0021294488105922937,0.0042588976211845875,-0.00452507846057415
18050224158925,1.4041993618011475,-9.366117477416992,3.201047658920288,-0.0021294488105922937,0.0007985432748682797,-0.005057440605014563
18050225396200,1.3910311460494995,-9.385271072387695,3.183091163635254,-0.0010647244052961469,0.0005323622026480734,-0.004791259765625
18050226633487,1.4065935611724854,-9.363722801208496,3.178302764892578,-0.0039927163161337376,0.0026618109550327063,-0.0010647244052961469
18050227870750,1.3551181554794312,-9.35893440246582,3.157952070236206,-0.0002661811013240367,0.0042588976211845875,-0.0005323622026480734
18050229108025,1.3491326570510864,-9.348160743713379,3.1759085655212402,-0.0015970865497365594,0.0042588976211845875,-0.0002661811013240367
18050230345312,1.4197616577148438,-9.344569206237793,3.179499864578247,-0.010647243820130825,0.00452507846057415,-0.0010647244052961469
18050231582575,1.3934253454208374,-9.315838813781738,3.1699230670928955,-0.006122165359556675,0.005589802749454975,-0.0021294488105922937
18050232819875,1.3766659498214722,-9.362525939941406,3.1926679611206055,-0.00452507846057415,0.0042588976211845875,-0.0029279920272529125
18050234057137,1.381454348564148,-9.272743225097656,3.185485363006592,-0.0026618109550327063,0.0018632676219567657,-0.0021294488105922937
18050235294425,1.37906014919281,-9.272743225097656,3.157952070236206,-0.005057440605014563,0.0021294488105922937,0.0037265352439135313
18050236531700,1.3611036539077759,-9.313445091247559,3.159149169921875,-0.007985432632267475,0.005855984054505825,0.0015970865497365594
18050237768987,1.3563152551651,-9.26795482635498,3.204638957977295,-0.008251613937318325,0.0039927163161337376,0.0005323622026480734
18050239006262,1.380257248878479,-9.249998092651367,3.183091163635254,-0.0013309054775163531,0.008251613937318325,-0.0013309054775163531
18050240243512,1.3539210557937622,-9.278728485107422,3.163937568664551,-0.0010647244052961469,0.0077192517928779125,0.0021294488105922937
18050241480812,1.3766659498214722,-9.294291496276855,3.1926679611206055,-0.0013309054775163531,0.0042588976211845875,0.0018632676219567657
18050242718075,1.3898340463638306,-9.252392768859863,3.1675288677215576,-0.0042588976211845875,0.0,0.0029279920272529125
18050243955375,1.3934253454208374,-9.259574890136719,3.161543369293213,-0.0037265352439135313,0.0077192517928779125,0.005589802749454975
18050245192650,1.3934253454208374,-9.240421295166016,3.160346269607544,-0.0005323622026480734,0.004791259765625,0.0018632676219567657
18050246429912,1.3850456476211548,-9.270349502563477,3.180696964263916,-0.0005323622026480734,0.004791259765625,0.0010647244052961469
18050247667187,1.3850456476211548,-9.221267700195312,3.137601375579834,-0.0021294488105922937,0.0013309054775163531,0.0002661811013240367
18050248904462,1.4197616577148438,-9.263166427612305,3.183091163635254,-0.0015970865497365594,0.0053236219100654125,0.003460354171693325
18050250141750,1.4041993618011475,-9.258378028869629,3.1531636714935303,0.0013309054775163531,0.0077192517928779125,0.0037265352439135313
18050251379050,1.4006080627441406,-9.26675796508789,3.163937568664551,0.004791259765625,0.0071868896484375,0.0013309054775163531
18050252616300,1.3670891523361206,-9.263166427612305,3.1292216777801514,0.0037265352439135313,0.008517795242369175,0.0
18050253853600,1.3742717504501343,-9.28950309753418,3.1711201667785645,0.0021294488105922937,0.008251613937318325,0.0039927163161337376
18050255090875,1.3611036539077759,-9.297882080078125,3.1723172664642334,-0.0015970865497365594,0.007453070487827063,0.003460354171693325
18050256328137,1.4030022621154785,-9.26795482635498,3.1495723724365234,-0.0023956298828125,0.007453070487827063,0.0029279920272529125
18050257565412,1.3551181554794312,-9.36013126373291,3.141192674636841,-0.0029279920272529125,0.006122165359556675,0.007453070487827063
18050258802712,1.380257248878479,-9.355342864990234,3.1938650608062744,-0.0002661811013240367,0.0066545275039970875,0.0015970865497365594
18050260039962,1.3838485479354858,-9.333795547485352,3.161543369293213,0.0021294488105922937,0.00931633822619915,0.0031941730994731188
18050261277250,1.3287819623947144,-9.354146003723145,3.159149169921875,0.0005323622026480734,0.0119781494140625,0.0015970865497365594
18050262514525,1.3910311460494995,-9.35654067993164,3.185485363006592,0.0077192517928779125,0.0042588976211845875,0.0077192517928779125
18050263751812,1.3682862520217896,-9.340977668762207,3.111265182495117,0.0002661811013240367,0.00452507846057415,0.0018632676219567657
18050264989075,1.358709454536438,-9.329007148742676,3.184288263320923,-0.0042588976211845875,0.010381062515079975,0.0066545275039970875
18050266226362,1.4018051624298096,-9.363722801208496,3.1747114658355713,-0.0005323622026480734,0.0077192517928779125,0.01117960549890995
18050267463637,1.3718775510787964,-9.368511199951172,3.137601375579834,0.0021294488105922937,0.00452507846057415,0.0090501569211483
18050268700912,1.3682862520217896,-9.32302188873291,3.154360771179199,-0.0039927163161337376,0.007985432632267475,-0.0005323622026480734
18050269938187,1.4030022621154785,-9.281123161315918,3.154360771179199,-0.006122165359556675,0.0039927163161337376,0.0026618109550327063
18050271175475,1.3946224451065063,-9.327810287475586,3.1711201667785645,-0.0005323622026480734,0.0029279920272529125,0.0071868896484375
18050272412750,1.3970166444778442,-9.297882080078125,3.141192674636841,-0.0002661811013240367,0.008783976547420025,0.0114457868039608
18050273650025,1.4329297542572021,-9.281123161315918,3.141192674636841,0.0037265352439135313,0.00931633822619915,0.00692070834338665
18050274887312,1.4257471561431885,-9.283516883850098,3.1232361793518066,0.0042588976211845875,0.0077192517928779125,0.01171196810901165
18050276124575,1.382651448249817,-9.248801231384277,3.1423897743225098,0.0063883461989462376,0.0053236219100654125,0.01889885775744915
18050277361875,1.413776159286499,-9.275137901306152,3.1531636714935303,0.0002661811013240367,0.004791259765625,0.010647243820130825
18050278599112,1.3754688501358032,-9.216479301452637,3.179499864578247,-0.0018632676219567657,0.0066545275039970875,0.0071868896484375
18050279836412,1.3874398469924927,-9.209297180175781,3.177105665206909,0.0031941730994731188,0.00692070834338665,0.01224433071911335
18050281073687,1.37906014919281,-9.249998092651367,3.1723172664642334,0.0042588976211845875,0.004791259765625,0.01410759799182415
18050282310962,1.3646949529647827,-9.23682975769043,3.159149169921875,0.0037265352439135313,0.0002661811013240367,0.01410759799182415
18050283548237,1.3706804513931274,-9.275137901306152,3.132812976837158,0.0010647244052961469,0.0015970865497365594,0.0138414166867733
18050284785537,1.381454348564148,-9.26915168762207,3.159149169921875,0.0018632676219567657,0.00452507846057415,0.01224433071911335
18050286022812,1.4030022621154785,-9.260772705078125,3.137601375579834,0.005057440605014563,0.003460354171693325,0.013042873702943325
18050287260075,1.3694833517074585,-9.3026704788208,3.162740468978882,0.0031941730994731188,-0.004791259765625,0.010913425125181675
18050288497362,1.3730746507644653,-9.301473617553711,3.113659381866455,0.0077192517928779125,-0.0029279920272529125,0.01224433071911335
18050289734625,1.3491326570510864,-9.301473617553711,3.1519665718078613,0.008517795242369175,0.0026618109550327063,0.0066545275039970875
18050290971900,1.359906554222107,-9.327810287475586,3.162740468978882,0.0071868896484375,0.0037265352439135313,0.012510511092841625
18050292209187,1.382651448249817,-9.314641952514648,3.160346269607544,0.00452507846057415,0.005589802749454975,0.012776692397892475
18050293446450,1.3515268564224243,-9.349357604980469,3.139995574951172,0.007453070487827063,0.0023956298828125,0.0090501569211483
18050294683737,1.3730746507644653,-9.342175483703613,3.163937568664551,0.006122165359556675,0.0026618109550327063,0.00931633822619915
18050295921012,1.3730746507644653,-9.38048267364502,3.1651346683502197,0.0018632676219567657,0.0039927163161337376,0.0071868896484375
18050297158287,1.3682862520217896,-9.3828763961792,3.178302764892578,0.0015970865497365594,0.0010647244052961469,0.00692070834338665
18050298395575,1.3491326570510864,-9.32541561126709,3.1902737617492676,0.0002661811013240367,-0.0013309054775163531,-0.0018632676219567657
18050299632850,1.3634978532791138,-9.424775123596191,3.1687259674072266,0.0007985432748682797,-0.0021294488105922937,0.003460354171693325
18050300870125,1.3958195447921753,-9.367314338684082,3.157952070236206,-0.0010647244052961469,0.0039927163161337376,0.007453070487827063
18050302107400,1.3754688501358032,-9.355342864990234,3.1878795623779297,-0.0039927163161337376,0.0002661811013240367,0.008251613937318325
18050303344675,1.358709454536438,-9.409213066101074,3.163937568664551,-0.0066545275039970875,-0.0007985432748682797,0.00452507846057415
18050304581950,1.3970166444778442,-9.402029991149902,3.1902737617492676,-0.0039927163161337376,-0.0007985432748682797,0.0021294488105922937
18050305819237,1.3658920526504517,-9.39245319366455,3.1687259674072266,0.0026618109550327063,-0.005855984054505825,0.0029279920272529125
18050307056525,1.3539210557937622,-9.387664794921875,3.1890766620635986,0.0005323622026480734,0.0010647244052961469,0.0010647244052961469
18050308293812,1.414973258972168,-9.41400146484375,3.1735143661499023,-0.0007985432748682797,0.0002661811013240367,0.005589802749454975
18050309531075,1.3958195447921753,-9.388861656188965,3.205836057662964,-0.005855984054505825,-0.0005323622026480734,0.004791259765625
18050310768337,1.382651448249817,-9.369708061218262,3.1699230670928955,-0.0026618109550327063,-0.0010647244052961469,0.0063883461989462376
18050312005637,1.3862427473068237,-9.3828763961792,3.181894063949585,-0.0039927163161337376,-0.0018632676219567657,0.013309055007994175
18050313242912,1.4245500564575195,-9.350554466247559,3.160346269607544,-0.00452507846057415,-0.0023956298828125,0.008783976547420025
18050314480175,1.3934253454208374,-9.396044731140137,3.135207176208496,-0.0023956298828125,0.0005323622026480734,0.00452507846057415
18050315717462,1.3335703611373901,-9.36013126373291,3.178302764892578,-0.0039927163161337376,-0.0007985432748682797,0.004791259765625
18050316954750,1.4281413555145264,-9.398438453674316,3.1268274784088135,-0.0066545275039970875,-0.0063883461989462376,0.008251613937318325
18050318192037,1.4077906608581543,-9.351752281188965,3.138798475265503,-0.0066545275039970875,-0.0031941730994731188,0.00958251953125
18050319429312,1.380257248878479,-9.350554466247559,3.1435868740081787,-0.003460354171693325,-0.008251613937318325,0.0119781494140625
18050320666562,1.3886369466781616,-9.349357604980469,3.132812976837158,0.0005323622026480734,-0.008783976547420025,0.0071868896484375
18050321903862,1.3766659498214722,-9.307458877563477,3.1076738834381104,-0.0013309054775163531,-0.0029279920272529125,0.0119781494140625
18050323141125,1.3623007535934448,-9.349357604980469,3.1495723724365234,-0.0015970865497365594,-0.0039927163161337376,0.012776692397892475
18050324378412,1.3682862520217896,-9.320627212524414,3.1495723724365234,-0.0026618109550327063,-0.0042588976211845875,0.0037265352439135313
18050325615687,1.3634978532791138,-9.311050415039062,3.162740468978882,-0.0037265352439135313,-0.006122165359556675,0.00984870083630085
18050326852975,1.3299790620803833,-9.315838813781738,3.1759085655212402,-0.0077192517928779125,-0.005057440605014563,0.0114457868039608
18050328090250,1.382651448249817,-9.308656692504883,3.134010076522827,-0.0037265352439135313,-0.003460354171693325,0.010647243820130825
18050329327512,1.3670891523361206,-9.32302188873291,3.137601375579834,-0.007453070487827063,-0.00984870083630085,0.00692070834338665
18050330564787,1.358709454536438,-9.294291496276855,3.1507694721221924,-0.007453070487827063,-0.0071868896484375,0.0071868896484375
18050331802062,1.3658920526504517,-9.327810287475586,3.1459810733795166,-0.006122165359556675,-0.0021294488105922937,0.010381062515079975
18050333039337,1.3634978532791138,-9.333795547485352,3.137601375579834,-0.0005323622026480734,-0.010913425125181675,0.006122165359556675
18050334276637,1.3778630495071411,-9.32661247253418,3.1675288677215576,-0.003460354171693325,-0.012510511092841625,0.007453070487827063
18050335513912,1.3515268564224243,-9.28950309753418,3.138798475265503,-0.0066545275039970875,-0.0053236219100654125,0.0039927163161337376
18050336751187,1.359906554222107,-9.252392768859863,3.1962592601776123,-0.0031941730994731188,-0.00931633822619915,0.00692070834338665
18050337988462,1.335964560508728,-9.294291496276855,3.183091163635254,-0.004791259765625,-0.01463996060192585,0.010913425125181675
18050339225737,1.3323732614517212,-9.294291496276855,3.1651346683502197,-0.0053236219100654125,-0.014373779296875,0.0071868896484375
18050340463012,1.358709454536438,-9.315838813781738,3.160346269607544,-0.0063883461989462376,-0.010381062515079975,0.0071868896484375
18050341700287,1.3682862520217896,-9.301473617553711,3.159149169921875,-0.005855984054505825,-0.010114881210029125,0.0071868896484375
18050342937562,1.357512354850769,-9.303868293762207,3.1100680828094482,-0.0023956298828125,-0.010913425125181675,0.012776692397892475
18050344174850,1.3862427473068237,-9.312247276306152,3.113659381866455,-0.0031941730994731188,-0.012510511092841625,0.0007985432748682797
18050345412112,1.3419500589370728,-9.296685218811035,3.113659381866455,-0.0042588976211845875,-0.0114457868039608,0.005589802749454975
18050346649400,1.357512354850769,-9.300276756286621,3.1495723724365234,-0.006122165359556675,-0.012510511092841625,0.006122165359556675
18050347886687,1.3778630495071411,-9.279926300048828,3.138798475265503,0.0002661811013240367,-0.0119781494140625,0.005589802749454975
18050349123950,1.381454348564148,-9.317035675048828,3.1651346683502197,-0.0042588976211845875,-0.0138414166867733,0.013309055007994175
18050350361237,1.3419500589370728,-9.311050415039062,3.177105665206909,-0.0037265352439135313,-0.01357523538172245,0.003460354171693325
18050351598512,1.314416766166687,-9.305065155029297,3.1902737617492676,-0.00452507846057415,-0.01410759799182415,0.005855984054505825
18050352835800,1.3431471586227417,-9.342175483703613,3.1699230670928955,-0.004791259765625,-0.015438503585755825,0.008783976547420025
18050354073075,1.334767460823059,-9.362525939941406,3.1459810733795166,-0.0026618109550327063,-0.012776692397892475,0.0090501569211483
18050355310350,1.3527239561080933,-9.329007148742676,3.138798475265503,-0.005057440605014563,-0.0138414166867733,0.003460354171693325
18050356547612,1.3263877630233765,-9.343372344970703,3.1244332790374756,-0.004791259765625,-0.0162370465695858,0.0005323622026480734
18050357784900,1.3275848627090454,-9.368511199951172,3.1483752727508545,0.0002661811013240367,-0.010913425125181675,0.004791259765625
18050359022187,1.3275848627090454,-9.333795547485352,3.1902737617492676,-0.005589802749454975,-0.008783976547420025,0.004791259765625
18050360259462,1.3311761617660522,-9.342175483703613,3.161543369293213,-0.00452507846057415,-0.01224433071911335,0.0031941730994731188
18050361496737,1.316810965538025,-9.321824073791504,3.1268274784088135,-0.007453070487827063,-0.0071868896484375,-0.0005323622026480734
18050362734025,1.3096283674240112,-9.340977668762207,3.1040825843811035,-0.0071868896484375,-0.00692070834338665,-0.0010647244052961469
18050363971275,1.3443442583084106,-9.297882080078125,3.1974563598632812,-0.0066545275039970875,-0.015438503585755825,0.0
18050365208550,1.3539210557937622,-9.330204010009766,3.1447839736938477,-0.004791259765625,-0.01463996060192585,0.0007985432748682797
18050366445837,1.3275848627090454,-9.3026704788208,3.1699230670928955,-0.0005323622026480734,-0.014906140975654125,-0.0021294488105922937
18050367683125,1.3287819623947144,-9.307458877563477,3.184288263320923,-0.0063883461989462376,-0.01410759799182415,-0.008251613937318325
18050368920387,1.338358759880066,-9.29309368133545,3.162740468978882,-0.0042588976211845875,-0.015438503585755825,-0.0026618109550327063
18050370157687,1.3563152551651,-9.281123161315918,3.180696964263916,-0.0066545275039970875,-0.010913425125181675,0.003460354171693325
18050371394975,1.316810965538025,-9.281123161315918,3.1735143661499023,-0.0063883461989462376,-0.00984870083630085,-0.005589802749454975
18050372632237,1.338358759880066,-9.276334762573242,3.1878795623779297,-0.003460354171693325,-0.01357523538172245,-0.0053236219100654125
18050373869512,1.3455413579940796,-9.295488357543945,3.116053581237793,-0.0023956298828125,-0.01703559048473835,-0.0063883461989462376
18050375106787,1.3251906633377075,-9.275137901306152,3.1687259674072266,-0.004791259765625,-0.00931633822619915,-0.0114457868039608
18050376344062,1.315613865852356,-9.253589630126953,3.155557870864868,-0.0063883461989462376,-0.006122165359556675,-0.008251613937318325
18050377581350,1.335964560508728,-9.272743225097656,3.181894063949585,-0.0023956298828125,-0.005057440605014563,-0.005589802749454975
18050378818625,1.337161660194397,-9.221267700195312,3.1962592601776123,-0.005589802749454975,0.0002661811013240367,-0.0053236219100654125
18050380055912,1.3527239561080933,-9.26675796508789,3.1759085655212402,-0.0010647244052961469,0.0002661811013240367,-0.013042873702943325
18050381293200,1.334767460823059,-9.245209693908691,3.1926679611206055,-0.0005323622026480734,-0.008517795242369175,-0.010381062515079975
18050382530437,1.3503297567367554,-9.19972038269043,3.1423897743225098,0.0,-0.004791259765625,-0.007985432632267475
18050383767725,1.3431471586227417,-9.2033109664917,3.1459810733795166,0.0077192517928779125,-0.005855984054505825,-0.007985432632267475
18050385005012,1.3395558595657349,-9.218873977661133,3.1723172664642334,0.0023956298828125,-0.0071868896484375,-0.0042588976211845875
18050386242312,1.291671872138977,-9.222464561462402,3.1435868740081787,0.0013309054775163531,-0.003460354171693325,-0.00984870083630085
18050387479575,1.3479355573654175,-9.279926300048828,3.1759085655212402,0.0053236219100654125,-0.007985432632267475,-0.010381062515079975
18050388716850,1.3108254671096802,-9.254786491394043,3.1663317680358887,0.005589802749454975,-0.0039927163161337376,-0.0077192517928779125
18050389954112,1.315613865852356,-9.251195907592773,3.1902737617492676,0.005589802749454975,-0.005057440605014563,-0.0042588976211845875
18050391191400,1.3455413579940796,-9.26795482635498,3.178302764892578,0.008517795242369175,-0.0031941730994731188,-0.010913425125181675
18050392428675,1.3491326570510864,-9.230844497680664,3.180696964263916,0.007453070487827063,-0.0026618109550327063,-0.0090501569211483
18050393665950,1.3227964639663696,-9.277531623840332,3.1495723724365234,0.01171196810901165,-0.0021294488105922937,-0.00692070834338665
18050394903250,1.3096283674240112,-9.288305282592773,3.1914708614349365,0.0157046839594841,-0.0015970865497365594,-0.0023956298828125
18050396140512,1.3443442583084106,-9.26915168762207,3.1076738834381104,0.01117960549890995,-0.0002661811013240367,-0.005589802749454975
18050397377775,1.3275848627090454,-9.277531623840332,3.156754970550537,0.01171196810901165,-0.0029279920272529125,-0.0090501569211483
18050398615062,1.316810965538025,-9.300276756286621,3.1531636714935303,0.00984870083630085,0.005057440605014563,-0.006122165359556675
18050399852362,1.3048399686813354,-9.29069995880127,3.1699230670928955,0.008517795242369175,0.0039927163161337376,-0.0018632676219567657
18050401089625,1.3204022645950317,-9.277531623840332,3.141192674636841,0.01224433071911335,0.0029279920272529125,-0.0007985432748682797
18050402326912,1.3407529592514038,-9.271546363830566,3.154360771179199,0.01597086526453495,0.0023956298828125,-0.0077192517928779125
18050403564187,1.3443442583084106,-9.29189682006836,3.1423897743225098,0.012776692397892475,-0.0031941730994731188,-0.00984870083630085
18050404801462,1.3012486696243286,-9.320627212524414,3.1962592601776123,0.008517795242369175,0.0031941730994731188,-0.0013309054775163531
18050406038725,1.3431471586227417,-9.288305282592773,3.181894063949585,0.0114457868039608,0.0090501569211483,0.0029279920272529125
18050407276012,1.3515268564224243,-9.32541561126709,3.1435868740081787,0.012776692397892475,0.0037265352439135313,0.0005323622026480734
18050408513287,1.334767460823059,-9.26915168762207,3.2094273567199707,0.013042873702943325,0.0029279920272529125,-0.0005323622026480734
