timestamp_ns,accel_x,accel_y,accel_z,gyro_x,gyro_y,gyro_z
2976522277262,0.24899697303771973,-10.02452278137207,0.9002198576927185,0.0077192517928779125,-0.02608574740588665,0.1530541330575943
2976523514562,0.2908955216407776,-10.037691116333008,0.9205705523490906,0.008251613937318325,-0.02981228195130825,0.1519894003868103
2976524751887,0.33997663855552673,-10.004172325134277,0.9457097053527832,0.0077192517928779125,-0.02981228195130825,0.1650322824716568
2976525989200,0.3172317147254944,-10.019734382629395,0.94930100440979,0.007985432632267475,-0.0228915736079216,0.1613057404756546
2976527226500,0.3471592366695404,-10.02691650390625,0.9792284965515137,0.0031941730994731188,-0.0244886614382267,0.1642337292432785
2976528463812,0.3495534360408783,-9.99339771270752,0.9624691009521484,0.0021294488105922937,-0.0223592109978199,0.1647661030292511
2976529701125,0.36750996112823486,-9.967061996459961,0.9864110946655273,-0.0013309054775163531,-0.02555338479578495,0.1631690114736557
2976530938412,0.3998316824436188,-9.906009674072266,0.9876081943511963,-0.005855984054505825,-0.0271504707634449,0.1650322824716568
2976532175712,0.42616790533065796,-9.827000617980957,0.9768342971801758,-0.0037265352439135313,-0.0300784632563591,0.166629359126091
2976533413050,0.46806642413139343,-9.764751434326172,0.9792284965515137,-0.0039927163161337376,-0.02741665206849575,0.1655646413564682
2976534650362,0.46806642413139343,-9.732430458068848,0.9780313968658447,-0.0031941730994731188,-0.0292799212038517,0.1759456992149353
2976535887662,0.47884035110473633,-9.670180320739746,1.0103530883789062,-0.005855984054505825,-0.0338049978017807,0.1716867983341217
2976537124975,0.5015852451324463,-9.59835433959961,1.0319008827209473,-0.005855984054505825,-0.0330064557492733,0.1695573627948761
2976538362287,0.5374982953071594,-9.600749015808105,1.0091559886932373,-0.0039927163161337376,-0.0316755510866642,0.1695573627948761
2976539599575,0.5398924946784973,-9.558850288391113,1.013944387435913,-0.0015970865497365594,-0.03087700717151165,0.1610395610332489
2976540836900,0.5482721924781799,-9.521739959716797,1.0295066833496094,0.003460354171693325,-0.033272635191679,0.1658308207988739
2976542074187,0.5183447003364563,-9.510966300964355,1.0223240852355957,0.0037265352439135313,-0.0364668108522892,0.1658308207988739
2976543311512,0.4920084476470947,-9.527726173400879,1.0199298858642578,0.008517795242369175,-0.0401933453977108,0.161838099360466
2976544548800,0.5015852451324463,-9.526528358459473,1.015141487121582,0.01171196810901165,-0.0505744069814682,0.1655646413564682
2976545786125,0.4644751250743866,-9.530119895935059,0.9516952037811279,0.01703559048473835,-0.0465816929936409,0.1647661030292511
2976547023425,0.4321534037590027,-9.575610160827637,0.9469068050384521,0.0191650390625,-0.0457831472158432,0.1655646413564682
2976548260737,0.3770867586135864,-9.585186958312988,0.9301473498344421,0.0223592109978199,-0.0484449602663517,0.161838099360466
2976549498037,0.3902548849582672,-9.634267807006836,0.8810662031173706,0.0282151959836483,-0.0540347620844841,0.1690249890089035
2976550735362,0.4297592043876648,-9.622296333312988,0.8906430602073669,0.02794901467859745,-0.0532362200319767,0.1655646413564682
2976551972662,0.40462008118629456,-9.6618013381958,0.8104372620582581,0.033272635191679,-0.0596245639026165,0.1687588095664978
2976553209962,0.39384618401527405,-9.670180320739746,0.8044517636299133,0.0300784632563591,-0.0633511021733284,0.1700897216796875
2976554447275,0.3866635859012604,-9.679757118225098,0.8427590131759644,0.0399271659553051,-0.0684085413813591,0.1756795197725296
2976555684600,0.365115761756897,-9.673771858215332,0.7661445736885071,0.043121337890625,-0.0705379918217659,0.1751471608877182
2976556921887,0.41539400815963745,-9.696516990661621,0.7637503743171692,0.0457831472158432,-0.071868896484375,0.1794060617685318
2976558159200,0.43694180250167847,-9.677363395690918,0.7386112213134766,0.0452507846057415,-0.0750630721449852,0.1831325888633728
2976559396487,0.40462008118629456,-9.704896926879883,0.7637503743171692,0.043121337890625,-0.080919049680233,0.1826002299785614
2976560633812,0.39624038338661194,-9.728838920593262,0.7242460250854492,0.0503082275390625,-0.0793219655752182,0.1865929514169693
2976561871112,0.3866635859012604,-9.75158405303955,0.7146692276000977,0.052703857421875,-0.0883721262216568,0.1900532990694046
2976563108425,0.3531447649002075,-9.81024169921875,0.7589619159698486,0.0505744069814682,-0.0897030308842659,0.1972401887178421
2976564345737,0.3627215623855591,-9.877279281616211,0.7170634269714355,0.0516391322016716,-0.0920986607670784,0.1929812878370285
2976565583037,0.3627215623855591,-9.961075782775879,0.7026982307434082,0.0492435023188591,-0.0976884588599205,0.1967078298330307
2976566820362,0.3315969407558441,-9.947908401489258,0.7230489253997803,0.0550994873046875,-0.0971560999751091,0.1993696391582489
2976568057662,0.29568392038345337,-9.977835655212402,0.7266402244567871,0.0537685826420784,-0.1016811802983284,0.1959092915058136
2976569294962,0.2849099934101105,-10.016142845153809,0.6667851805686951,0.0460493303835392,-0.1030120849609375,0.2054918110370636
2976570532287,0.35434186458587646,-10.101137161254883,0.7038953304290771,0.0441860631108284,-0.1043429896235466,0.2084197998046875
2976571769575,0.2932897210121155,-10.153809547424316,0.7098808288574219,0.0396609827876091,-0.1059400737285614,0.2073550671339035
2976573006900,0.2801215946674347,-10.132261276245117,0.6775590777397156,0.0401933453977108,-0.1123284250497818,0.209750697016716
2976574244175,0.22026655077934265,-10.196905136108398,0.7386112213134766,0.0351359061896801,-0.1157887727022171,0.2118801474571228
2976575481500,0.24660277366638184,-10.210073471069336,0.7038953304290771,0.0258195661008358,-0.1179182231426239,0.2121463268995285
2976576718825,0.27892449498176575,-10.213664054870605,0.7122750282287598,0.0220930315554142,-0.1109975129365921,0.2116139680147171
2976577956137,0.2825157940387726,-10.204087257385254,0.7769184708595276,0.012510511092841625,-0.1075371652841568,0.2052256166934967
2976579193425,0.2693476974964142,-10.186131477355957,0.7026982307434082,0.010381062515079975,-0.1160549595952034,0.209750697016716
2976580430737,0.30526071786880493,-10.157401084899902,0.7625532746315002,0.004791259765625,-0.1181844025850296,0.2081536203622818
2976581668062,0.3315969407558441,-10.102334022521973,0.7960720658302307,0.0015970865497365594,-0.1189829483628273,0.2052256166934967
2976582905350,0.3148375153541565,-10.105925559997559,0.8391677141189575,-0.0063883461989462376,-0.1200476735830307,0.204959437251091
2976584142662,0.3579331636428833,-10.012551307678223,0.788889467716217,-0.0039927163161337376,-0.1219109445810318,0.2062903493642807
2976585379987,0.38905778527259827,-9.99100399017334,0.8164227604866028,-0.005855984054505825,-0.1213785782456398,0.2046932578086853
2976586617275,0.38307228684425354,-9.965864181518555,0.8966285586357117,-0.01117960549890995,-0.1251051127910614,0.2014990895986557
2976587854575,0.38905778527259827,-9.880870819091797,0.8259996175765991,-0.0173017717897892,-0.1264360249042511,0.1985711008310318
2976589091887,0.41299980878829956,-9.801861763000488,0.8547300100326538,-0.010913425125181675,-0.1288316547870636,0.200168177485466
2976590329187,0.3998316824436188,-9.756372451782227,0.9026140570640564,-0.0119781494140625,-0.1344214528799057,0.1932474672794342
2976591566512,0.3818751871585846,-9.703699111938477,0.8619126081466675,-0.010647243820130825,-0.1384141743183136,0.1903194785118103
2976592803825,0.4345476031303406,-9.691728591918945,0.8643068075180054,-0.010381062515079975,-0.1429392546415329,0.1876576691865921
2976594041125,0.40222588181495667,-9.678560256958008,0.8307880163192749,-0.013042873702943325,-0.1450686901807785,0.1839311420917511
2976595278425,0.41539400815963745,-9.589975357055664,0.8870517611503601,-0.010913425125181675,-0.1424068808555603,0.1804707795381546
2976596515737,0.44173023104667664,-9.610325813293457,0.8355764150619507,-0.005855984054505825,-0.142673060297966,0.1756795197725296
2976597753062,0.3842693865299225,-9.545681953430176,0.8535329103469849,-0.00452507846057415,-0.1541188508272171,0.1719529926776886
2976598990362,0.33039984107017517,-9.515754699707031,0.8355764150619507,0.0021294488105922937,-0.1541188508272171,0.1706220805644989
2976600227662,0.3411737382411957,-9.531316757202148,0.8379706144332886,0.0037265352439135313,-0.1597086638212204,0.161838099360466
2976601464975,0.3495534360408783,-9.500192642211914,0.8535329103469849,0.007985432632267475,-0.1567806601524353,0.1607733815908432
2976602702287,0.3016694188117981,-9.508572578430176,0.8032546639442444,0.010647243820130825,-0.1575792133808136,0.1623704731464386
2976603939575,0.2992752194404602,-9.527726173400879,0.8367735147476196,0.015438503585755825,-0.1639675498008728,0.1554497629404068
2976605176900,0.27892449498176575,-9.487024307250977,0.8379706144332886,0.01650322787463665,-0.1708882600069046,0.1538526713848114
2976606414200,0.3016694188117981,-9.478644371032715,0.8415619134902954,0.0252872034907341,-0.1695573627948761,0.1501261442899704
2976607651500,0.29807811975479126,-9.491812705993652,0.8307880163192749,0.02901373989880085,-0.1740824282169342,0.1490614116191864
2976608888825,0.29568392038345337,-9.519346237182617,0.8619126081466675,0.0316755510866642,-0.181003138422966,0.1477305144071579
2976610126125,0.23582887649536133,-9.552865028381348,0.849941611289978,0.0372653529047966,-0.1833987683057785,0.142673060297966
2976611363425,0.22505496442317963,-9.560047149658203,0.8822633624076843,0.0404595248401165,-0.181003138422966,0.1400112509727478
2976612600750,0.2298433631658554,-9.552865028381348,0.8259996175765991,0.0393948033452034,-0.1786075085401535,0.1328243613243103
2976613838037,0.21428105235099792,-9.583989143371582,0.8535329103469849,0.042855154722929,-0.1847296804189682,0.1290978342294693
2976615075337,0.16998831927776337,-9.564835548400879,0.8678981065750122,0.0439198799431324,-0.1855282187461853,0.1352199912071228
2976616312662,0.1711854189634323,-9.585186958312988,0.8738836050033569,0.0503082275390625,-0.1881900280714035,0.1306949108839035
2976617549962,0.152031809091568,-9.569623947143555,0.8595184087753296,0.0588260218501091,-0.195376917719841,0.128299281001091
2976618787287,0.1280897855758667,-9.551668167114258,0.8248025178909302,0.0566965714097023,-0.1863267719745636,0.1200476735830307
2976620024575,0.15801730751991272,-9.528923034667969,0.8104372620582581,0.0588260218501091,-0.1879238486289978,0.1195153146982193
2976621261887,0.16160862147808075,-9.525331497192383,0.8559271097183228,0.0652143657207489,-0.191650390625,0.1195153146982193
2976622499187,0.17477671802043915,-9.551668167114258,0.8415619134902954,0.0689409002661705,-0.1892547607421875,0.1200476735830307
2976623736512,0.13048399984836578,-9.489418983459473,0.8236054182052612,0.0657467320561409,-0.1884562075138092,0.1160549595952034
2976624973812,0.11372458189725876,-9.495404243469238,0.8535329103469849,0.0694732666015625,-0.1951107382774353,0.1125946044921875
2976626211112,0.1412578970193863,-9.501389503479004,0.8595184087753296,0.07666015625,-0.1983049213886261,0.1181844025850296
2976627448425,0.05027823522686958,-9.475052833557129,0.8702923059463501,0.0790557861328125,-0.196441650390625,0.1147240549325943
2976628685737,0.12090718746185303,-9.531316757202148,0.8607155084609985,0.0806528702378273,-0.1932474672794342,0.1133931428194046
2976629923037,0.08858546614646912,-9.497797966003418,0.9002198576927185,0.0827823206782341,-0.1935136616230011,0.114990234375
2976631160350,0.09457096457481384,-9.477447509765625,0.8702923059463501,0.0889044851064682,-0.1983049213886261,0.1141916885972023
2976632397662,0.14245499670505524,-9.47265911102295,0.8643068075180054,0.090501569211483,-0.1975063681602478,0.1181844025850296
2976633634962,0.07781155407428741,-9.440337181091309,0.871489405632019,0.0891706645488739,-0.1927151083946228,0.1157887727022171
2976634872275,0.07062894850969315,-9.428366661071777,0.8343793153762817,0.0920986607670784,-0.1961754709482193,0.1195153146982193
2976636109600,0.14006079733371735,-9.455899238586426,0.871489405632019,0.0971560999751091,-0.1956430971622467,0.119249127805233
2976637346900,0.1604115217924118,-9.461885452270508,0.8379706144332886,0.0982208251953125,-0.196441650390625,0.1216447576880455
2976638584187,0.13766659796237946,-9.44752025604248,0.8702923059463501,0.0992855504155159,-0.1943121999502182,0.1189829483628273
2976639821500,0.17477671802043915,-9.466673851013184,0.8643068075180054,0.1059400737285614,-0.1879238486289978,0.1229756623506546
2976641058800,0.15442600846290588,-9.477447509765625,0.8858546614646912,0.1083357036113739,-0.1879238486289978,0.1309611052274704
2976642296112,0.18794482946395874,-9.44991397857666,0.950498104095459,0.1123284250497818,-0.1908518373966217,0.1264360249042511
2976643533425,0.17836803197860718,-9.457097053527832,0.93254154920578,0.1141916885972023,-0.1919165700674057,0.1208462193608284
2976644770737,0.1843535304069519,-9.41639518737793,0.9361328482627869,0.1157887727022171,-0.1913842111825943,0.1275007426738739
2976646008025,0.16759411990642548,-9.434351921081543,0.9457097053527832,0.1155225932598114,-0.1913842111825943,0.129364013671875
2976647245362,0.25737667083740234,-9.440337181091309,0.9205705523490906,0.119781494140625,-0.191650390625,0.12457275390625
2976648482662,0.1951274424791336,-9.398438453674316,0.9792284965515137,0.1243065744638443,-0.1884562075138092,0.1237742081284523
2976649719962,0.21308395266532898,-9.424775123596191,1.0055646896362305,0.1213785782456398,-0.1900532990694046,0.1227094829082489
2976650957275,0.1999158412218094,-9.368511199951172,1.0067617893218994,0.1259036511182785,-0.191650390625,0.1221771240234375
2976652194600,0.22026655077934265,-9.344569206237793,0.9540894031524658,0.1317596435546875,-0.1913842111825943,0.1261698454618454
2976653431887,0.16400282084941864,-9.355342864990234,0.9828197956085205,0.1376156210899353,-0.1892547607421875,0.1248389333486557
2976654669200,0.20470423996448517,-9.36013126373291,1.0187327861785889,0.1402774304151535,-0.1927151083946228,0.1152564138174057
2976655906512,0.14484921097755432,-9.384073257446289,0.9792284965515137,0.1408098042011261,-0.191650390625,0.1139255091547966
2976657143812,0.16519992053508759,-9.363722801208496,0.9373299479484558,0.1410759836435318,-0.1927151083946228,0.1184505894780159
2976658381100,0.181959331035614,-9.339780807495117,1.0199298858642578,0.1463996022939682,-0.1852620393037796,0.1131269633769989
2976659618425,0.19033904373645782,-9.3828763961792,1.0247182846069336,0.1527879536151886,-0.1876576691865921,0.114457868039608
2976660855725,0.24420857429504395,-9.338583946228027,0.9983820915222168,0.1559821218252182,-0.190585657954216,0.1152564138174057
2976662093037,0.21428105235099792,-9.388861656188965,1.0354923009872437,0.1621042937040329,-0.1844635009765625,0.1104651540517807
2976663330362,0.21667525172233582,-9.3828763961792,1.0223240852355957,0.167694091796875,-0.1855282187461853,0.1128607839345932
2976664567637,0.1843535304069519,-9.355342864990234,1.0630255937576294,0.1658308207988739,-0.1823340505361557,0.1083357036113739
2976665804962,0.20111294090747833,-9.411606788635254,1.0283095836639404,0.166629359126091,-0.1823340505361557,0.1027459055185318
2976667042250,0.2082955539226532,-9.452308654785156,1.0259153842926025,0.1716867983341217,-0.1778089702129364,0.1011488139629364
2976668279587,0.18076223134994507,-9.44871711730957,1.0594342947006226,0.1724853515625,-0.1746148020029068,0.0963575541973114
2976669516900,0.17836803197860718,-9.473855972290039,1.0295066833496094,0.1783413290977478,-0.1828664094209671,0.095292828977108
2976670754200,0.21547815203666687,-9.509769439697266,1.0450690984725952,0.1786075085401535,-0.1791398823261261,0.0873074010014534
2976671991500,0.22625206410884857,-9.500192642211914,1.0869675874710083,0.1873914897441864,-0.1788736879825592,0.0846455842256546
2976673228787,0.21428105235099792,-9.516951560974121,1.095347285270691,0.1889885812997818,-0.1802046000957489,0.0827823206782341
2976674466112,0.20949265360832214,-9.545681953430176,1.070208191871643,0.1887224018573761,-0.1833987683057785,0.0750630721449852
2976675703412,0.19632454216480255,-9.593565940856934,1.1001356840133667,0.1889885812997818,-0.1812693178653717,0.071336530148983
2976676940725,0.15442600846290588,-9.593565940856934,1.047463297843933,0.1935136616230011,-0.1799384206533432,0.0662790909409523
2976678178050,0.11611878126859665,-9.606734275817871,1.0666168928146362,0.1956430971622467,-0.1788736879825592,0.0644158273935318
2976679415350,0.10295067727565765,-9.651026725769043,1.0450690984725952,0.1959092915058136,-0.1770104318857193,0.0564303919672966
2976680652650,0.10295067727565765,-9.659406661987305,1.0809820890426636,0.1980387270450592,-0.1735500693321228,0.0566965714097023
2976681889962,0.1256955862045288,-9.670180320739746,1.072602391242981,0.1993696391582489,-0.1780751496553421,0.0556318499147892
2976683127262,0.11133038252592087,-9.690531730651855,1.0450690984725952,0.2007005512714386,-0.1804707795381546,0.0577612966299057
2976684364575,0.13287819921970367,-9.75397777557373,1.0582371950149536,0.200168177485466,-0.1780751496553421,0.0495096817612648
2976685601875,0.02274491637945175,-9.734824180603027,1.0749965906143188,0.1967078298330307,-0.176211878657341,0.0444522425532341
2976686839187,0.05267243832349777,-9.807847023010254,0.9816226959228516,0.1980387270450592,-0.1746148020029068,0.0457831472158432
2976688076487,0.06344634294509888,-9.830592155456543,1.0067617893218994,0.1991034597158432,-0.1791398823261261,0.0532362200319767
2976689313812,-0.004788403399288654,-9.894038200378418,1.0307037830352783,0.1961754709482193,-0.1719529926776886,0.0484449602663517
2976690551100,-0.02992752194404602,-9.945513725280762,1.0223240852355957,0.1945783793926239,-0.1703559011220932,0.0460493303835392
2976691788412,-0.05746084079146385,-10.012551307678223,1.0366894006729126,0.1940460205078125,-0.1684926301240921,0.0471140518784523
2976693025737,-0.02753331884741783,-10.028114318847656,1.0330979824066162,0.190585657954216,-0.1692911684513092,0.0489773228764534
2976694263037,-0.031124621629714966,-10.067618370056152,1.0043675899505615,0.1924489289522171,-0.1711544394493103,0.0505744069814682
2976695500350,-0.06344634294509888,-10.072406768798828,0.9864110946655273,0.18206787109375,-0.1727515310049057,0.0569627545773983
2976696737650,-0.011971008963882923,-10.133459091186523,1.015141487121582,0.1770104318857193,-0.167694091796875,0.0598907470703125
2976697974962,-0.03232172504067421,-10.153809547424316,0.9828197956085205,0.1794060617685318,-0.1695573627948761,0.0636172816157341
2976699212262,0.010773907415568829,-10.244789123535156,0.9540894031524658,0.1756795197725296,-0.1700897216796875,0.071868896484375
2976700449575,0.004788403399288654,-10.290279388427734,0.9373299479484558,0.1679602712392807,-0.1698235422372818,0.0753292515873909
2976701686875,-0.002394201699644327,-10.272322654724121,0.9540894031524658,0.1634351909160614,-0.1671617329120636,0.0854441300034523
2976702924200,-0.0035913025494664907,-10.316615104675293,0.9672574996948242,0.1578453928232193,-0.1668955385684967,0.0913001149892807
2976704161487,0.043095629662275314,-10.371682167053223,0.9301473498344421,0.1557159423828125,-0.1634351909160614,0.0958251953125
2976705398800,0.03711012750864029,-10.382455825805664,0.9612720012664795,0.1450686901807785,-0.1650322824716568,0.1035444438457489
2976706636112,0.05147533863782883,-10.448296546936035,0.9600749015808105,0.1413421630859375,-0.1711544394493103,0.104875348508358
2976707873425,0.020350715145468712,-10.485406875610352,0.9445126056671143,0.1325581818819046,-0.1716867983341217,0.1139255091547966
2976709110737,0.026336219161748886,-10.558429718017578,0.9864110946655273,0.1248389333486557,-0.1687588095664978,0.1253712922334671
2976710348037,0.023942017927765846,-10.547656059265137,1.0235211849212646,0.1205800324678421,-0.1679602712392807,0.1362847238779068
2976711585337,-0.0035913025494664907,-10.626664161682129,0.9995791912078857,0.1112636998295784,-0.1724853515625,0.1461334228515625
2976712822675,0.02753331884741783,-10.619482040405273,1.0127472877502441,0.1014149934053421,-0.1674279123544693,0.152255579829216
2976714059950,0.040701430290937424,-10.614693641662598,1.0402806997299194,0.0971560999751091,-0.1698235422372818,0.1613057404756546
2976715297287,0.03232172504067421,-10.613495826721191,1.016338586807251,0.0870412141084671,-0.177276611328125,0.1692911684513092
2976716534587,0.021547814831137657,-10.579977035522461,1.0654197931289673,0.0753292515873909,-0.1727515310049057,0.1706220805644989
2976717771875,0.043095629662275314,-10.540472984313965,1.0642226934432983,0.0644158273935318,-0.1658308207988739,0.1775427907705307
2976719009200,0.040701430290937424,-10.4542818069458,1.094150185585022,0.0537685826420784,-0.1682264506816864,0.1911180317401886
2976720246500,0.08499415963888168,-10.415974617004395,1.0881646871566772,0.0484449602663517,-0.1687588095664978,0.1967078298330307
2976721483800,0.07422025501728058,-10.304644584655762,1.1767501831054688,0.047646414488554,-0.1722191721200943,0.2041608989238739
2976722721137,0.14604631066322327,-10.217255592346191,1.1791443824768066,0.0367329902946949,-0.1716867983341217,0.2052256166934967
2976723958425,0.2082955539226532,-10.077195167541504,1.2509703636169434,0.02661811001598835,-0.1724853515625,0.2108154296875
2976725195737,0.1867477297782898,-9.981427192687988,1.2473790645599365,0.0282151959836483,-0.1679602712392807,0.2185346782207489
2976726433062,0.23942017555236816,-9.885659217834473,1.2210428714752197,0.0223592109978199,-0.1716867983341217,0.2254553884267807
2976727670362,0.24420857429504395,-9.747992515563965,1.1887211799621582,0.0186326764523983,-0.1711544394493103,0.2222612202167511
2976728907637,0.2346317619085312,-9.624691009521484,1.256955862045288,0.01463996060192585,-0.1682264506816864,0.2259877473115921
2976730144962,0.26096799969673157,-9.548076629638672,1.2677297592163086,0.01117960549890995,-0.171420618891716,0.2273186594247818
2976731382275,0.2561795711517334,-9.4822359085083,1.2988544702529907,0.013042873702943325,-0.1698235422372818,0.2267862856388092
2976732619587,0.29209262132644653,-9.399636268615723,1.2473790645599365,0.01650322787463665,-0.1767442524433136,0.2318437397480011
2976733856887,0.27054479718208313,-9.368511199951172,1.2342109680175781,0.0196974016726017,-0.1818016916513443,0.2331746369600296
2976735094187,0.28730419278144836,-9.337387084960938,1.194706678390503,0.0215606689453125,-0.177276611328125,0.233706995844841
2976736331500,0.2585738003253937,-9.294291496276855,1.2497732639312744,0.02262539230287075,-0.1719529926776886,0.2326422780752182
2976737568825,0.27054479718208313,-9.301473617553711,1.1971008777618408,0.02608574740588665,-0.1735500693321228,0.2326422780752182
2976738806125,0.31962594389915466,-9.285911560058594,1.1863269805908203,0.0324740931391716,-0.1730177104473114,0.2294481098651886
2976740043450,0.28131869435310364,-9.305065155029297,1.2210428714752197,0.0367329902946949,-0.1807369589805603,0.2318437397480011
2976741280750,0.2968810200691223,-9.299079895019531,1.2102689743041992,0.0393948033452034,-0.1791398823261261,0.228915736079216
2976742518037,0.2561795711517334,-9.278728485107422,1.1659762859344482,0.038330078125,-0.1754133403301239,0.2235921174287796
2976743755337,0.24420857429504395,-9.276334762573242,1.2198457717895508,0.0455169677734375,-0.1812693178653717,0.2230597585439682
2976744992662,0.2597709000110626,-9.25598430633545,1.1839327812194824,0.0537685826420784,-0.1844635009765625,0.2230597585439682
2976746229975,0.3148375153541565,-9.306262016296387,1.1635820865631104,0.0609554722905159,-0.1908518373966217,0.2225273996591568
2976747467287,0.3315969407558441,-9.245209693908691,1.1899182796478271,0.0638834610581398,-0.1841973215341568,0.2209303081035614
2976748704562,0.3411737382411957,-9.25598430633545,1.193509578704834,0.0644158273935318,-0.1844635009765625,0.22039794921875
2976749941900,0.3471592366695404,-9.25598430633545,1.1959037780761719,0.0726674422621727,-0.1927151083946228,0.22039794921875
2976751179200,0.3663128614425659,-9.224859237670898,1.192312479019165,0.0790557861328125,-0.1977725476026535,0.2174699604511261
2976752416512,0.4273650050163269,-9.160215377807617,1.2234370708465576,0.0827823206782341,-0.1940460205078125,0.2132110595703125
2976753653825,0.4321534037590027,-9.131484985351562,1.191115379333496,0.0878397598862648,-0.1948445588350296,0.2177361398935318
2976754891137,0.507570743560791,-9.125499725341797,1.236605167388916,0.0915662944316864,-0.200168177485466,0.2174699604511261
2976756128437,0.5219359993934631,-9.027338027954102,1.2725181579589844,0.100616455078125,-0.2017652690410614,0.2164052277803421
2976757365750,0.606930136680603,-8.937555313110352,1.2689268589019775,0.1094004288315773,-0.2078874409198761,0.2113477885723114
2976758603050,0.6045359373092651,-8.96389102935791,1.2677297592163086,0.1171196848154068,-0.2124125063419342,0.2150743305683136
2976759840350,0.6392518877983093,-8.908824920654297,1.256955862045288,0.124040387570858,-0.2177361398935318,0.2121463268995285
2976761077662,0.6524199843406677,-8.880094528198242,1.2473790645599365,0.1360185444355011,-0.2238582968711853,0.2108154296875
2976762314975,0.707486629486084,-8.844181060791016,1.2545616626739502,0.1421407014131546,-0.2243906557559967,0.2084197998046875
2976763552275,0.7481880187988281,-8.8070707321167,1.2880805730819702,0.1514570415019989,-0.2353040874004364,0.2092183381319046
2976764789587,0.7146692276000977,-8.786720275878906,1.215057373046875,0.1626366525888443,-0.2438218891620636,0.2052256166934967
2976766026900,0.729034423828125,-8.763975143432617,1.2557587623596191,0.1743486225605011,-0.2440880686044693,0.2132110595703125
2976767264212,0.7733271718025208,-8.798691749572754,1.2713210582733154,0.1847296804189682,-0.2438218891620636,0.2129448801279068
2976768501525,0.7362170219421387,-8.841787338256836,1.2808979749679565,0.1961754709482193,-0.2581956684589386,0.2116139680147171
2976769738812,0.7589619159698486,-8.880094528198242,1.237802267074585,0.2084197998046875,-0.2645840048789978,0.2201317697763443
2976770976125,0.7015011310577393,-8.892065048217773,1.1875240802764893,0.2190670371055603,-0.2693752646446228,0.2172037661075592
2976772213437,0.6775590777397156,-8.9866361618042,1.1336544752120972,0.2297142893075943,-0.275763601064682,0.2182684987783432
2976773450762,0.5961562395095825,-9.113529205322266,1.092953085899353,0.2363688051700592,-0.2784254252910614,0.2267862856388092
2976774688062,0.5662286877632141,-9.224859237670898,1.05105459690094,0.2456851452589035,-0.2888064980506897,0.2281171977519989
2976775925387,0.4944026470184326,-9.384073257446289,0.9911994934082031,0.253936767578125,-0.294928640127182,0.2326422780752182
2976777162675,0.42616790533065796,-9.501389503479004,0.970848798751831,0.2581956684589386,-0.2965257465839386,0.2379658967256546
2976778399987,0.37469255924224854,-9.670180320739746,0.910993754863739,0.2645840048789978,-0.3050435483455658,0.244354248046875
2976779637300,0.3423708379268646,-9.841365814208984,0.9074024558067322,0.2712385356426239,-0.3151584267616272,0.2459513247013092
2976780874600,0.2908955216407776,-9.998186111450195,0.8331822156906128,0.2696414589881897,-0.3183525800704956,0.2515411376953125
2976782111900,0.22625206410884857,-10.135852813720703,0.8176198601722717,0.2667134702205658,-0.3274027407169342,0.2651163637638092
2976783349212,0.17238251864910126,-10.26154899597168,0.8200140595436096,0.2701738178730011,-0.3337910771369934,0.2688429057598114
2976784586512,0.12330138683319092,-10.400412559509277,0.788889467716217,0.2672458291053772,-0.3329925537109375,0.2744327187538147
2976785823825,0.10654197633266449,-10.530896186828613,0.8068459630012512,0.2632530927658081,-0.3351219892501831,0.2834828794002533
2976787061125,0.16639702022075653,-10.641029357910156,0.812831461429596,0.256598562002182,-0.33538818359375,0.2999860942363739
2976788298462,0.1496376097202301,-10.688913345336914,0.812831461429596,0.2510087788105011,-0.3465677797794342,0.3055759072303772
2976789535750,0.10893617570400238,-10.728418350219727,0.933738648891449,0.2424909770488739,-0.3516252338886261,0.3111656904220581
2976790773062,0.15322890877723694,-10.754754066467285,0.9169792532920837,0.2329084575176239,-0.3473663330078125,0.3196834921836853
2976792010400,0.14604631066322327,-10.746374130249023,0.9002198576927185,0.228915736079216,-0.3561502993106842,0.3327263593673706
2976793247662,0.1735796183347702,-10.69489860534668,0.9636662006378174,0.2249230295419693,-0.3659990131855011,0.333258718252182
2976794485000,0.1735796183347702,-10.65898609161377,1.01753568649292,0.2129448801279068,-0.3657328188419342,0.3404456079006195
2976795722300,0.19033904373645782,-10.565611839294434,1.0785878896713257,0.2041608989238739,-0.3683946430683136,0.3468339741230011
2976796959612,0.22505496442317963,-10.480618476867676,1.0965443849563599,0.1988372802734375,-0.3702579140663147,0.3484310507774353
2976798196912,0.22385786473751068,-10.38724422454834,1.1097124814987183,0.1903194785118103,-0.3729197084903717,0.349761962890625
2976799434212,0.24660277366638184,-10.293869972229004,1.1623849868774414,0.1849958598613739,-0.3766462504863739,0.3569488525390625
2976800671512,0.2585738003253937,-10.183736801147461,1.2102689743041992,0.177276611328125,-0.381171315908432,0.3558841347694397
2976801908825,0.24181437492370605,-10.089165687561035,1.193509578704834,0.1727515310049057,-0.3856964111328125,0.3569488525390625
2976803146137,0.2693476974964142,-9.981427192687988,1.215057373046875,0.166629359126091,-0.3843654990196228,0.3636033833026886
2976804383437,0.2597709000110626,-9.909601211547852,1.2114660739898682,0.1663631796836853,-0.388092041015625,0.3646681010723114
2976805620762,0.24899697303771973,-9.858125686645508,1.169567584991455,0.1639675498008728,-0.3899553120136261,0.3566826581954956
2976806858075,0.2190694510936737,-9.762357711791992,1.2413935661315918,0.1610395610332489,-0.3902214765548706,0.3566826581954956
2976808095375,0.21428105235099792,-9.700108528137207,1.2030863761901855,0.1605072021484375,-0.3899553120136261,0.3548193871974945
2976809332687,0.18794482946395874,-9.65222454071045,1.2653355598449707,0.158111572265625,-0.3891567587852478,0.3529561161994934
2976810569987,0.1843535304069519,-9.619902610778809,1.1959037780761719,0.1586439311504364,-0.3878258466720581,0.3502943217754364
2976811807312,0.21428105235099792,-9.627084732055664,1.1563994884490967,0.1597086638212204,-0.3915523886680603,0.3460354208946228
2976813044587,0.17956513166427612,-9.564835548400879,1.1575965881347656,0.1589101105928421,-0.3931494653224945,0.3468339741230011
2976814281925,0.14245499670505524,-9.624691009521484,1.1228805780410767,0.1591762900352478,-0.3931494653224945,0.3420427143573761
2976815519212,0.08259996026754379,-9.59715747833252,1.1755530834197998,0.1613057404756546,-0.3982069194316864,0.3417765200138092
2976816756525,0.07900865375995636,-9.585186958312988,1.1671733856201172,0.1599748432636261,-0.397674560546875,0.3321940004825592
2976817993850,0.02274491637945175,-9.600749015808105,1.1109095811843872,0.1573130339384079,-0.3963436484336853,0.3279350996017456
2976819231150,-0.013168109580874443,-9.612719535827637,1.0749965906143188,0.1530541330575943,-0.3966098427772522,0.3263380229473114
2976820468462,-0.008379706181585789,-9.623494148254395,1.07379949092865,0.1506585031747818,-0.3960774540901184,0.3218129575252533
2976821705750,-0.004788403399288654,-9.647436141967773,1.071405291557312,0.1511908620595932,-0.3971422016620636,0.3180864155292511
2976822943075,-0.020350715145468712,-9.712079048156738,1.0785878896713257,0.1514570415019989,-0.3998039960861206,0.3106333315372467
2976824180387,-0.04908113554120064,-9.716867446899414,1.0570400953292847,0.1543850302696228,-0.397674560546875,0.3063744306564331
2976825417687,-0.04189852997660637,-9.709685325622559,1.0857704877853394,0.1519894003868103,-0.4032643437385559,0.3074391782283783
2976826655000,-0.0694318488240242,-9.715670585632324,1.0366894006729126,0.1482628732919693,-0.4056599736213684,0.3005184531211853
2976827892300,-0.1041477769613266,-9.739612579345703,1.0570400953292847,0.1527879536151886,-0.4077894389629364,0.2981228232383728
2976829129600,-0.08140286058187485,-9.728838920593262,1.0558429956436157,0.1530541330575943,-0.405127614736557,0.2946624755859375
2976830366925,-0.09696517139673233,-9.758766174316406,1.0606313943862915,0.1506585031747818,-0.4064585268497467,0.2888064980506897
2976831604212,-0.10773907601833344,-9.726444244384766,1.0582371950149536,0.1519894003868103,-0.4096527099609375,0.2896050214767456
2976832841537,-0.1472434103488922,-9.728838920593262,1.1001356840133667,0.1490614116191864,-0.3982069194316864,0.2744327187538147
2976834078837,-0.14484921097755432,-9.714473724365234,1.0534487962722778,0.1533203125,-0.4014011025428772,0.2699076235294342
2976835316150,-0.2190694510936737,-9.716867446899414,1.0845733880996704,0.152255579829216,-0.4069908857345581,0.2664472758769989
2976836553462,-0.1951274424791336,-9.680954933166504,1.1061211824417114,0.1525217741727829,-0.4075232446193695,0.2637854516506195
2976837790787,-0.19153614342212677,-9.648633003234863,1.0773907899856567,0.1543850302696228,-0.4061923623085022,0.2571309506893158
2976839028087,-0.19033904373645782,-9.651026725769043,1.1085153818130493,0.1559821218252182,-0.4059261679649353,0.2523396909236908
2976840265400,-0.18076223134994507,-9.622296333312988,1.1240776777267456,0.1597086638212204,-0.4059261679649353,0.2531382143497467
2976841502687,-0.1867477297782898,-9.600749015808105,1.0893617868423462,0.1615719199180603,-0.4101850688457489,0.2467498779296875
2976842740012,-0.18914192914962769,-9.521739959716797,1.1025298833847046,0.1642337292432785,-0.4053938090801239,0.2400953471660614
2976843977300,-0.17836803197860718,-9.509769439697266,1.1528080701828003,0.1703559011220932,-0.3998039960861206,0.2414262592792511
2976845214625,-0.15442600846290588,-9.476250648498535,1.1420341730117798,0.1684926301240921,-0.4027319848537445,0.2400953471660614
2976846451937,-0.1388636976480484,-9.412803649902344,1.1516109704971313,0.1684926301240921,-0.4045952558517456,0.2331746369600296
2976847689225,-0.1735796183347702,-9.38167953491211,1.1994950771331787,0.1778089702129364,-0.4021996259689331,0.22998046875
2976848926550,-0.15801730751991272,-9.35893440246582,1.2030863761901855,0.1855282187461853,-0.4016672670841217,0.2235921174287796
2976850163850,-0.15682020783424377,-9.375694274902344,1.1839327812194824,0.1881900280714035,-0.4008687138557434,0.2174699604511261
2976851401162,-0.11372458189725876,-9.315838813781738,1.2066776752471924,0.1921827495098114,-0.3984730839729309,0.2161390483379364
2976852638475,-0.13048399984836578,-9.283516883850098,1.2521674633026123,0.1961754709482193,-0.3987392783164978,0.206024169921875
2976853875775,-0.11013327538967133,-9.246407508850098,1.260547161102295,0.1991034597158432,-0.3974083662033081,0.2009667307138443
2976855113087,-0.1364694982767105,-9.20211410522461,1.2641384601593018,0.2052256166934967,-0.3918185830116272,0.195376917719841
2976856350400,-0.12689268589019775,-9.180566787719727,1.2042834758758545,0.2113477885723114,-0.397674560546875,0.1908518373966217
2976857587700,-0.1041477769613266,-9.1662015914917,1.2437877655029297,0.2166714072227478,-0.3990054726600647,0.1908518373966217
2976858825000,-0.11851298809051514,-9.138668060302734,1.256955862045288,0.2238582968711853,-0.3952789306640625,0.1841973215341568
2976860062325,-0.1472434103488922,-9.10993766784668,1.191115379333496,0.228915736079216,-0.3944803774356842,0.1751471608877182
2976861299625,-0.10534487664699554,-9.080010414123535,1.260547161102295,0.2350379079580307,-0.3931494653224945,0.1692911684513092
2976862536950,-0.1496376097202301,-9.080010414123535,1.2533645629882812,0.2408938854932785,-0.3894229531288147,0.1602410227060318
2976863774250,-0.1843535304069519,-9.096769332885742,1.2437877655029297,0.2483469545841217,-0.3894229531288147,0.1554497629404068
2976865011550,-0.21787235140800476,-9.05487060546875,1.2330138683319092,0.2576633095741272,-0.3904876708984375,0.1541188508272171
2976866248862,-0.2214636653661728,-9.08838939666748,1.192312479019165,0.2600589394569397,-0.3894229531288147,0.1487952321767807
2976867486175,-0.2669534981250763,-9.155426979064941,1.1982979774475098,0.2715047299861908,-0.3910200297832489,0.1445363312959671
2976868723475,-0.2561795711517334,-9.153033256530762,1.2749123573303223,0.2760297954082489,-0.3923509418964386,0.1442701518535614
2976869960775,-0.28131869435310364,-9.185355186462402,1.2030863761901855,0.2842814028263092,-0.3923509418964386,0.1357523649930954
2976871198100,-0.34356793761253357,-9.23563289642334,1.1971008777618408,0.2864108681678772,-0.3872934877872467,0.1267022043466568
2976872435412,-0.35913026332855225,-9.252392768859863,1.2509703636169434,0.2967919111251831,-0.3856964111328125,0.124040387570858
2976873672700,-0.39863458275794983,-9.370905876159668,1.2868834733963013,0.2986551821231842,-0.3838331401348114,0.1208462193608284
2976874910025,-0.4213795065879822,-9.398438453674316,1.2090718746185303,0.3058420717716217,-0.3814375102519989,0.1203138530254364
2976876147312,-0.48482584953308105,-9.445125579833984,1.2114660739898682,0.3108995258808136,-0.3798404335975647,0.1171196848154068
2976877384612,-0.4728548526763916,-9.485827445983887,1.237802267074585,0.3124966025352478,-0.3745167851448059,0.1141916885972023
2976878621937,-0.5135562419891357,-9.555258750915527,1.2234370708465576,0.3175540566444397,-0.3726535439491272,0.1120622381567955
2976879859225,-0.5674257874488831,-9.625887870788574,1.259350061416626,0.3202158510684967,-0.37371826171875,0.1123284250497818
2976881096550,-0.5997475385665894,-9.635464668273926,1.2725181579589844,0.3226114809513092,-0.3662651777267456,0.1094004288315773
2976882333862,-0.5674257874488831,-9.6989107131958,1.2964602708816528,0.3228776752948761,-0.3652004599571228,0.1099327951669693
2976883571162,-0.6272808313369751,-9.757569313049316,1.256955862045288,0.3239423930644989,-0.3636033833026886,0.1094004288315773
2976884808475,-0.6224924325942993,-9.789891242980957,1.2701239585876465,0.3231438398361206,-0.3596106469631195,0.1083357036113739
2976886045800,-0.6440402865409851,-9.764751434326172,1.3335703611373901,0.323676198720932,-0.3540208637714386,0.1072709783911705
2976887283100,-0.6536170840263367,-9.774328231811523,1.3251906633377075,0.3215467631816864,-0.3505604863166809,0.109666608273983
2976888520400,-0.6488286852836609,-9.852140426635742,1.335964560508728,0.3244747519493103,-0.3532223105430603,0.1131269633769989
2976889757712,-0.6476315855979919,-9.850942611694336,1.3730746507644653,0.3295322060585022,-0.3444383442401886,0.1120622381567955
2976890995025,-0.689530074596405,-9.886856079101562,1.4018051624298096,0.3250071108341217,-0.3439059853553772,0.109666608273983
2976892232325,-0.6440402865409851,-9.886856079101562,1.380257248878479,0.3292660117149353,-0.3388485312461853,0.1133931428194046
2976893469637,-0.689530074596405,-9.927556991577148,1.3862427473068237,0.3313954770565033,-0.3351219892501831,0.1173858642578125
2976894706937,-0.6428431868553162,-9.929951667785645,1.4329297542572021,0.3276689350605011,-0.3271365761756897,0.119781494140625
2976895944262,-0.667982280254364,-9.927556991577148,1.4041993618011475,0.3258056640625,-0.321014404296875,0.1259036511182785
2976897181550,-0.6799532771110535,-9.925163269042969,1.3994109630584717,0.3276689350605011,-0.3164893090724945,0.1256374716758728
2976898418862,-0.645237386226654,-9.923966407775879,1.455674648284912,0.3282012939453125,-0.314093679189682,0.1317596435546875
2976899656175,-0.6991068720817566,-9.890447616577148,1.4089877605438232,0.3234100341796875,-0.3138275146484375,0.1338890939950943
2976900893500,-0.6835445761680603,-9.909601211547852,1.414973258972168,0.3244747519493103,-0.3085038959980011,0.1405436247587204
2976902130787,-0.7194576263427734,-9.931148529052734,1.4449007511138916,0.3244747519493103,-0.3053097128868103,0.1434716135263443
2976903368112,-0.7122750282287598,-9.940725326538086,1.4389152526855469,0.3252733051776886,-0.3026479184627533,0.1533203125
2976904605400,-0.6811503767967224,-9.910798072814941,1.4903905391693115,0.3247409462928772,-0.2986551821231842,0.1482628732919693
2976905842712,-0.7242460250854492,-9.917980194091797,1.4496891498565674,0.3263380229473114,-0.2938639223575592,0.1511908620595932
2976907080037,-0.7422025203704834,-9.909601211547852,1.499967336654663,0.3231438398361206,-0.2840152382850647,0.1575792133808136
2976908317337,-0.7481880187988281,-9.8784761428833,1.4987702369689941,0.3178202211856842,-0.275763601064682,0.1543850302696228
2976909554637,-0.7338228225708008,-9.86650562286377,1.4987702369689941,0.3212805688381195,-0.2781592309474945,0.158111572265625
2976910791950,-0.750582218170166,-9.829395294189453,1.4903905391693115,0.3159569501876831,-0.275763601064682,0.1626366525888443
2976912029237,-0.7266402244567871,-9.855731010437012,1.4664485454559326,0.3143598735332489,-0.2733679711818695,0.1663631796836853
2976913266562,-0.7326257228851318,-9.816226959228516,1.5167267322540283,0.3172878623008728,-0.2659149169921875,0.16290283203125
2976914503875,-0.7182605266571045,-9.797073364257812,1.4975731372833252,0.3170216977596283,-0.2600589394569397,0.1605072021484375
2976915741175,-0.7338228225708008,-9.821015357971191,1.4975731372833252,0.3172878623008728,-0.2579294741153717,0.1708882600069046
2976916978487,-0.750582218170166,-9.782708168029785,1.4975731372833252,0.3101009726524353,-0.2502102255821228,0.1671617329120636
2976918215787,-0.7912836670875549,-9.749189376831055,1.5263036489486694,0.314093679189682,-0.2451527863740921,0.167694091796875
2976919453100,-0.7769184708595276,-9.773131370544434,1.4975731372833252,0.3127627968788147,-0.2464836984872818,0.1711544394493103
2976920690425,-0.7589619159698486,-9.712079048156738,1.4927847385406494,0.3087700605392456,-0.2392968088388443,0.1706220805644989
2976921927725,-0.7469909191131592,-9.718064308166504,1.4724340438842773,0.3108995258808136,-0.2302466481924057,0.1695573627948761
2976923165037,-0.7433996200561523,-9.726444244384766,1.4939818382263184,0.311431884765625,-0.2278510183095932,0.1722191721200943
2976924402337,-0.8068459630012512,-9.75397777557373,1.5203181505203247,0.309302419424057,-0.2217288464307785,0.1746148020029068
2976925639650,-0.7589619159698486,-9.708487510681152,1.5430630445480347,0.3085038959980011,-0.2227935791015625,0.1746148020029068
2976926876937,-0.7936778664588928,-9.697713851928711,1.5538369417190552,0.3108995258808136,-0.2166714072227478,0.1783413290977478
2976928114262,-0.750582218170166,-9.68574333190918,1.557428240776062,0.3116980493068695,-0.2150743305683136,0.1770104318857193
2976929351575,-0.7661445736885071,-9.668983459472656,1.5394717454910278,0.3178202211856842,-0.2084197998046875,0.1831325888633728
2976930588862,-0.7374141216278076,-9.642647743225098,1.5825673341751099,0.3167555034160614,-0.2052256166934967,0.1775427907705307
2976931826187,-0.7757213711738586,-9.659406661987305,1.5873557329177856,0.306640625,-0.1988372802734375,0.1775427907705307
2976933063487,-0.7613561749458313,-9.637859344482422,1.5682021379470825,0.3106333315372467,-0.191650390625,0.1823340505361557
2976934300800,-0.7541735172271729,-9.62828254699707,1.558625340461731,0.3159569501876831,-0.1881900280714035,0.1847296804189682
2976935538125,-0.7374141216278076,-9.63187313079834,1.5693992376327515,0.3130289614200592,-0.1852620393037796,0.1794060617685318
2976936775412,-0.7589619159698486,-9.634267807006836,1.5897499322891235,0.3132951557636261,-0.1791398823261261,0.1799384206533432
2976938012725,-0.767341673374176,-9.609128952026367,1.5981296300888062,0.3170216977596283,-0.176211878657341,0.1812693178653717
2976939250025,-0.767341673374176,-9.563638687133789,1.5957354307174683,0.3199496865272522,-0.1698235422372818,0.1879238486289978
2976940487350,-0.7374141216278076,-9.604340553283691,1.6376339197158813,0.3175540566444397,-0.1671617329120636,0.1903194785118103
2976941724662,-0.7326257228851318,-9.581595420837402,1.6400281190872192,0.3199496865272522,-0.1639675498008728,0.1879238486289978
2976942961962,-0.7182605266571045,-9.569623947143555,1.6352397203445435,0.3239423930644989,-0.1599748432636261,0.1879238486289978
2976944199275,-0.7433996200561523,-9.570821762084961,1.6041151285171509,0.3223453164100647,-0.1575792133808136,0.190585657954216
2976945436600,-0.7493851184844971,-9.555258750915527,1.622071623802185,0.3239423930644989,-0.1551835834980011,0.1913842111825943
2976946673875,-0.7386112213134766,-9.531316757202148,1.625662922859192,0.3244747519493103,-0.1479966938495636,0.1860605776309967
2976947911200,-0.730231523513794,-9.533711433410645,1.6627731323242188,0.3250071108341217,-0.1429392546415329,0.1865929514169693
2976949148500,-0.7481880187988281,-9.548076629638672,1.6603789329528809,0.3228776752948761,-0.1434716135263443,0.1873914897441864
2976950385812,-0.768538773059845,-9.587580680847168,1.677138328552246,0.3300645649433136,-0.1394788920879364,0.1852620393037796
2976951623112,-0.7637503743171692,-9.606734275817871,1.677138328552246,0.3276689350605011,-0.1325581818819046,0.1844635009765625
2976952860425,-0.7577648162841797,-9.59835433959961,1.655590534210205,0.3239423930644989,-0.128299281001091,0.181003138422966
2976954097725,-0.7613561749458313,-9.609128952026367,1.6627731323242188,0.3255394697189331,-0.1208462193608284,0.1780751496553421
2976955335062,-0.7589619159698486,-9.671378135681152,1.6891093254089355,0.3300645649433136,-0.1208462193608284,0.1831325888633728
2976956572350,-0.7817068696022034,-9.694122314453125,1.6543934345245361,0.3300645649433136,-0.1125946044921875,0.1833987683057785
2976957809675,-0.811634361743927,-9.724050521850586,1.677138328552246,0.3303307294845581,-0.1131269633769989,0.1788736879825592
2976959046987,-0.8367735147476196,-9.81024169921875,1.7202339172363281,0.328467458486557,-0.1107313334941864,0.1831325888633728
2976960284275,-0.8810662031173706,-9.883264541625977,1.6508021354675293,0.3260718286037445,-0.1080695241689682,0.1812693178653717
2976961521587,-0.8607155084609985,-9.884461402893066,1.6472108364105225,0.3242085874080658,-0.1030120849609375,0.181003138422966
2976962758887,-0.8834604620933533,-9.949105262756348,1.6364368200302124,0.3207482099533081,-0.0971560999751091,0.1812693178653717
2976963996200,-0.9002198576927185,-10.005369186401367,1.6927006244659424,0.3191511332988739,-0.0894368439912796,0.1826002299785614
2976965233525,-0.9397241473197937,-10.102334022521973,1.6699557304382324,0.3175540566444397,-0.0920986607670784,0.1871253103017807
2976966470837,-0.9301473498344421,-10.134655952453613,1.7094600200653076,0.3138275146484375,-0.0830485001206398,0.1873914897441864
2976967708137,-0.9768342971801758,-10.1753568649292,1.6962919235229492,0.3029140830039978,-0.0763939768075943,0.1863267719745636
2976968945437,-1.0295066833496094,-10.250774383544922,1.6950948238372803,0.3029140830039978,-0.0755954310297966,0.190585657954216
2976970182737,-0.9923965930938721,-10.285490989685059,1.721431016921997,0.301849365234375,-0.06707763671875,0.1940460205078125
2976971420062,-1.0235211849212646,-10.366893768310547,1.6687586307525635,0.2909359335899353,-0.0678761824965477,0.1929812878370285
2976972657362,-1.01753568649292,-10.393229484558105,1.7334020137786865,0.2834828794002533,-0.062020193785429,0.1943121999502182
2976973894675,-0.9756371974945068,-10.4542818069458,1.6699557304382324,0.2786916196346283,-0.0604231096804142,0.1985711008310318
2976975131975,-0.9445126056671143,-10.491392135620117,1.744175910949707,0.2744327187538147,-0.0545671246945858,0.1980387270450592
2976976369287,-0.970848798751831,-10.524910926818848,1.7166426181793213,0.2659149169921875,-0.0497758649289608,0.1991034597158432
2976977606600,-0.9828197956085205,-10.520122528076172,1.746570110321045,0.2558000385761261,-0.0460493303835392,0.2028299868106842
2976978843900,-0.872686505317688,-10.547656059265137,1.7896658182144165,0.2486131489276886,-0.0409918874502182,0.2054918110370636
2976980081225,-0.9289502501487732,-10.56680965423584,1.7525556087493896,0.2408938854932785,-0.0407257080078125,0.2081536203622818
2976981318525,-0.9169792532920837,-10.541669845581055,1.8195933103561401,0.2331746369600296,-0.0322079136967659,0.2038947194814682
2976982555825,-0.9062053561210632,-10.506954193115234,1.8830395936965942,0.2233259379863739,-0.02848137728869915,0.204959437251091
2976983793137,-0.8523358106613159,-10.494983673095703,1.8543092012405396,0.2148081362247467,-0.0247548408806324,0.2033623605966568
2976985030450,-0.8738836050033569,-10.415974617004395,1.821987509727478,0.2070888876914978,-0.023956298828125,0.2070888876914978
2976986267762,-0.8798691034317017,-10.402806282043457,1.8626888990402222,0.2014990895986557,-0.0271504707634449,0.2052256166934967
2976987505062,-0.8667010068893433,-10.392032623291016,1.923741102218628,0.1919165700674057,-0.0167694091796875,0.2014990895986557
2976988742387,-0.8930372595787048,-10.366893768310547,1.9488801956176758,0.185794398188591,-0.007453070487827063,0.2052256166934967
2976989979675,-0.8954314589500427,-10.302249908447266,1.9405004978179932,0.1852620393037796,-0.0138414166867733,0.2118801474571228
2976991216987,-0.8415619134902954,-10.2747163772583,1.98958158493042,0.1767442524433136,-0.01171196810901165,0.2033623605966568
2976992454287,-0.8930372595787048,-10.219650268554688,1.9309237003326416,0.1724853515625,-0.008251613937318325,0.2068227082490921
2976993691612,-0.8738836050033569,-10.219650268554688,1.9261353015899658,0.1650322824716568,-0.003460354171693325,0.2014990895986557
2976994928925,-0.8583213090896606,-10.190919876098633,1.964442491531372,0.1597086638212204,0.003460354171693325,0.1993696391582489
2976996166237,-0.8774749040603638,-10.17176628112793,1.9488801956176758,0.1549174040555954,0.0026618109550327063,0.1991034597158432
2976997403550,-0.8750807046890259,-10.156203269958496,1.9536685943603516,0.1519894003868103,0.0039927163161337376,0.1991034597158432
2976998640862,-0.8870517611503601,-10.113107681274414,1.944091796875,0.148529052734375,0.0077192517928779125,0.200168177485466
2976999878150,-0.8487445116043091,-10.104728698730469,1.9560627937316895,0.1440039724111557,0.005855984054505825,0.1996358186006546
2977001115462,-0.8391677141189575,-10.098742485046387,1.923741102218628,0.1434716135263443,0.01171196810901165,0.196441650390625
2977002352775,-0.8810662031173706,-10.056844711303711,1.987187385559082,0.138946533203125,0.0138414166867733,0.1935136616230011
2977003590075,-0.8678981065750122,-10.041281700134277,1.9536685943603516,0.1298963725566864,0.01836649514734745,0.1937798410654068
2977004827387,-0.872686505317688,-9.988609313964844,1.9285295009613037,0.1322920024394989,0.0173017717897892,0.1940460205078125
2977006064700,-0.8798691034317017,-9.977835655212402,1.9704279899597168,0.1264360249042511,0.0204959437251091,0.190585657954216
2977007302012,-0.8930372595787048,-9.981427192687988,1.944091796875,0.1269683837890625,0.0252872034907341,0.1889885812997818
2977008539312,-0.8822633624076843,-9.897629737854004,1.9309237003326416,0.1224433034658432,0.0282151959836483,0.1794060617685318
2977009776637,-0.888248860836029,-9.884461402893066,1.9584569931030273,0.1208462193608284,0.0268842913210392,0.176211878657341
2977011013937,-0.8822633624076843,-9.923966407775879,1.9823989868164062,0.1195153146982193,0.0319417305290699,0.1759456992149353
2977012251250,-0.851138710975647,-9.891644477844238,2.0207061767578125,0.1213785782456398,0.033272635191679,0.1735500693321228
2977013488562,-0.8595184087753296,-9.860519409179688,1.9907786846160889,0.1179182231426239,0.0330064557492733,0.1700897216796875
2977014725862,-0.8595184087753296,-9.877279281616211,1.985990285873413,0.1187167689204216,0.0375315360724926,0.1724853515625
2977015963175,-0.872686505317688,-9.872490882873535,1.987187385559082,0.1176520437002182,0.0441860631108284,0.1700897216796875
2977017200475,-0.8834604620933533,-9.830592155456543,1.9620482921600342,0.109666608273983,0.0391286201775074,0.1634351909160614
2977018437775,-0.8834604620933533,-9.822212219238281,1.9704279899597168,0.1128607839345932,0.0404595248401165,0.1567806601524353
2977019675087,-0.851138710975647,-9.837775230407715,1.9500772953033447,0.1195153146982193,0.0393948033452034,0.161838099360466
2977020912400,-0.8307880163192749,-9.773131370544434,2.0003554821014404,0.1157887727022171,0.043121337890625,0.1549174040555954
2977022149712,-0.8918401598930359,-9.828198432922363,1.9740192890167236,0.1123284250497818,0.0452507846057415,0.1490614116191864
2977023387025,-0.872686505317688,-9.757569313049316,2.0015525817871094,0.1136593297123909,0.0492435023188591,0.1514570415019989
2977024624337,-0.8702923059463501,-9.81263542175293,1.9847931861877441,0.1120622381567955,0.0484449602663517,0.1448025107383728
2977025861650,-0.8631097078323364,-9.739612579345703,2.031480073928833,0.1136593297123909,0.0497758649289608,0.1402774304151535
2977027098937,-0.9277531504631042,-9.771934509277344,2.027888774871826,0.1120622381567955,0.0513729527592659,0.1408098042011261
2977028336250,-0.9026140570640564,-9.734824180603027,2.0195090770721436,0.1112636998295784,0.0543009415268898,0.1394788920879364
2977029573562,-0.8774749040603638,-9.765949249267578,2.055422067642212,0.1117960587143898,0.0543009415268898,0.138946533203125
2977030810862,-0.9277531504631042,-9.746795654296875,2.0171148777008057,0.1120622381567955,0.0564303919672966,0.1341552734375
2977032048187,-0.9085995554924011,-9.75158405303955,2.0027496814727783,0.1123284250497818,0.0590922012925148,0.1312272846698761
2977033285475,-0.9397241473197937,-9.75278091430664,2.0147206783294678,0.1165873184800148,0.0540347620844841,0.1314934641122818
2977034522800,-0.9361328482627869,-9.774328231811523,2.0242974758148193,0.114457868039608,0.0569627545773983,0.1290978342294693
2977035760100,-0.9768342971801758,-9.767146110534668,2.049436569213867,0.1131269633769989,0.0630849227309227,0.1227094829082489
2977036997425,-0.9672574996948242,-9.736021041870117,2.0027496814727783,0.1088680699467659,0.0636172816157341,0.1195153146982193
2977038234725,-0.9660604000091553,-9.789891242980957,2.0386626720428467,0.1155225932598114,0.0702718123793602,0.1227094829082489
2977039472025,-0.9900023937225342,-9.75397777557373,2.051830768585205,0.1152564138174057,0.0686747208237648,0.1173858642578125
2977040709325,-0.970848798751831,-9.764751434326172,2.027888774871826,0.1139255091547966,0.0700056254863739,0.114457868039608
2977041946637,-1.0247182846069336,-9.804256439208984,2.027888774871826,0.1125946044921875,0.0739983469247818,0.1125946044921875
2977043183962,-0.9516952037811279,-9.798270225524902,2.029085874557495,0.1139255091547966,0.0793219655752182,0.1104651540517807
2977044421275,-1.0007762908935547,-9.77552604675293,2.030282974243164,0.1107313334941864,0.0790557861328125,0.1091342493891716
2977045658587,-0.9852139949798584,-9.781511306762695,2.0183119773864746,0.1051415354013443,0.080919049680233,0.1051415354013443
2977046895887,-0.9780313968658447,-9.805453300476074,2.0254945755004883,0.114457868039608,0.0811852365732193,0.1003502756357193
2977048133200,-0.9672574996948242,-9.77791976928711,2.0446481704711914,0.1107313334941864,0.08624267578125,0.0984870046377182
2977049370512,-0.973242998123169,-9.762357711791992,2.0183119773864746,0.1059400737285614,0.0883721262216568,0.0974222794175148
2977050607800,-1.01753568649292,-9.795876502990723,1.9967641830444336,0.1078033447265625,0.0878397598862648,0.0976884588599205
2977051845112,-1.016338586807251,-9.834183692932129,1.9919757843017578,0.1070047989487648,0.0897030308842659,0.0934295654296875
2977053082437,-0.970848798751831,-9.834183692932129,1.9692308902740479,0.1046091690659523,0.0931633859872818,0.0947604700922966
2977054319737,-0.9624691009521484,-9.858125686645508,1.9979612827301025,0.1046091690659523,0.0936957448720932,0.0944942906498909
2977055557037,-1.0462661981582642,-9.840168952941895,1.9931728839874268,0.1067386195063591,0.0950266495347023,0.08624267578125
2977056794350,-1.0893617868423462,-9.861717224121094,1.9728221893310547,0.0984870046377182,0.0950266495347023,0.085710309445858
2977058031650,-1.0450690984725952,-9.848548889160156,1.9572598934173584,0.0966237336397171,0.0960913747549057,0.0859764963388443
2977059268962,-1.0402806997299194,-9.906009674072266,2.006340980529785,0.0968899205327034,0.0936957448720932,0.0894368439912796
2977060506275,-1.0307037830352783,-9.945513725280762,2.0039467811584473,0.0936957448720932,0.0984870046377182,0.0841132253408432
2977061743587,-1.0618284940719604,-9.981427192687988,2.0003554821014404,0.0915662944316864,0.1019473597407341,0.0803866907954216
2977062980887,-1.0881646871566772,-9.974244117736816,2.0410568714141846,0.0915662944316864,0.1011488139629364,0.0838470458984375
2977064218200,-1.0881646871566772,-10.019734382629395,2.0231003761291504,0.08624267578125,0.1030120849609375,0.0827823206782341
2977065455487,-1.0869675874710083,-10.061633110046387,2.0003554821014404,0.0849117711186409,0.1067386195063591,0.081451416015625
2977066692825,-1.1228805780410767,-10.102334022521973,2.0398597717285156,0.0849117711186409,0.1059400737285614,0.0825161412358284
2977067930137,-1.0821791887283325,-10.103530883789062,2.031480073928833,0.0851779505610466,0.104875348508358,0.0835808664560318
2977069167425,-1.0845733880996704,-10.181343078613281,1.988384485244751,0.0795881450176239,0.1072709783911705,0.0822499617934227
2977070404737,-1.137245774269104,-10.17176628112793,2.053027868270874,0.0692070871591568,0.110198974609375,0.0822499617934227
2977071642037,-1.0977414846420288,-10.210073471069336,2.0386626720428467,0.0657467320561409,0.1117960587143898,0.080919049680233
2977072879362,-1.0642226934432983,-10.222043991088867,2.0398597717285156,0.0684085413813591,0.1139255091547966,0.0833146795630455
2977074116675,-1.0869675874710083,-10.20528507232666,2.009932279586792,0.0585598424077034,0.1163211390376091,0.0841132253408432
2977075353975,-1.0570400953292847,-10.20887565612793,2.0171148777008057,0.0574951171875,0.1131269633769989,0.0841132253408432
2977076591275,-1.1121066808700562,-10.181343078613281,2.033874273300171,0.0521714948117733,0.1173858642578125,0.0854441300034523
2977077828587,-1.114500880241394,-10.281899452209473,2.009932279586792,0.0492435023188591,0.1203138530254364,0.0827823206782341
2977079065900,-1.0630255937576294,-10.280702590942383,2.032677173614502,0.0415242500603199,0.1203138530254364,0.0817175954580307
2977080303225,-1.1109095811843872,-10.272322654724121,2.0470423698425293,0.0377977155148983,0.1200476735830307,0.0838470458984375
2977081540512,-1.1587936878204346,-10.248380661010742,2.0470423698425293,0.0343373604118824,0.1232418492436409,0.0854441300034523
2977082777825,-1.116895079612732,-10.254365921020508,2.054224967956543,0.0276828333735466,0.1224433034658432,0.0867750346660614
2977084015137,-1.1336544752120972,-10.2962646484375,2.050633668899536,0.0228915736079216,0.1251051127910614,0.0899692103266716
2977085252437,-1.094150185585022,-10.2962646484375,2.076970100402832,0.02129448764026165,0.1264360249042511,0.0854441300034523
2977086489762,-1.1540051698684692,-10.257957458496094,2.0207061767578125,0.01224433071911335,0.1290978342294693,0.085710309445858
2977087727062,-1.091755986213684,-10.213664054870605,2.009932279586792,0.010114881210029125,0.1272345632314682,0.0838470458984375
2977088964375,-1.0869675874710083,-10.199298858642578,2.0398597717285156,0.0066545275039970875,0.1261698454618454,0.0825161412358284
2977090201675,-1.071405291557312,-10.213664054870605,2.0195090770721436,0.0007985432748682797,0.1312272846698761,0.08624267578125
2977091438975,-1.0450690984725952,-10.186131477355957,2.006340980529785,-0.010913425125181675,0.1336229145526886,0.0777248814702034
2977092676300,-1.0965443849563599,-10.143035888671875,2.01232647895813,-0.013309055007994175,0.1381479948759079,0.0769263356924057
2977093913600,-1.095347285270691,-10.159794807434082,2.0027496814727783,-0.014906140975654125,0.1344214528799057,0.0793219655752182
2977095150925,-1.0773907899856567,-10.169371604919434,2.0147206783294678,-0.01756795309484005,0.1368170827627182,0.081451416015625
2977096388237,-1.1049240827560425,-10.05923843383789,2.0482394695281982,-0.02608574740588665,0.1402774304151535,0.0817175954580307
2977097625537,-1.092953085899353,-10.031704902648926,2.056619167327881,-0.0295461006462574,0.1338890939950943,0.0785234197974205
2977098862837,-1.094150185585022,-10.011354446411133,1.964442491531372,-0.03087700717151165,0.138946533203125,0.0843794047832489
2977100100150,-1.1073182821273804,-9.99220085144043,2.013523578643799,-0.0338049978017807,0.1410759836435318,0.0793219655752182
2977101337450,-1.0989385843276978,-9.950302124023438,2.0183119773864746,-0.0393948033452034,0.1381479948759079,0.0782572403550148
2977102574762,-1.091755986213684,-9.926360130310059,2.0207061767578125,-0.0417904332280159,0.1416083425283432,0.0729336217045784
2977103812075,-1.0965443849563599,-9.908403396606445,2.033874273300171,-0.0452507846057415,0.1466657817363739,0.0729336217045784
2977105049400,-1.0869675874710083,-9.890447616577148,2.030282974243164,-0.0471140518784523,0.1456010639667511,0.0668114572763443
2977106286687,-1.0690110921859741,-9.849745750427246,1.9847931861877441,-0.0460493303835392,0.1445363312959671,0.0636172816157341
2977107524012,-1.1264718770980835,-9.783905029296875,2.0171148777008057,-0.0500420443713665,0.1487952321767807,0.0654805526137352
2977108761312,-1.1216834783554077,-9.816226959228516,2.0470423698425293,-0.0561642125248909,0.1471981406211853,0.0678761824965477
2977109998637,-1.1791443824768066,-9.77672290802002,2.096123695373535,-0.0553656667470932,0.1450686901807785,0.0633511021733284
2977111235937,-1.0965443849563599,-9.72165584564209,2.006340980529785,-0.0516391322016716,0.1493275910615921,0.0550994873046875
2977112473225,-1.114500880241394,-9.728838920593262,2.008735179901123,-0.0529700368642807,0.1519894003868103,0.0574951171875
2977113710562,-1.0977414846420288,-9.680954933166504,1.9955670833587646,-0.0537685826420784,0.1519894003868103,0.0566965714097023
2977114947875,-1.1288660764694214,-9.68813705444336,2.0458452701568604,-0.0548333041369915,0.1519894003868103,0.0519053116440773
2977116185150,-1.0761936902999878,-9.63187313079834,1.9716250896453857,-0.0577612966299057,0.1541188508272171,0.0532362200319767
2977117422487,-1.0821791887283325,-9.623494148254395,2.031480073928833,-0.0580274797976017,0.1533203125,0.0492435023188591
2977118659775,-1.091755986213684,-9.601945877075195,2.03507137298584,-0.0535023994743824,0.1578453928232193,0.0484449602663517
2977119897087,-1.0821791887283325,-9.576807022094727,2.0410568714141846,-0.0564303919672966,0.1644999235868454,0.0489773228764534
2977121134387,-1.0618284940719604,-9.522937774658203,2.081758499145508,-0.0601569265127182,0.1637013703584671,0.0433875173330307
2977122371712,-1.1073182821273804,-9.515754699707031,2.051830768585205,-0.0580274797976017,0.1597086638212204,0.0351359061896801
2977123609025,-1.0965443849563599,-9.515754699707031,2.050633668899536,-0.0590922012925148,0.1597086638212204,0.0338049978017807
2977124846312,-1.1121066808700562,-9.481039047241211,2.074575901031494,-0.0580274797976017,0.1690249890089035,0.0295461006462574
2977126083637,-1.0678139925003052,-9.495404243469238,2.0697875022888184,-0.0561642125248909,0.1679602712392807,0.0271504707634449
2977127320950,-1.048660397529602,-9.454702377319336,2.030282974243164,-0.0532362200319767,0.1658308207988739,0.02741665206849575
2977128558237,-1.0402806997299194,-9.418789863586426,2.074575901031494,-0.052703857421875,0.1692911684513092,0.02262539230287075
2977129795562,-1.0630255937576294,-9.442731857299805,2.0590133666992188,-0.0516391322016716,0.1703559011220932,0.0119781494140625
2977131032850,-1.0594342947006226,-9.400833129882812,2.074575901031494,-0.0516391322016716,0.1668955385684967,0.013042873702943325
2977132270175,-1.0414777994155884,-9.406818389892578,2.0697875022888184,-0.0508405901491642,0.1692911684513092,0.013309055007994175
2977133507500,-1.0007762908935547,-9.400833129882812,2.053027868270874,-0.047646414488554,0.1698235422372818,0.005855984054505825
2977134744800,-1.0007762908935547,-9.422380447387695,2.053027868270874,-0.0447184219956398,0.1756795197725296,0.007453070487827063
2977135982112,-1.01753568649292,-9.412803649902344,2.0661959648132324,-0.0444522425532341,0.1746148020029068,0.004791259765625
2977137219412,-0.9923965930938721,-9.439140319824219,2.10210919380188,-0.043121337890625,0.1727515310049057,-0.0023956298828125
2977138456737,-0.9768342971801758,-9.423578262329102,2.0937294960021973,-0.0417904332280159,0.1735500693321228,-0.005589802749454975
2977139694037,-0.9720458984375,-9.428366661071777,2.0697875022888184,-0.0377977155148983,0.1740824282169342,-0.010913425125181675
2977140931337,-0.9397241473197937,-9.421183586120605,2.0853497982025146,-0.0369991734623909,0.1754133403301239,-0.012776692397892475
2977142168650,-0.9564836025238037,-9.461885452270508,2.0829555988311768,-0.0375315360724926,0.1724853515625,-0.012776692397892475
2977143405962,-0.9612720012664795,-9.455899238586426,2.0470423698425293,-0.0393948033452034,0.177276611328125,-0.01463996060192585
2977144643275,-0.9445126056671143,-9.422380447387695,2.0685904026031494,-0.0343373604118824,0.1754133403301239,-0.0196974016726017
2977145880587,-0.9265560507774353,-9.469067573547363,2.100912094116211,-0.0322079136967659,0.176211878657341,-0.02422248013317585
2977147117887,-0.8978256583213806,-9.500192642211914,2.1116859912872314,-0.0359344482421875,0.1695573627948761,-0.0282151959836483
2977148355200,-0.9265560507774353,-9.485827445983887,2.0398597717285156,-0.0364668108522892,0.1703559011220932,-0.02981228195130825
2977149592500,-0.9528923034667969,-9.502586364746094,2.0614075660705566,-0.0351359061896801,0.1767442524433136,-0.0258195661008358
2977150829825,-0.9720458984375,-9.465476036071777,2.0829555988311768,-0.0364668108522892,0.1780751496553421,-0.0314093679189682
2977152067112,-0.9995791912078857,-9.45111083984375,2.0685904026031494,-0.033272635191679,0.1754133403301239,-0.0314093679189682
2977153304437,-1.0319008827209473,-9.44752025604248,2.075773000717163,-0.0306108258664608,0.1719529926776886,-0.0311431884765625
2977154541725,-1.0079588890075684,-9.475052833557129,2.0829555988311768,-0.0252872034907341,0.1719529926776886,-0.0388624407351017
2977155779037,-1.016338586807251,-9.469067573547363,2.0841526985168457,-0.02794901467859745,0.1759456992149353,-0.0367329902946949
2977157016337,-1.0295066833496094,-9.429563522338867,2.0829555988311768,-0.02981228195130825,0.1802046000957489,-0.0324740931391716
2977158253662,-0.9840168952941895,-9.41759204864502,2.0470423698425293,-0.02848137728869915,0.1727515310049057,-0.0401933453977108
2977159490962,-1.0103530883789062,-9.41639518737793,2.0673930644989014,-0.0247548408806324,0.1732838898897171,-0.0407257080078125
2977160728275,-1.0295066833496094,-9.403226852416992,2.0470423698425293,-0.02848137728869915,0.1748809814453125,-0.0417904332280159
2977161965575,-1.015141487121582,-9.385271072387695,2.0889410972595215,-0.02555338479578495,0.1775427907705307,-0.042855154722929
2977163202900,-1.0079588890075684,-9.346963882446289,2.073378801345825,-0.02076212503015995,0.1746148020029068,-0.0417904332280159
2977164440200,-1.0678139925003052,-9.397241592407227,2.1045033931732178,-0.0223592109978199,0.1815355122089386,-0.0441860631108284
2977165677487,-1.013944387435913,-9.396044731140137,2.0925323963165283,-0.02422248013317585,0.1855282187461853,-0.0489773228764534
2977166914812,-1.01753568649292,-9.386467933654785,2.094926595687866,-0.02422248013317585,0.1849958598613739,-0.0508405901491642
2977168152137,-1.0127472877502441,-9.367314338684082,2.0841526985168457,-0.02555338479578495,0.1826002299785614,-0.0495096817612648
2977169389437,-1.016338586807251,-9.35654067993164,2.094926595687866,-0.0215606689453125,0.176211878657341,-0.0529700368642807
2977170626750,-1.047463297843933,-9.351752281188965,2.0829555988311768,-0.0204959437251091,0.1754133403301239,-0.0561642125248909
2977171864062,-1.0007762908935547,-9.366117477416992,2.0374655723571777,-0.02369011752307415,0.1841973215341568,-0.0588260218501091
2977173101375,-1.0450690984725952,-9.402029991149902,2.145204782485962,-0.02502102218568325,0.1887224018573761,-0.0612216517329216
2977174338675,-1.0414777994155884,-9.361329078674316,2.0721817016601562,-0.0223592109978199,0.1889885812997818,-0.0633511021733284
2977175575975,-0.9900023937225342,-9.339780807495117,2.055422067642212,-0.0223592109978199,0.1921827495098114,-0.0636172816157341
2977176813287,-1.0462661981582642,-9.36013126373291,2.05781626701355,-0.01836649514734745,0.1951107382774353,-0.0614878311753273
2977178050600,-1.0259153842926025,-9.386467933654785,2.073378801345825,-0.01703559048473835,0.1884562075138092,-0.0636172816157341
2977179287912,-0.9744400978088379,-9.373299598693848,2.0446481704711914,-0.014373779296875,0.1897871196269989,-0.0638834610581398
2977180525212,-1.072602391242981,-9.366117477416992,2.0458452701568604,-0.01650322787463665,0.1929812878370285,-0.0633511021733284
2977181762525,-0.9995791912078857,-9.375694274902344,2.0398597717285156,-0.01836649514734745,0.196441650390625,-0.0710703507065773
2977182999837,-1.0043675899505615,-9.364919662475586,2.0614075660705566,-0.0228915736079216,0.1945783793926239,-0.0694732666015625
2977184237150,-1.0462661981582642,-9.354146003723145,2.053027868270874,-0.01889885775744915,0.1948445588350296,-0.0710703507065773
2977185474462,-1.0067617893218994,-9.36013126373291,2.008735179901123,-0.01410759799182415,0.1956430971622467,-0.0721350759267807
2977186711762,-1.0103530883789062,-9.364919662475586,2.053027868270874,-0.0157046839594841,0.1988372802734375,-0.0702718123793602
2977187949075,-1.013944387435913,-9.369708061218262,2.0410568714141846,-0.0173017717897892,0.1985711008310318,-0.0739983469247818
2977189186375,-1.0690110921859741,-9.364919662475586,2.029085874557495,-0.015172322280704975,0.195376917719841,-0.0734659805893898
2977190423687,-0.9959878921508789,-9.361329078674316,2.030282974243164,-0.01703559048473835,0.1991034597158432,-0.0785234197974205
2977191661000,-1.0079588890075684,-9.39245319366455,2.01232647895813,-0.0191650390625,0.2044270783662796,-0.0785234197974205
2977192898300,-1.0295066833496094,-9.38048267364502,2.0590133666992188,-0.01943122036755085,0.1999019980430603,-0.0777248814702034
2977194135637,-1.072602391242981,-9.345766067504883,2.0925323963165283,-0.0223592109978199,0.2009667307138443,-0.0859764963388443
2977195372925,-1.0594342947006226,-9.388861656188965,2.029085874557495,-0.01889885775744915,0.2041608989238739,-0.0838470458984375
2977196610250,-1.1037269830703735,-9.370905876159668,2.036268472671509,-0.0210283063352108,0.2052256166934967,-0.0801205113530159
2977197847537,-1.0761936902999878,-9.355342864990234,2.0398597717285156,-0.02182685025036335,0.204959437251091,-0.0806528702378273
2977199084862,-1.1073182821273804,-9.370905876159668,1.988384485244751,-0.02422248013317585,0.2086859792470932,-0.0881059393286705
2977200322150,-1.1240776777267456,-9.378087997436523,2.0614075660705566,-0.02502102218568325,0.2086859792470932,-0.0902353897690773
2977201559462,-1.1216834783554077,-9.3828763961792,2.005143880844116,-0.0271504707634449,0.2081536203622818,-0.0902353897690773
2977202796775,-1.1121066808700562,-9.378087997436523,2.029085874557495,-0.02502102218568325,0.2126787006855011,-0.0894368439912796
2977204034100,-1.1456254720687866,-9.375694274902344,2.0434510707855225,-0.023956298828125,0.2129448801279068,-0.090501569211483
2977205271400,-1.114500880241394,-9.352949142456055,2.0027496814727783,-0.02129448764026165,0.2118801474571228,-0.0920986607670784
2977206508725,-1.138442873954773,-9.369708061218262,2.029085874557495,-0.02182685025036335,0.2174699604511261,-0.0902353897690773
2977207746000,-1.1109095811843872,-9.315838813781738,2.0374655723571777,-0.02555338479578495,0.224124476313591,-0.0934295654296875
2977208983325,-1.1528080701828003,-9.386467933654785,2.0254945755004883,-0.0276828333735466,0.2235921174287796,-0.0867750346660614
2977210220637,-1.1204863786697388,-9.350554466247559,2.031480073928833,-0.0276828333735466,0.2275848388671875,-0.0963575541973114
2977211457937,-1.1180921792984009,-9.363722801208496,1.9919757843017578,-0.0271504707634449,0.2262539267539978,-0.0974222794175148
2977212695250,-1.1109095811843872,-9.336189270019531,1.9704279899597168,-0.0319417305290699,0.2238582968711853,-0.0950266495347023
2977213932562,-1.1025298833847046,-9.339780807495117,2.0147206783294678,-0.0319417305290699,0.2323760986328125,-0.0984870046377182
2977215169850,-1.0965443849563599,-9.277531623840332,1.9931728839874268,-0.03034464456140995,0.2302466481924057,-0.1043429896235466
2977216407175,-1.095347285270691,-9.314641952514648,2.0039467811584473,-0.03087700717151165,0.228915736079216,-0.0990193635225296
2977217644475,-1.0319008827209473,-9.29069995880127,1.9823989868164062,-0.0362006276845932,0.2416924387216568,-0.1014149934053421
2977218881787,-1.0366894006729126,-9.281123161315918,1.9740192890167236,-0.0343373604118824,0.2345055490732193,-0.1016811802983284
2977220119112,-1.0295066833496094,-9.284714698791504,1.944091796875,-0.0319417305290699,0.2382320761680603,-0.1003502756357193
2977221356412,-1.0007762908935547,-9.308656692504883,1.9967641830444336,-0.0343373604118824,0.2403615266084671,-0.1043429896235466
2977222593725,-1.0390836000442505,-9.278728485107422,2.005143880844116,-0.0369991734623909,0.2376997172832489,-0.1046091690659523
2977223831037,-1.0450690984725952,-9.288305282592773,2.005143880844116,-0.038063894957304,0.2371673583984375,-0.1038106232881546
2977225068337,-1.0259153842926025,-9.238027572631836,1.9500772953033447,-0.0343373604118824,0.2379658967256546,-0.1030120849609375
2977226305637,-1.0546458959579468,-9.229647636413574,1.9369091987609863,-0.0330064557492733,0.23956298828125,-0.1027459055185318
2977227542962,-1.1097124814987183,-9.272743225097656,1.9740192890167236,-0.0377977155148983,0.2398291677236557,-0.1016811802983284
2977228780262,-1.049857497215271,-9.282320022583008,2.0159177780151367,-0.0340711809694767,0.238498255610466,-0.1011488139629364
2977230017587,-1.0797849893569946,-9.257181167602539,1.9381062984466553,-0.0322079136967659,0.243289515376091,-0.1019473597407341
2977231254887,-1.1276689767837524,-9.311050415039062,1.9548656940460205,-0.0367329902946949,0.2472822368144989,-0.1067386195063591
2977232492175,-1.1049240827560425,-9.29309368133545,1.946485996246338,-0.0377977155148983,0.2488793283700943,-0.1043429896235466
2977233729500,-1.1444283723831177,-9.287108421325684,1.9704279899597168,-0.0319417305290699,0.2456851452589035,-0.1062062531709671
2977234966837,-1.1228805780410767,-9.28950309753418,1.9488801956176758,-0.0311431884765625,0.243289515376091,-0.1040768101811409
2977236204137,-1.1623849868774414,-9.272743225097656,1.8794482946395874,-0.0314093679189682,0.2502102255821228,-0.100616455078125
2977237441425,-1.137245774269104,-9.346963882446289,1.9704279899597168,-0.0319417305290699,0.2499440461397171,-0.0958251953125
2977238678750,-1.113303780555725,-9.338583946228027,1.9476830959320068,-0.0359344482421875,0.2470160573720932,-0.1019473597407341
2977239916037,-1.1276689767837524,-9.38167953491211,1.9393033981323242,-0.0322079136967659,0.2571309506893158,-0.0984870046377182
2977241153337,-1.1180921792984009,-9.35773754119873,1.9297266006469727,-0.02848137728869915,0.2563323974609375,-0.0992855504155159
2977242390650,-1.1324573755264282,-9.374496459960938,1.9153614044189453,-0.0330064557492733,0.2534044086933136,-0.0950266495347023
2977243627962,-1.136048674583435,-9.374496459960938,1.9177556037902832,-0.033538818359375,0.2555338442325592,-0.0923648402094841
2977244865287,-1.1252747774124146,-9.387664794921875,1.8842366933822632,-0.0362006276845932,0.25872802734375,-0.0968899205327034
2977246102575,-1.138442873954773,-9.376891136169434,1.902193307876587,-0.0343373604118824,0.2608574628829956,-0.0974222794175148
2977247339912,-1.1312602758407593,-9.440337181091309,1.9153614044189453,-0.0330064557492733,0.2563323974609375,-0.0913001149892807
2977248577225,-1.139639973640442,-9.431957244873047,1.8866310119628906,-0.0346035435795784,0.2573971152305603,-0.0960913747549057
2977249814512,-1.116895079612732,-9.453505516052246,1.86508309841156,-0.038330078125,0.2664472758769989,-0.0923648402094841
2977251051812,-1.115697979927063,-9.50498104095459,1.8507179021835327,-0.0338049978017807,0.2699076235294342,-0.0936957448720932
2977252289150,-1.1192892789840698,-9.50498104095459,1.8758569955825806,-0.0311431884765625,0.268310546875,-0.090501569211483
2977253526450,-1.1037269830703735,-9.530119895935059,1.9177556037902832,-0.0407257080078125,0.2739003598690033,-0.0870412141084671
2977254763750,-1.1097124814987183,-9.549273490905762,1.9081788063049316,-0.0439198799431324,0.2715047299861908,-0.0920986607670784
2977256001075,-1.1085153818130493,-9.59835433959961,1.8399440050125122,-0.0417904332280159,0.2746988832950592,-0.0915662944316864
2977257238375,-1.1779472827911377,-9.622296333312988,1.8758569955825806,-0.0460493303835392,0.2744327187538147,-0.0907677561044693
2977258475687,-1.1623849868774414,-9.641449928283691,1.9524714946746826,-0.0487111397087574,0.2717708945274353,-0.0913001149892807
2977259712987,-1.1887211799621582,-9.708487510681152,1.8806453943252563,-0.0497758649289608,0.2725694477558136,-0.0920986607670784
2977260950300,-1.1887211799621582,-9.701305389404297,1.8567034006118774,-0.0540347620844841,0.2818857729434967,-0.0934295654296875
2977262187600,-1.215057373046875,-9.750386238098145,1.902193307876587,-0.0561642125248909,0.282684326171875,-0.0931633859872818
2977263424912,-1.1791443824768066,-9.77791976928711,1.9141643047332764,-0.0558980293571949,0.2776268720626831,-0.0907677561044693
2977264662225,-1.1599907875061035,-9.799468040466309,1.866280198097229,-0.0596245639026165,0.2784254252910614,-0.0926310196518898
2977265899512,-1.136048674583435,-9.834183692932129,1.9057846069335938,-0.0644158273935318,0.2848137617111206,-0.0955590158700943
2977267136850,-1.1875240802764893,-9.872490882873535,1.8626888990402222,-0.0646820068359375,0.2840152382850647,-0.0976884588599205
2977268374150,-1.171961784362793,-9.904812812805176,1.867477297782898,-0.0705379918217659,0.2856123149394989,-0.0934295654296875
2977269611462,-1.2222399711608887,-9.914389610290527,1.8507179021835327,-0.0729336217045784,0.2850799560546875,-0.0974222794175148
2977270848787,-1.1492167711257935,-9.940725326538086,1.8758569955825806,-0.0716027170419693,0.2888064980506897,-0.0984870046377182
2977272086075,-1.1779472827911377,-9.928754806518555,1.8938136100769043,-0.0793219655752182,0.2930653989315033,-0.0928971990942955
2977273323375,-1.1982979774475098,-9.982624053955078,1.9788076877593994,-0.0865088552236557,0.2973242700099945,-0.0950266495347023
2977274560700,-1.1049240827560425,-9.955090522766113,1.941697597503662,-0.0851779505610466,0.2975904643535614,-0.0960913747549057
2977275798012,-1.1025298833847046,-9.925163269042969,1.9117701053619385,-0.0891706645488739,0.2983890175819397,-0.0984870046377182
2977277035325,-1.0809820890426636,-9.895236015319824,1.946485996246338,-0.0918324738740921,0.2933315634727478,-0.0883721262216568
2977278272612,-1.095347285270691,-9.872490882873535,1.9835960865020752,-0.0963575541973114,0.2957271933555603,-0.0944942906498909
2977279509925,-1.0809820890426636,-9.824606895446777,1.9740192890167236,-0.0998179093003273,0.299719899892807,-0.0966237336397171
2977280747237,-1.0833762884140015,-9.837775230407715,1.9405004978179932,-0.0998179093003273,0.3007846474647522,-0.0998179093003273
2977281984550,-1.047463297843933,-9.818621635437012,1.9692308902740479,-0.1016811802983284,0.2983890175819397,-0.1040768101811409
2977283221862,-1.094150185585022,-9.792284965515137,1.9704279899597168,-0.1051415354013443,0.2981228232383728,-0.0990193635225296
2977284459162,-1.048660397529602,-9.801861763000488,1.9069817066192627,-0.1072709783911705,0.2989213764667511,-0.0992855504155159
2977285696487,-1.047463297843933,-9.813833236694336,1.965639591217041,-0.104875348508358,0.2999860942363739,-0.1056738942861557
2977286933800,-1.0797849893569946,-9.797073364257812,1.9357120990753174,-0.1032782644033432,0.3058420717716217,-0.110198974609375
2977288171100,-1.0845733880996704,-9.817423820495605,1.946485996246338,-0.1080695241689682,0.3047773540019989,-0.1120622381567955
2977289408400,-1.1180921792984009,-9.829395294189453,1.92134690284729,-0.1080695241689682,0.3053097128868103,-0.1115298792719841
2977290645712,-1.1324573755264282,-9.804256439208984,1.9141643047332764,-0.1051415354013443,0.3061082661151886,-0.1117960587143898
2977291883012,-1.0690110921859741,-9.86770248413086,1.899799108505249,-0.1072709783911705,0.3122304379940033,-0.119249127805233
2977293120350,-1.070208191871643,-9.895236015319824,1.8782511949539185,-0.1086018830537796,0.3151584267616272,-0.1208462193608284
2977294357662,-1.0905588865280151,-9.914389610290527,1.8519150018692017,-0.110198974609375,0.3127627968788147,-0.1208462193608284
2977295594962,-1.0630255937576294,-9.923966407775879,1.8567034006118774,-0.1115298792719841,0.3050435483455658,-0.1211123988032341
2977296832262,-1.0390836000442505,-9.90361499786377,1.8614917993545532,-0.1133931428194046,0.3031802773475647,-0.1314934641122818
2977298069575,-1.0091559886932373,-9.919178009033203,1.8483237028121948,-0.1120622381567955,0.3085038959980011,-0.1288316547870636
2977299306875,-1.013944387435913,-9.971850395202637,1.8567034006118774,-0.1125946044921875,0.3146260678768158,-0.1248389333486557
2977300544187,-1.0043675899505615,-9.93593692779541,1.8806453943252563,-0.1155225932598114,0.3077053427696228,-0.1290978342294693
2977301781512,-0.9888052940368652,-9.962273597717285,1.9309237003326416,-0.1176520437002182,0.3074391782283783,-0.1285654753446579
2977303018812,-0.9624691009521484,-9.950302124023438,1.868674397468567,-0.1165873184800148,0.3082377016544342,-0.1346876323223114
2977304256125,-0.9528923034667969,-9.940725326538086,1.8878281116485596,-0.119781494140625,0.3074391782283783,-0.1344214528799057
2977305493437,-0.950498104095459,-9.90361499786377,1.868674397468567,-0.1208462193608284,0.3058420717716217,-0.1344214528799057
2977306730750,-0.9385270476341248,-9.923966407775879,1.899799108505249,-0.1235080286860466,0.3071729838848114,-0.1421407014131546
2977307968037,-0.9038111567497253,-9.86889934539795,1.9476830959320068,-0.1216447576880455,0.2999860942363739,-0.1402774304151535
2977309205350,-0.9133879542350769,-9.853337287902832,1.9189527034759521,-0.1224433034658432,0.2933315634727478,-0.1424068808555603
2977310442662,-0.9457097053527832,-9.825803756713867,1.9285295009613037,-0.1277669221162796,0.3021155297756195,-0.1479966938495636
2977311679975,-0.9457097053527832,-9.84495735168457,1.9165585041046143,-0.1229756623506546,0.2991875410079956,-0.1479966938495636
2977312917287,-0.8858546614646912,-9.794679641723633,1.9620482921600342,-0.1219109445810318,0.299719899892807,-0.1517232209444046
2977314154575,-0.9217676520347595,-9.738415718078613,1.985990285873413,-0.1259036511182785,0.3007846474647522,-0.1589101105928421
2977315391912,-0.9277531504631042,-9.7791166305542,1.96683669090271,-0.1272345632314682,0.3039788007736206,-0.1597086638212204
2977316629212,-0.8930372595787048,-9.761160850524902,1.9835960865020752,-0.1264360249042511,0.3037126362323761,-0.1554497629404068
2977317866525,-0.8643068075180054,-9.694122314453125,1.9405004978179932,-0.1285654753446579,0.2981228232383728,-0.16290283203125
2977319103825,-0.8918401598930359,-9.720458984375,1.9524714946746826,-0.1320258229970932,0.2965257465839386,-0.1711544394493103
2977320341137,-0.8978256583213806,-9.710882186889648,1.9716250896453857,-0.1264360249042511,0.29705810546875,-0.1730177104473114
2977321578437,-0.9169792532920837,-9.707290649414062,1.9967641830444336,-0.124040387570858,0.3007846474647522,-0.1748809814453125
2977322815750,-0.8990227580070496,-9.710882186889648,2.0159177780151367,-0.1251051127910614,0.2943962812423706,-0.1775427907705307
2977324053050,-0.9193734526634216,-9.709685325622559,2.0374655723571777,-0.1261698454618454,0.2962595522403717,-0.18206787109375
2977325290375,-0.9624691009521484,-9.743204116821289,1.9776105880737305,-0.12457275390625,0.3026479184627533,-0.1852620393037796
2977326527675,-0.9361328482627869,-9.701305389404297,2.027888774871826,-0.1229756623506546,0.2981228232383728,-0.1892547607421875
2977327764975,-0.950498104095459,-9.6989107131958,2.0254945755004883,-0.1237742081284523,0.29705810546875,-0.1932474672794342
2977329002300,-0.9804255962371826,-9.696516990661621,2.0159177780151367,-0.1264360249042511,0.2975904643535614,-0.1943121999502182
2977330239600,-0.9397241473197937,-9.774328231811523,2.055422067642212,-0.12457275390625,0.2959933876991272,-0.2020314484834671
2977331476912,-0.9576807022094727,-9.758766174316406,2.0242974758148193,-0.1229756623506546,0.2946624755859375,-0.2068227082490921
2977332714225,-0.9516952037811279,-9.746795654296875,2.0626046657562256,-0.1219109445810318,0.2943962812423706,-0.2025638073682785
2977333951525,-0.9277531504631042,-9.765949249267578,2.0590133666992188,-0.1256374716758728,0.2975904643535614,-0.2073550671339035
2977335188837,-0.9217676520347595,-9.798270225524902,2.0147206783294678,-0.1219109445810318,0.3021155297756195,-0.2108154296875
2977336426137,-0.9265560507774353,-9.792284965515137,2.031480073928833,-0.1237742081284523,0.3015831708908081,-0.2142757773399353
2977337663462,-0.8966285586357117,-9.801861763000488,2.0602104663848877,-0.1253712922334671,0.3002522885799408,-0.2174699604511261
2977338900762,-0.9313444495201111,-9.759963035583496,2.0697875022888184,-0.1251051127910614,0.2978566586971283,-0.2164052277803421
2977340138087,-0.9193734526634216,-9.746795654296875,2.0661959648132324,-0.1275007426738739,0.3042449951171875,-0.2177361398935318
2977341375400,-0.8954314589500427,-9.744400978088379,2.056619167327881,-0.128299281001091,0.3074391782283783,-0.224124476313591
2977342612687,-0.8990227580070496,-9.771934509277344,2.01232647895813,-0.128299281001091,0.304511159658432,-0.2257215678691864
2977343850000,-0.8810662031173706,-9.800664901733398,2.074575901031494,-0.124040387570858,0.3002522885799408,-0.2270524799823761
2977345087312,-0.8750807046890259,-9.731232643127441,2.0470423698425293,-0.129364013671875,0.304511159658432,-0.2275848388671875
2977346324612,-0.8164227604866028,-9.7420072555542,2.097320795059204,-0.1296301931142807,0.3053097128868103,-0.2326422780752182
2977347561937,-0.8619126081466675,-9.707290649414062,2.0829555988311768,-0.129364013671875,0.3015831708908081,-0.2363688051700592
2977348799237,-0.8451532125473022,-9.692925453186035,2.1080946922302246,-0.129364013671875,0.3055759072303772,-0.2339731752872467
2977350036550,-0.8547300100326538,-9.707290649414062,2.1104888916015625,-0.1304287314414978,0.3034464418888092,-0.2371673583984375
2977351273850,-0.8271967172622681,-9.648633003234863,2.120065689086914,-0.1309611052274704,0.3037126362323761,-0.2424909770488739
2977352511175,-0.7960720658302307,-9.640253067016602,2.117671489715576,-0.1298963725566864,0.3010508120059967,-0.244354248046875
2977353748475,-0.7912836670875549,-9.649829864501953,2.121262788772583,-0.1320258229970932,0.304511159658432,-0.2448866069316864
2977354985775,-0.8188169598579407,-9.660603523254395,2.07936429977417,-0.133090540766716,0.3037126362323761,-0.251807302236557
2977356223100,-0.8487445116043091,-9.647436141967773,2.0865468978881836,-0.1288316547870636,0.299719899892807,-0.2488793283700943
2977357460425,-0.7960720658302307,-9.606734275817871,2.0925323963165283,-0.1296301931142807,0.2999860942363739,-0.2528720498085022
2977358697712,-0.7984662652015686,-9.612719535827637,2.0889410972595215,-0.1272345632314682,0.3047773540019989,-0.2536705732345581
2977359935000,-0.8319851160049438,-9.59596061706543,2.1320366859436035,-0.129364013671875,0.3077053427696228,-0.2547353208065033
2977361172337,-0.8212112188339233,-9.604340553283691,2.0829555988311768,-0.1301625519990921,0.3029140830039978,-0.2542029321193695
2977362409637,-0.7864952683448792,-9.589975357055664,2.0685904026031494,-0.1253712922334671,0.3015831708908081,-0.25872802734375
2977363646950,-0.7817068696022034,-9.606734275817871,2.0434510707855225,-0.1216447576880455,0.3050435483455658,-0.2640516459941864
2977364884275,-0.7936778664588928,-9.63187313079834,2.100912094116211,-0.1243065744638443,0.304511159658432,-0.2589941918849945
2977366121562,-0.8044517636299133,-9.607931137084961,2.0709846019744873,-0.128299281001091,0.301849365234375,-0.2632530927658081
2977367358875,-0.8020575642585754,-9.641449928283691,2.03507137298584,-0.1219109445810318,0.2991875410079956,-0.2664472758769989
2977368596187,-0.7457938194274902,-9.613917350769043,2.054224967956543,-0.1256374716758728,0.2999860942363739,-0.2699076235294342
2977369833487,-0.7577648162841797,-9.643844604492188,2.081758499145508,-0.1213785782456398,0.3037126362323761,-0.2728356122970581
2977371070812,-0.7829039692878723,-9.635464668273926,2.032677173614502,-0.124040387570858,0.3047773540019989,-0.2749650776386261
2977372308125,-0.7745242714881897,-9.613917350769043,2.0195090770721436,-0.1264360249042511,0.3021155297756195,-0.2752312421798706
2977373545437,-0.7649474740028381,-9.609128952026367,2.0374655723571777,-0.128299281001091,0.306640625,-0.2850799560546875
2977374782737,-0.7757213711738586,-9.621099472045898,2.0242974758148193,-0.12457275390625,0.3050435483455658,-0.2861446738243103
2977376020025,-0.7912836670875549,-9.63067626953125,2.013523578643799,-0.1251051127910614,0.3055759072303772,-0.2832166850566864
2977377257337,-0.7697358727455139,-9.647436141967773,2.0374655723571777,-0.1211123988032341,0.3082377016544342,-0.2888064980506897
2977378494650,-0.7601590752601624,-9.654618263244629,1.9991583824157715,-0.1256374716758728,0.309302419424057,-0.2893388569355011
2977379731962,-0.7433996200561523,-9.65222454071045,2.0590133666992188,-0.1272345632314682,0.3061082661151886,-0.2904035747051239
2977380969275,-0.7709329724311829,-9.68694019317627,2.0003554821014404,-0.1275007426738739,0.3034464418888092,-0.2933315634727478
2977382206587,-0.7493851184844971,-9.651026725769043,1.9967641830444336,-0.1280331015586853,0.3079715371131897,-0.2994537353515625
2977383443887,-0.7876923680305481,-9.658209800720215,2.01232647895813,-0.1301625519990921,0.3108995258808136,-0.3015831708908081
2977384681212,-0.7386112213134766,-9.62947940826416,1.9560627937316895,-0.1360185444355011,0.3085038959980011,-0.301849365234375
2977385918512,-0.788889467716217,-9.677363395690918,1.968033790588379,-0.1402774304151535,0.3124966025352478,-0.3082377016544342
2977387155825,-0.7769184708595276,-9.709685325622559,1.9752163887023926,-0.1346876323223114,0.3156907856464386,-0.3026479184627533
2977388393137,-0.7565677165985107,-9.746795654296875,1.945288896560669,-0.1365509033203125,0.3116980493068695,-0.309302419424057
2977389630437,-0.7338228225708008,-9.749189376831055,1.9608511924743652,-0.1365509033203125,0.3143598735332489,-0.3130289614200592
2977390867750,-0.7793126702308655,-9.78869342803955,1.92134690284729,-0.14373779296875,0.3178202211856842,-0.3119642436504364
2977392105050,-0.7948749661445618,-9.800664901733398,1.9369091987609863,-0.1458672434091568,0.309302419424057,-0.3143598735332489
2977393342362,-0.8152256608009338,-9.81263542175293,1.9632453918457031,-0.1471981406211853,0.3138275146484375,-0.3186187744140625
2977394579675,-0.8068459630012512,-9.873687744140625,1.9584569931030273,-0.148529052734375,0.3164893090724945,-0.318884938955307
2977395816987,-0.8595184087753296,-9.861717224121094,1.9476830959320068,-0.1461334228515625,0.3196834921836853,-0.318884938955307
2977397054275,-0.7817068696022034,-9.906009674072266,1.9273324012756348,-0.1501261442899704,0.3199496865272522,-0.3231438398361206
2977398291587,-0.8535329103469849,-9.921571731567383,1.9381062984466553,-0.157046839594841,0.3234100341796875,-0.3297983705997467
2977399528925,-0.8032546639442444,-9.923966407775879,1.9153614044189453,-0.1637013703584671,0.3260718286037445,-0.3321940004825592
2977400766212,-0.8152256608009338,-9.976638793945312,1.9788076877593994,-0.1698235422372818,0.3172878623008728,-0.3369852602481842
2977402003525,-0.7733271718025208,-10.011354446411133,1.9297266006469727,-0.1759456992149353,0.3218129575252533,-0.3393808901309967
2977403240850,-0.811634361743927,-9.951498985290527,1.9620482921600342,-0.1770104318857193,0.3250071108341217,-0.3431074321269989
2977404478137,-0.8140285611152649,-9.967061996459961,1.968033790588379,-0.1783413290977478,0.3308630883693695,-0.3447045087814331
2977405715450,-0.8140285611152649,-10.037691116333008,1.944091796875,-0.1887224018573761,0.3271365761756897,-0.3471001386642456
2977406952762,-0.7793126702308655,-10.017339706420898,1.9812018871307373,-0.1983049213886261,0.3300645649433136,-0.3516252338886261
2977408190062,-0.7769184708595276,-10.037691116333008,1.9800047874450684,-0.2009667307138443,0.333258718252182,-0.3566826581954956
2977409427387,-0.7805097699165344,-10.030508041381836,1.965639591217041,-0.2070888876914978,0.3377838134765625,-0.359344482421875
2977410664687,-0.8104372620582581,-10.018537521362305,1.9800047874450684,-0.2078874409198761,0.3415103554725647,-0.3641357421875
2977411902000,-0.8391677141189575,-9.980230331420898,1.9572598934173584,-0.2121463268995285,0.3396470844745636,-0.3633371889591217
2977413139300,-0.8104372620582581,-9.950302124023438,1.988384485244751,-0.2211964875459671,0.3420427143573761,-0.3665313720703125
2977414376625,-0.7876923680305481,-9.999383926391602,1.9919757843017578,-0.2233259379863739,0.344970703125,-0.3718549907207489
2977415613912,-0.8200140595436096,-9.980230331420898,2.0231003761291504,-0.2283833771944046,0.3471001386642456,-0.3761138916015625
2977416851212,-0.790086567401886,-9.910798072814941,1.9931728839874268,-0.2350379079580307,0.3460354208946228,-0.385962575674057
2977418088550,-0.8164227604866028,-9.910798072814941,1.9692308902740479,-0.2398291677236557,0.3500281274318695,-0.3848978579044342
2977419325850,-0.8535329103469849,-9.939528465270996,1.9835960865020752,-0.2494116872549057,0.3596106469631195,-0.3862287700176239
2977420563150,-0.8678981065750122,-9.90122127532959,1.922544002532959,-0.2520734965801239,0.3633371889591217,-0.3894229531288147
2977421800475,-0.8176198601722717,-9.874884605407715,1.9620482921600342,-0.2512749433517456,0.3604092001914978,-0.3931494653224945
2977423037787,-0.7972691655158997,-9.911994934082031,1.9405004978179932,-0.2571309506893158,0.3606753945350647,-0.3950127363204956
2977424275087,-0.8463503122329712,-9.876082420349121,1.942894697189331,-0.2640516459941864,0.3636033833026886,-0.4032643437385559
2977425512400,-0.871489405632019,-9.907206535339355,1.9177556037902832,-0.2653825581073761,0.3705240786075592,-0.4053938090801239
2977426749700,-0.8631097078323364,-9.904812812805176,1.942894697189331,-0.2699076235294342,0.3718549907207489,-0.4056599736213684
2977427987000,-0.8954314589500427,-9.917980194091797,1.9548656940460205,-0.2736341655254364,0.3774448037147522,-0.4056599736213684
2977429224325,-0.8355764150619507,-9.90241813659668,1.9584569931030273,-0.2760297954082489,0.3777109682559967,-0.41204833984375
2977430461650,-0.8607155084609985,-9.870096206665039,1.9800047874450684,-0.2770945131778717,0.3739844262599945,-0.4189690351486206
2977431698937,-0.849941611289978,-9.86889934539795,1.902193307876587,-0.280554860830307,0.3806389570236206,-0.4181705117225647
2977432936237,-0.849941611289978,-9.872490882873535,1.9045875072479248,-0.2885403037071228,0.3883582055568695,-0.4280191957950592
2977434173562,-0.8367735147476196,-9.897629737854004,1.9321208000183105,-0.2981228232383728,0.390753835439682,-0.429083913564682
2977435410862,-0.8643068075180054,-9.953893661499023,1.9333178997039795,-0.2999860942363739,0.3872934877872467,-0.4317457377910614
2977436648187,-0.8607155084609985,-9.951498985290527,1.8950107097625732,-0.2989213764667511,0.3902214765548706,-0.4320119023323059
2977437885475,-0.8547300100326538,-9.947908401489258,1.9285295009613037,-0.304511159658432,0.3960774540901184,-0.4317457377910614
2977439122787,-0.8631097078323364,-9.995792388916016,1.944091796875,-0.3085038959980011,0.4053938090801239,-0.4368031620979309
2977440360100,-0.872686505317688,-9.941922187805176,1.942894697189331,-0.3103671669960022,0.4056599736213684,-0.4421268105506897
2977441597412,-0.8583213090896606,-9.967061996459961,1.9081788063049316,-0.3138275146484375,0.4029981791973114,-0.443457692861557
2977442834725,-0.8439561128616333,-9.983820915222168,1.9033904075622559,-0.3194173276424408,0.4128468632698059,-0.4463856816291809
2977444072037,-0.8547300100326538,-10.010157585144043,1.8746598958969116,-0.3207482099533081,0.414710134267807,-0.4490475058555603
2977445309350,-0.8248025178909302,-10.037691116333008,1.9105730056762695,-0.3282012939453125,0.4133792519569397,-0.455169677734375
2977446546650,-0.8200140595436096,-10.014945983886719,1.8806453943252563,-0.3319278359413147,0.4173719584941864,-0.4527740478515625
2977447783975,-0.8355764150619507,-10.040084838867188,1.8183962106704712,-0.3335249125957489,0.4208323061466217,-0.4533064067363739
2977449021287,-0.7960720658302307,-10.04846477508545,1.844732403755188,-0.342841237783432,0.4240264892578125,-0.4594285786151886
2977450258575,-0.811634361743927,-10.086771965026855,1.8579005002975464,-0.342841237783432,0.4258897602558136,-0.4631550908088684
2977451495875,-0.8104372620582581,-10.105925559997559,1.8519150018692017,-0.347632497549057,0.4301486611366272,-0.4682125449180603
2977452733200,-0.8248025178909302,-10.105925559997559,1.843535304069519,-0.3561502993106842,0.4296162724494934,-0.4719390869140625
2977453970525,-0.812831461429596,-10.156203269958496,1.8962078094482422,-0.3596106469631195,0.4381340742111206,-0.4730038046836853
2977455207812,-0.8331822156906128,-10.131064414978027,1.86508309841156,-0.3630710244178772,0.4453209638595581,-0.4759317934513092
2977456445125,-0.8236054182052612,-10.122684478759766,1.89860200881958,-0.3710564374923706,0.4458533227443695,-0.4788597822189331
2977457682462,-0.8427590131759644,-10.159794807434082,1.9129672050476074,-0.3790418803691864,0.4471842348575592,-0.4804568886756897
2977458919737,-0.8200140595436096,-10.120290756225586,1.8543092012405396,-0.3862287700176239,0.4509107768535614,-0.48870849609375
2977460157062,-0.8044517636299133,-10.110713958740234,1.8770540952682495,-0.3888905644416809,0.4527740478515625,-0.48870849609375
2977461394350,-0.8068459630012512,-10.089165687561035,1.8614917993545532,-0.3966098427772522,0.4588962197303772,-0.498291015625
2977462631662,-0.7829039692878723,-10.065223693847656,1.9141643047332764,-0.4011349081993103,0.4644860029220581,-0.5014851689338684
2977463868975,-0.8104372620582581,-10.038887977600098,1.8710685968399048,-0.4043290913105011,0.4658169150352478,-0.5046793818473816
2977465106275,-0.8331822156906128,-10.029311180114746,1.8962078094482422,-0.4077894389629364,0.4724714457988739,-0.50787353515625
2977466343600,-0.7781155705451965,-10.019734382629395,1.866280198097229,-0.414710134267807,0.4764641523361206,-0.5161251425743103
2977467580912,-0.7338228225708008,-9.983820915222168,1.866280198097229,-0.4197675883769989,0.476996511220932,-0.522247314453125
2977468818225,-0.7733271718025208,-9.982624053955078,1.923741102218628,-0.4213646650314331,0.476996511220932,-0.5214487910270691
2977470055537,-0.7433996200561523,-9.917980194091797,1.8950107097625732,-0.4237602949142456,0.4791259765625,-0.527570903301239
2977471292837,-0.7338228225708008,-9.950302124023438,1.8938136100769043,-0.429083913564682,0.486579030752182,-0.5334269404411316
2977472530150,-0.7469909191131592,-9.894038200378418,1.920149803161621,-0.4304148256778717,0.4921688437461853,-0.5459374189376831
2977473767450,-0.6763619780540466,-9.926360130310059,1.941697597503662,-0.4365369975566864,0.4974924623966217,-0.5483330488204956
2977475004750,-0.6572083830833435,-9.872490882873535,1.866280198097229,-0.4394649863243103,0.5017513632774353,-0.5488654375076294
2977476242075,-0.6739677786827087,-9.838972091674805,1.902193307876587,-0.4418606162071228,0.5014851689338684,-0.5491315722465515
2977477479387,-0.6847416758537292,-9.817423820495605,1.8722656965255737,-0.4442562460899353,0.5054779052734375,-0.5549876093864441
2977478716687,-0.6177040338516235,-9.848548889160156,1.8579005002975464,-0.4469180703163147,0.5089382529258728,-0.5664333701133728
2977479953987,-0.6033388376235962,-9.817423820495605,1.8590975999832153,-0.4485151469707489,0.513197124004364,-0.5648362636566162
2977481191325,-0.6212953329086304,-9.815030097961426,1.8279730081558228,-0.4493137001991272,0.5147942304611206,-0.5690951943397522
2977482428612,-0.6177040338516235,-9.81263542175293,1.8399440050125122,-0.4517093300819397,0.5134633183479309,-0.5752173662185669
2977483665937,-0.6045359373092651,-9.835380554199219,1.8112136125564575,-0.4541049599647522,0.5166575312614441,-0.5826703906059265
2977484903250,-0.5877765417098999,-9.829395294189453,1.7908629179000854,-0.4562343955039978,0.5225135087966919,-0.5824042558670044
2977486140562,-0.6117185354232788,-9.823410034179688,1.802833914756775,-0.4575653076171875,0.5249091386795044,-0.5847998857498169
2977487377850,-0.6165069341659546,-9.841365814208984,1.7369933128356934,-0.4580976665019989,0.5289018154144287,-0.5882602334022522
2977488615162,-0.629675030708313,-9.81143856048584,1.7286136150360107,-0.4607594609260559,0.5286356806755066,-0.5951809287071228
2977489852475,-0.6153098344802856,-9.801861763000488,1.7070658206939697,-0.4615580141544342,0.5310313105583191,-0.598907470703125
2977491089775,-0.6344634294509888,-9.758766174316406,1.7345991134643555,-0.4644860029220581,0.537153422832489,-0.6018354296684265
2977492327100,-0.5566518902778625,-9.804256439208984,1.7070658206939697,-0.4615580141544342,0.541944682598114,-0.608489990234375
2977493564412,-0.5913678407669067,-9.780314445495605,1.7082629203796387,-0.4636874794960022,0.5488654375076294,-0.6082237958908081
2977494801725,-0.5267243981361389,-9.746795654296875,1.678335428237915,-0.4671478271484375,0.5480668544769287,-0.613813579082489
2977496039025,-0.5267243981361389,-9.730035781860352,1.6448166370391846,-0.4650183618068695,0.5485992431640625,-0.6178063154220581
2977497276325,-0.4776432514190674,-9.68694019317627,1.6388310194015503,-0.4650183618068695,0.5528581142425537,-0.6196696162223816
2977498513637,-0.47165775299072266,-9.715670585632324,1.6603789329528809,-0.4628889262676239,0.5517933964729309,-0.6260579228401184
2977499750962,-0.4345476031303406,-9.696516990661621,1.625662922859192,-0.4711405336856842,0.5555199384689331,-0.6348419189453125
2977500988250,-0.4034229815006256,-9.697713851928711,1.6603789329528809,-0.4703419804573059,0.5589802861213684,-0.6359066367149353
2977502225575,-0.38307228684425354,-9.649829864501953,1.5945383310317993,-0.4668816328048706,0.5632392168045044,-0.6396331787109375
2977503462862,-0.30526071786880493,-9.604340553283691,1.6184803247451782,-0.4706081748008728,0.5624406337738037,-0.6486833095550537
2977504700175,-0.29568392038345337,-9.599552154541016,1.6316484212875366,-0.4706081748008728,0.56536865234375,-0.6510789394378662
2977505937475,-0.31124621629714966,-9.616311073303223,1.6603789329528809,-0.4668816328048706,0.5651024580001831,-0.6577335000038147
2977507174825,-0.33518823981285095,-9.59835433959961,1.6436195373535156,-0.4663492739200592,0.56536865234375,-0.6614600419998169
2977508412112,-0.2801215946674347,-9.613917350769043,1.6687586307525635,-0.4655507206916809,0.5677642822265625,-0.6643880009651184
2977509649450,-0.24660277366638184,-9.599552154541016,1.599326729774475,-0.4652845561504364,0.5733540654182434,-0.6699777841567993
2977510886737,-0.22266076505184174,-9.600749015808105,1.6412252187728882,-0.4634212851524353,0.5682966113090515,-0.6699777841567993
2977512124037,-0.21787235140800476,-9.589975357055664,1.6041151285171509,-0.4642198383808136,0.5757496953010559,-0.675567626953125
2977513361362,-0.16160862147808075,-9.583989143371582,1.602918028831482,-0.462622731924057,0.5733540654182434,-0.680891215801239
2977514598662,-0.1412578970193863,-9.59715747833252,1.5670050382614136,-0.4644860029220581,0.574951171875,-0.6827545166015625
2977515835975,-0.14604631066322327,-9.57441234588623,1.5502456426620483,-0.4652845561504364,0.5752173662185669,-0.6880781054496765
2977517073275,-0.13527239859104156,-9.601945877075195,1.50355863571167,-0.4628889262676239,0.5752173662185669,-0.6936679482460022
2977518310600,-0.07062894850969315,-9.621099472045898,1.5203181505203247,-0.4610256552696228,0.5792100429534912,-0.6987253427505493
2977519547912,-0.03711012750864029,-9.624691009521484,1.499967336654663,-0.4572991132736206,0.5800086259841919,-0.7011209726333618
2977520785212,-0.02992752194404602,-9.59596061706543,1.5047557353973389,-0.4588962197303772,0.5762820839881897,-0.700056254863739
2977522022512,0.019153613597154617,-9.607931137084961,1.4472949504852295,-0.4565005898475647,0.5786777138710022,-0.7032504677772522
2977523259837,0.013168109580874443,-9.66539192199707,1.4736311435699463,-0.4602271020412445,0.580274760723114,-0.7109696865081787
2977524497137,0.02274491637945175,-9.62828254699707,1.4425065517425537,-0.462622731924057,0.579742431640625,-0.7107034921646118
2977525734462,0.04788403585553169,-9.618705749511719,1.45806884765625,-0.462622731924057,0.580274760723114,-0.7154947519302368
2977526971750,0.07062894850969315,-9.621099472045898,1.4041993618011475,-0.4610256552696228,0.5834689736366272,-0.724012553691864
2977528209075,0.09576807171106339,-9.66419506072998,1.37906014919281,-0.4565005898475647,0.58453369140625,-0.71868896484375
2977529446375,0.1280897855758667,-9.600749015808105,1.4006080627441406,-0.4644860029220581,0.5816056728363037,-0.7237464189529419
2977530683687,0.09816227108240128,-9.622296333312988,1.4173674583435059,-0.462622731924057,0.5786777138710022,-0.728803813457489
2977531921012,0.1280897855758667,-9.611522674560547,1.381454348564148,-0.4620903730392456,0.5784115195274353,-0.7293362021446228
2977533158312,0.16519992053508759,-9.613917350769043,1.3898340463638306,-0.4623565673828125,0.5813395380973816,-0.7314656376838684
2977534395625,0.23942017555236816,-9.575610160827637,1.3862427473068237,-0.4565005898475647,0.5794762372970581,-0.7293362021446228
2977535632925,0.22744916379451752,-9.576807022094727,1.3551181554794312,-0.4546373188495636,0.5824042558670044,-0.7319980263710022
2977536870237,0.22505496442317963,-9.566033363342285,1.3299790620803833,-0.4610256552696228,0.5818718671798706,-0.7343936562538147
2977538107537,0.25498247146606445,-9.524134635925293,1.3108254671096802,-0.4586300253868103,0.5784115195274353,-0.7373216152191162
2977539344850,0.2932897210121155,-9.549273490905762,1.292868971824646,-0.4580976665019989,0.5770806074142456,-0.7357245683670044
2977540582162,0.32202014327049255,-9.494207382202148,1.3239935636520386,-0.4562343955039978,0.5794762372970581,-0.7367892861366272
2977541819487,0.3495534360408783,-9.528923034667969,1.3239935636520386,-0.4525078535079956,0.5770806074142456,-0.7410481572151184
2977543056787,0.3579331636428833,-9.502586364746094,1.294066071510315,-0.4527740478515625,0.5760158896446228,-0.7415805459022522
2977544294100,0.3687070608139038,-9.502586364746094,1.3084312677383423,-0.4527740478515625,0.5722893476486206,-0.7375878095626831
2977545531400,0.38905778527259827,-9.508572578430176,1.2665326595306396,-0.4463856816291809,0.5744187831878662,-0.7359907031059265
2977546768712,0.47644615173339844,-9.554061889648438,1.1971008777618408,-0.445587158203125,0.5666995644569397,-0.7365230917930603
2977548006025,0.47644615173339844,-9.530119895935059,1.2485761642456055,-0.4413282573223114,0.5621744990348816,-0.7365230917930603
2977549243325,0.47165775299072266,-9.528923034667969,1.2677297592163086,-0.4410620629787445,0.5640377402305603,-0.7357245683670044
2977550480662,0.4812345504760742,-9.510966300964355,1.2270283699035645,-0.4389326274394989,0.5640377402305603,-0.7346597909927368
2977551717950,0.5410895943641663,-9.512163162231445,1.2485761642456055,-0.4370693564414978,0.5621744990348816,-0.7317318320274353
2977552955262,0.5434837937355042,-9.498995780944824,1.2437877655029297,-0.436004638671875,0.5576493740081787,-0.7325303554534912
2977554192575,0.569819986820221,-9.519346237182617,1.2270283699035645,-0.4293501079082489,0.5587140917778015,-0.7325303554534912
2977555429887,0.5770025849342346,-9.497797966003418,1.216254472732544,-0.4245588481426239,0.5533905029296875,-0.7293362021446228
2977556667175,0.6033388376235962,-9.50737476348877,1.2054805755615234,-0.4218970239162445,0.5507286787033081,-0.728271484375
2977557904500,0.6512228846549988,-9.502586364746094,1.1587936878204346,-0.4261559247970581,0.5485992431640625,-0.7280052900314331
2977559141800,0.6715735793113708,-9.493009567260742,1.1791443824768066,-0.4253574013710022,0.5427432656288147,-0.7285376787185669
2977560379125,0.6619967818260193,-9.452308654785156,1.1815385818481445,-0.4157748818397522,0.5454050898551941,-0.7272067666053772
2977561616425,0.6823474764823914,-9.463082313537598,1.173158884048462,-0.4101850688457489,0.5390167236328125,-0.7277390956878662
2977562853737,0.689530074596405,-9.48462963104248,1.1635820865631104,-0.41204833984375,0.5336930751800537,-0.7245449423789978
2977564091050,0.7350199222564697,-9.50617790222168,1.1025298833847046,-0.4139116108417511,0.5328945517539978,-0.7200198769569397
2977565328375,0.7625532746315002,-9.494207382202148,1.1204863786697388,-0.407257080078125,0.5289018154144287,-0.7162933349609375
2977566565662,0.7745242714881897,-9.536105155944824,1.1013327836990356,-0.4011349081993103,0.5273047685623169,-0.7109696865081787
2977567802987,0.7876923680305481,-9.514557838439941,1.1336544752120972,-0.3966098427772522,0.5225135087966919,-0.7165595293045044
2977569040275,0.8355764150619507,-9.498995780944824,1.115697979927063,-0.3947465717792511,0.5206502079963684,-0.7162933349609375
2977570277612,0.8583213090896606,-9.487024307250977,1.0905588865280151,-0.390753835439682,0.5195854902267456,-0.7112358808517456
2977571514900,0.8702923059463501,-9.491812705993652,1.113303780555725,-0.3891567587852478,0.5110676884651184,-0.7075093388557434
2977572752237,0.8942343592643738,-9.476250648498535,1.072602391242981,-0.3864949345588684,0.5012189745903015,-0.7069770097732544
2977573989537,0.9301473498344421,-9.464279174804688,1.0749965906143188,-0.381171315908432,0.5006866455078125,-0.7008548378944397
2977575226837,0.9253589510917664,-9.454702377319336,1.091755986213684,-0.3790418803691864,0.5009528398513794,-0.7008548378944397
2977576464150,0.94930100440979,-9.481039047241211,1.0402806997299194,-0.3761138916015625,0.496161550283432,-0.6963297128677368
2977577701450,0.9540894031524658,-9.458293914794922,1.0450690984725952,-0.368927001953125,0.4868452250957489,-0.6955311894416809
2977578938762,0.9780313968658447,-9.427168846130371,1.013944387435913,-0.3609415590763092,0.4833848774433136,-0.6915384531021118
2977580176075,1.0067617893218994,-9.419986724853516,1.0067617893218994,-0.3590782880783081,0.4823201298713684,-0.6875457763671875
2977581413400,1.0390836000442505,-9.422380447387695,1.013944387435913,-0.3596106469631195,0.4807230532169342,-0.6846177577972412
2977582650712,1.016338586807251,-9.409213066101074,1.0187327861785889,-0.3534885048866272,0.4724714457988739,-0.685682475566864
2977583888012,0.9959878921508789,-9.436745643615723,0.9576807022094727,-0.3468339741230011,0.4711405336856842,-0.6819559335708618
2977585125312,1.0259153842926025,-9.419986724853516,0.9600749015808105,-0.3420427143573761,0.4607594609260559,-0.676099956035614
2977586362612,1.0785878896713257,-9.41759204864502,0.9900023937225342,-0.3399132490158081,0.4565005898475647,-0.6729058027267456
2977587599950,1.05105459690094,-9.408015251159668,0.9313444495201111,-0.3324601948261261,0.453040212392807,-0.6681145429611206
2977588837237,1.0522516965866089,-9.394847869873047,0.9074024558067322,-0.3297983705997467,0.4463856816291809,-0.6625247597694397
2977590074562,1.0522516965866089,-9.41400146484375,0.9588778018951416,-0.3250071108341217,0.4453209638595581,-0.6593305468559265
2977591311875,1.0678139925003052,-9.41519832611084,0.9038111567497253,-0.3215467631816864,0.4413282573223114,-0.6587982177734375
2977592549162,1.0833762884140015,-9.404424667358398,0.8966285586357117,-0.3207482099533081,0.433875173330307,-0.647352397441864
2977593786475,1.114500880241394,-9.445125579833984,0.9217676520347595,-0.3156907856464386,0.4269544780254364,-0.6428273320198059
2977595023812,1.1025298833847046,-9.425971984863281,0.8834604620933533,-0.3079715371131897,0.4272206425666809,-0.6417626142501831
2977596261100,1.049857497215271,-9.434351921081543,0.8690952062606812,-0.3063744306564331,0.4202999472618103,-0.6340433955192566
2977597498412,1.0869675874710083,-9.473855972290039,0.8439561128616333,-0.3007846474647522,0.4125806987285614,-0.6271226406097412
2977598735737,1.0666168928146362,-9.466673851013184,0.8475474119186401,-0.294928640127182,0.4104512333869934,-0.6217990517616272
2977599973050,1.1037269830703735,-9.457097053527832,0.7745242714881897,-0.2874755859375,0.4091203510761261,-0.6188710331916809
2977601210362,1.1097124814987183,-9.497797966003418,0.8140285611152649,-0.2866770327091217,0.4027319848537445,-0.6087561845779419
2977602447662,1.1037269830703735,-9.463082313537598,0.7841010689735413,-0.2813534140586853,0.3952789306640625,-0.6034325361251831
2977603684975,1.1336544752120972,-9.44752025604248,0.812831461429596,-0.2717708945274353,0.3934156596660614,-0.5959794521331787
2977604922300,1.1563994884490967,-9.481039047241211,0.7864952683448792,-0.2691091001033783,0.3899553120136261,-0.5927852988243103
2977606159587,1.1635820865631104,-9.457097053527832,0.8020575642585754,-0.2693752646446228,0.3848978579044342,-0.5890587568283081
2977607396900,1.1563994884490967,-9.50498104095459,0.7996633648872375,-0.2632530927658081,0.3803727924823761,-0.5813395380973816
2977608634200,1.2042834758758545,-9.5624418258667,0.8020575642585754,-0.2579294741153717,0.37371826171875,-0.5760158896446228
2977609871537,1.213860273361206,-9.524134635925293,0.7553706169128418,-0.2528720498085022,0.3694593608379364,-0.5685628056526184
2977611108825,1.191115379333496,-9.544485092163086,0.7469909191131592,-0.253936767578125,0.3638695478439331,-0.5595126748085022
2977612346137,1.2773066759109497,-9.563638687133789,0.7386112213134766,-0.2502102255821228,0.3617401123046875,-0.5555199384689331
2977613583462,1.235408067703247,-9.580398559570312,0.7577648162841797,-0.23956298828125,0.3582797646522522,-0.5485992431640625
2977614820750,1.258152961730957,-9.619902610778809,0.7326257228851318,-0.2355702668428421,0.3516252338886261,-0.5435417890548706
2977616058050,1.2509703636169434,-9.613917350769043,0.7469909191131592,-0.2334408164024353,0.3415103554725647,-0.5350239872932434
2977617295375,1.2521674633026123,-9.627084732055664,0.7445967197418213,-0.2291819155216217,0.3393808901309967,-0.5310313105583191
2977618532675,1.260547161102295,-9.618705749511719,0.7338228225708008,-0.2267862856388092,0.3348558247089386,-0.5241105556488037
2977619769975,1.2737152576446533,-9.65222454071045,0.727837324142456,-0.2198655903339386,0.3319278359413147,-0.5201178789138794
2977621007300,1.3192051649093628,-9.690531730651855,0.751779317855835,-0.2182684987783432,0.3289998471736908,-0.5158589482307434
2977622244600,1.2677297592163086,-9.603142738342285,0.7457938194274902,-0.2177361398935318,0.3247409462928772,-0.5092044472694397
2977623481912,1.3395558595657349,-9.655815124511719,0.7314286231994629,-0.2124125063419342,0.3204820454120636,-0.5049455165863037
2977624719250,1.3503297567367554,-9.643844604492188,0.6979097723960876,-0.2062903493642807,0.3127627968788147,-0.5006866455078125
2977625956550,1.337161660194397,-9.668983459472656,0.7182605266571045,-0.2078874409198761,0.3116980493068695,-0.4895070195198059
2977627193837,1.313219666481018,-9.666589736938477,0.6979097723960876,-0.2054918110370636,0.3069067895412445,-0.4868452250957489
2977628431175,1.2868834733963013,-9.682151794433594,0.7326257228851318,-0.1967078298330307,0.3026479184627533,-0.4780612587928772
2977629668462,1.291671872138977,-9.6618013381958,0.7493851184844971,-0.1996358186006546,0.2959933876991272,-0.4751332402229309
2977630905787,1.313219666481018,-9.672574996948242,0.7493851184844971,-0.195376917719841,0.2933315634727478,-0.4732699990272522
2977632143087,1.314416766166687,-9.696516990661621,0.7050924301147461,-0.1913842111825943,0.2890726625919342,-0.4663492739200592
2977633380412,1.259350061416626,-9.710882186889648,0.6224924325942993,-0.1911180317401886,0.2866770327091217,-0.4644860029220581
2977634617700,1.3000515699386597,-9.764751434326172,0.6763619780540466,-0.1855282187461853,0.2877417504787445,-0.4565005898475647
2977635855012,1.2808979749679565,-9.756372451782227,0.6631938815116882,-0.1841973215341568,0.2773607075214386,-0.4485151469707489
2977637092337,1.2665326595306396,-9.737218856811523,0.6919242739677429,-0.1788736879825592,0.2776268720626831,-0.4490475058555603
2977638329625,1.2964602708816528,-9.787496566772461,0.6703764796257019,-0.1770104318857193,0.2741665244102478,-0.4447886049747467
2977639566950,1.2892776727676392,-9.828198432922363,0.6871358752250671,-0.1764780580997467,0.2680443525314331,-0.4362708032131195
2977640804262,1.3000515699386597,-9.805453300476074,0.6200982332229614,-0.1764780580997467,0.2688429057598114,-0.4333428144454956
2977642041575,1.2737152576446533,-9.81143856048584,0.6105214357376099,-0.1778089702129364,0.2736341655254364,-0.4346737265586853
2977643278887,1.2952631711959839,-9.827000617980957,0.6572083830833435,-0.1735500693321228,0.2616560161113739,-0.4274868369102478
2977644516187,1.2832921743392944,-9.829395294189453,0.6248866319656372,-0.1732838898897171,0.2573971152305603,-0.4187028706073761
2977645753500,1.2737152576446533,-9.84615421295166,0.6596025824546814,-0.1722191721200943,0.256598562002182,-0.4157748818397522
2977646990825,1.2785037755966187,-9.886856079101562,0.6320692300796509,-0.1703559011220932,0.2499440461397171,-0.4128468632698059
2977648228125,1.292868971824646,-9.864110946655273,0.6823474764823914,-0.1716867983341217,0.2454189658164978,-0.4131130576133728
2977649465437,1.2856863737106323,-9.883264541625977,0.6667851805686951,-0.1735500693321228,0.2462175190448761,-0.4080556035041809
2977650702750,1.2641384601593018,-9.864110946655273,0.6655880808830261,-0.1692911684513092,0.244354248046875,-0.4088541567325592
2977651940050,1.2892776727676392,-9.856928825378418,0.6404489874839783,-0.1703559011220932,0.2411600649356842,-0.4109836220741272
2977653177362,1.292868971824646,-9.858125686645508,0.6500257849693298,-0.1706220805644989,0.2408938854932785,-0.4043290913105011
2977654414687,1.2689268589019775,-9.853337287902832,0.645237386226654,-0.1706220805644989,0.2361026257276535,-0.3992716372013092
2977655651987,1.2964602708816528,-9.870096206665039,0.6823474764823914,-0.1684926301240921,0.2278510183095932,-0.3944803774356842
2977656889300,1.3048399686813354,-9.852140426635742,0.6416460871696472,-0.1690249890089035,0.2294481098651886,-0.3942142128944397
