timestamp_ns,accel_x,accel_y,accel_z,gyro_x,gyro_y,gyro_z
2532321371875,-0.28969842195510864,-9.743204116821289,0.4465186297893524,0.0191650390625,-0.005057440605014563,0.0
2532322609012,-0.30885201692581177,-9.731232643127441,0.36990416049957275,0.02076212503015995,-0.0018632676219567657,-0.0007985432748682797
2532323846162,-0.272938996553421,-9.71926212310791,0.36990416049957275,0.02129448764026165,-0.010913425125181675,0.005057440605014563
2532325083325,-0.26575639843940735,-9.791088104248047,0.43933600187301636,0.0204959437251091,-0.008517795242369175,0.0053236219100654125
2532326320475,-0.2753331959247589,-9.817423820495605,0.4010287821292877,0.02182685025036335,-0.008783976547420025,0.0007985432748682797
2532327557637,-0.29807811975479126,-9.817423820495605,0.39624038338661194,0.0223592109978199,-0.0066545275039970875,0.0021294488105922937
2532328794800,-0.21188685297966003,-9.799468040466309,0.456095427274704,0.0186326764523983,-0.00452507846057415,0.003460354171693325
2532330031950,-0.21667525172233582,-9.834183692932129,0.4225766062736511,0.023956298828125,-0.008517795242369175,0.0005323622026480734
2532331269112,-0.20350714027881622,-9.847352027893066,0.4141969084739685,0.023956298828125,-0.01117960549890995,0.0037265352439135313
2532332506262,-0.24181437492370605,-9.871294021606445,0.46327802538871765,0.0244886614382267,-0.01597086526453495,-0.0015970865497365594
2532333743412,-0.2106897532939911,-9.891644477844238,0.4357447028160095,0.0234239362180233,-0.014906140975654125,-0.0018632676219567657
2532334980562,-0.16400282084941864,-9.877279281616211,0.4728548526763916,0.0210283063352108,-0.01171196810901165,-0.0013309054775163531
2532336217737,-0.1867477297782898,-9.880870819091797,0.4189853072166443,0.0247548408806324,-0.007985432632267475,0.0002661811013240367
2532337454875,-0.24779987335205078,-9.847352027893066,0.4405331015586853,0.02422248013317585,-0.0138414166867733,0.0031941730994731188
2532338692025,-0.2214636653661728,-9.888052940368652,0.43933600187301636,0.023956298828125,-0.01943122036755085,-0.0002661811013240367
2532339929200,-0.20470423996448517,-9.888052940368652,0.41778820753097534,0.023956298828125,-0.01836649514734745,0.0037265352439135313
2532341166337,-0.2106897532939911,-9.885659217834473,0.41060560941696167,0.0234239362180233,-0.0210283063352108,0.0042588976211845875
2532342403500,-0.2346317619085312,-9.882067680358887,0.3974374830722809,0.02315775491297245,-0.015172322280704975,0.0063883461989462376
2532343640662,-0.1628057211637497,-9.914389610290527,0.4644751250743866,0.02422248013317585,-0.015438503585755825,0.01117960549890995
2532344877800,-0.19273324310779572,-9.906009674072266,0.43694180250167847,0.02502102218568325,-0.02369011752307415,0.010647243820130825
2532346114962,-0.19273324310779572,-9.906009674072266,0.4082113802433014,0.0220930315554142,-0.01783413253724575,0.007985432632267475
2532347352112,-0.1843535304069519,-9.862914085388184,0.4082113802433014,0.0215606689453125,-0.0204959437251091,0.007453070487827063
2532348589275,-0.1388636976480484,-9.831789016723633,0.3842693865299225,0.02422248013317585,-0.02555338479578495,0.01224433071911335
2532349826425,-0.22864626348018646,-9.946710586547852,0.43933600187301636,0.02422248013317585,-0.02502102218568325,0.0114457868039608
2532351063575,-0.22026655077934265,-9.938331604003906,0.3878606855869293,0.0210283063352108,-0.02555338479578495,0.0037265352439135313
2532352300737,-0.1999158412218094,-9.945513725280762,0.4141969084739685,0.02555338479578495,-0.02901373989880085,0.00958251953125
2532353537887,-0.24779987335205078,-9.953893661499023,0.39863458275794983,0.0186326764523983,-0.0268842913210392,0.010381062515079975
2532354775050,-0.22744916379451752,-9.959878921508789,0.3842693865299225,0.01597086526453495,-0.03087700717151165,0.0077192517928779125
2532356012225,-0.21547815203666687,-9.95748519897461,0.45848962664604187,0.013309055007994175,-0.02661811001598835,0.0015970865497365594
2532357249350,-0.17238251864910126,-9.927556991577148,0.3842693865299225,0.01117960549890995,-0.01756795309484005,0.0063883461989462376
2532358486512,-0.2190694510936737,-9.962273597717285,0.3495534360408783,0.0090501569211483,-0.0292799212038517,0.005057440605014563
2532359723687,-0.19033904373645782,-9.919178009033203,0.3926490843296051,0.00984870083630085,-0.033538818359375,0.0005323622026480734
2532360960812,-0.18076223134994507,-9.914389610290527,0.3603273630142212,0.01117960549890995,-0.0354020856320858,0.0023956298828125
2532362197975,-0.2190694510936737,-9.921571731567383,0.42616790533065796,0.0037265352439135313,-0.0306108258664608,0.00692070834338665
2532363435137,-0.1999158412218094,-9.915586471557617,0.40940847992897034,0.0023956298828125,-0.02661811001598835,-0.0002661811013240367
2532364672287,-0.1843535304069519,-9.907206535339355,0.3387795388698578,0.0066545275039970875,-0.0306108258664608,-0.0039927163161337376
2532365909450,-0.24660277366638184,-9.888052940368652,0.3974374830722809,0.003460354171693325,-0.0356682650744915,0.0010647244052961469
2532367146612,-0.25498247146606445,-9.848548889160156,0.36990416049957275,0.0031941730994731188,-0.0399271659553051,-0.0023956298828125
2532368383762,-0.2561795711517334,-9.865307807922363,0.35434186458587646,0.0015970865497365594,-0.0354020856320858,-0.0031941730994731188
2532369620912,-0.24899697303771973,-9.855731010437012,0.3627215623855591,0.0005323622026480734,-0.033538818359375,-0.0013309054775163531
2532370858062,-0.26575639843940735,-9.876082420349121,0.4118027091026306,0.006122165359556675,-0.0369991734623909,0.0005323622026480734
2532372095225,-0.2298433631658554,-9.892841339111328,0.37469255924224854,0.0029279920272529125,-0.0388624407351017,0.0005323622026480734
2532373332375,-0.25258827209472656,-9.853337287902832,0.39145198464393616,0.0002661811013240367,-0.033272635191679,0.0023956298828125
2532374569512,-0.2082955539226532,-9.87967300415039,0.36152446269989014,0.0013309054775163531,-0.0354020856320858,0.0037265352439135313
2532375806675,-0.22864626348018646,-9.859322547912598,0.41778820753097534,0.0007985432748682797,-0.0385962575674057,0.0007985432748682797
2532377043850,-0.1975216418504715,-9.870096206665039,0.4213795065879822,-0.0015970865497365594,-0.0388624407351017,-0.0005323622026480734
2532378281000,-0.22026655077934265,-9.897629737854004,0.42616790533065796,-0.0007985432748682797,-0.0409918874502182,0.0039927163161337376
2532379518150,-0.2106897532939911,-9.886856079101562,0.4345476031303406,-0.0002661811013240367,-0.0401933453977108,0.0029279920272529125
2532380755312,-0.2214636653661728,-9.874884605407715,0.4034229815006256,-0.003460354171693325,-0.0439198799431324,0.0066545275039970875
2532381992462,-0.20470423996448517,-9.882067680358887,0.37828385829925537,-0.0026618109550327063,-0.043121337890625,0.007453070487827063
2532383229612,-0.2537853717803955,-9.876082420349121,0.3926490843296051,-0.0042588976211845875,-0.0447184219956398,0.0053236219100654125
2532384466775,-0.2585738003253937,-9.880870819091797,0.4357447028160095,-0.0018632676219567657,-0.0465816929936409,0.010913425125181675
2532385703925,-0.1975216418504715,-9.872490882873535,0.3998316824436188,0.0015970865497365594,-0.0436537005007267,0.012776692397892475
2532386941075,-0.25498247146606445,-9.876082420349121,0.456095427274704,-0.0018632676219567657,-0.0460493303835392,0.008783976547420025
2532388178237,-0.26336219906806946,-9.861717224121094,0.4465186297893524,-0.0023956298828125,-0.0452507846057415,0.008517795242369175
2532389415387,-0.2561795711517334,-9.824606895446777,0.4213795065879822,-0.00452507846057415,-0.0401933453977108,0.01410759799182415
2532390652537,-0.2777273952960968,-9.84495735168457,0.4537012279033661,-0.006122165359556675,-0.0436537005007267,0.013309055007994175
2532391889687,-0.2968810200691223,-9.864110946655273,0.46327802538871765,-0.00452507846057415,-0.042855154722929,0.010381062515079975
2532393126862,-0.24181437492370605,-9.84615421295166,0.4273650050163269,-0.004791259765625,-0.043121337890625,0.010381062515079975
2532394364012,-0.2717418968677521,-9.84615421295166,0.4213795065879822,-0.005855984054505825,-0.0452507846057415,0.013309055007994175
2532395601162,-0.28131869435310364,-9.84376049041748,0.3902548849582672,-0.0037265352439135313,-0.0452507846057415,0.012776692397892475
2532396838325,-0.2717418968677521,-9.850942611694336,0.43933600187301636,-0.0015970865497365594,-0.0409918874502182,0.0204959437251091
2532398075475,-0.272938996553421,-9.813833236694336,0.4357447028160095,-0.0021294488105922937,-0.0391286201775074,0.01703559048473835
2532399312625,-0.24181437492370605,-9.860519409179688,0.4058171808719635,-0.0013309054775163531,-0.0409918874502182,0.01224433071911335
2532400549787,-0.31124621629714966,-9.874884605407715,0.4082113802433014,-0.0018632676219567657,-0.0492435023188591,0.014906140975654125
2532401786937,-0.2406172752380371,-9.876082420349121,0.3878606855869293,-0.0066545275039970875,-0.0452507846057415,0.0186326764523983
2532403024075,-0.23822307586669922,-9.859322547912598,0.4034229815006256,-0.00692070834338665,-0.0417904332280159,0.0196974016726017
2532404261250,-0.2454056739807129,-9.829395294189453,0.42856210470199585,-0.0026618109550327063,-0.0447184219956398,0.0186326764523983
2532405498412,-0.2669534981250763,-9.885659217834473,0.46088382601737976,-0.0042588976211845875,-0.0452507846057415,0.02129448764026165
2532406735562,-0.23942017555236816,-9.84376049041748,0.42377370595932007,-0.007453070487827063,-0.0423227921128273,0.023956298828125
2532407972712,-0.2621650993824005,-9.862914085388184,0.42856210470199585,-0.00958251953125,-0.0423227921128273,0.0162370465695858
2532409209875,-0.21547815203666687,-9.815030097961426,0.39384618401527405,-0.007453070487827063,-0.0401933453977108,0.0157046839594841
2532410447025,-0.23942017555236816,-9.822212219238281,0.43335050344467163,-0.004791259765625,-0.0460493303835392,0.01943122036755085
2532411684187,-0.2561795711517334,-9.824606895446777,0.3998316824436188,0.0007985432748682797,-0.0465816929936409,0.0220930315554142
2532412921337,-0.2885012924671173,-9.813833236694336,0.3926490843296051,-0.0037265352439135313,-0.0457831472158432,0.0252872034907341
2532414158487,-0.2885012924671173,-9.832986831665039,0.43933600187301636,-0.0029279920272529125,-0.0473802350461483,0.01783413253724575
2532415395637,-0.26096799969673157,-9.81143856048584,0.43694180250167847,-0.00452507846057415,-0.04791259765625,0.0191650390625
2532416632812,-0.27413609623908997,-9.821015357971191,0.4728548526763916,-0.007453070487827063,-0.0444522425532341,0.02315775491297245
2532417869962,-0.27653029561042786,-9.852140426635742,0.38546648621559143,-0.0053236219100654125,-0.0497758649289608,0.02555338479578495
2532419107112,-0.25498247146606445,-9.853337287902832,0.39384618401527405,-0.0005323622026480734,-0.0423227921128273,0.01996358297765255
2532420344275,-0.3124433159828186,-9.829395294189453,0.4082113802433014,-0.0013309054775163531,-0.0452507846057415,0.02555338479578495
2532421581425,-0.30286651849746704,-9.837775230407715,0.4752490520477295,-0.004791259765625,-0.0449846051633358,0.0234239362180233
2532422818575,-0.28730419278144836,-9.825803756713867,0.4357447028160095,-0.0037265352439135313,-0.0391286201775074,0.0268842913210392
2532424055737,-0.304063618183136,-9.84615421295166,0.47884035110473633,-0.0026618109550327063,-0.043121337890625,0.0244886614382267
2532425292875,-0.28730419278144836,-9.818621635437012,0.4189853072166443,0.0010647244052961469,-0.0417904332280159,0.0196974016726017
2532426530037,-0.3076549172401428,-9.821015357971191,0.4321534037590027,0.0071868896484375,-0.0420566126704216,0.0247548408806324
2532427767200,-0.30047231912612915,-9.813833236694336,0.3998316824436188,0.0018632676219567657,-0.0436537005007267,0.0244886614382267
2532429004350,-0.31962594389915466,-9.840168952941895,0.4357447028160095,-0.0026618109550327063,-0.0452507846057415,0.0210283063352108
2532430241500,-0.26575639843940735,-9.831789016723633,0.4465186297893524,-0.0031941730994731188,-0.0436537005007267,0.01889885775744915
2532431478662,-0.29209262132644653,-9.80904483795166,0.41299980878829956,-0.003460354171693325,-0.0346035435795784,0.02262539230287075
2532432715825,-0.31603461503982544,-9.797073364257812,0.40222588181495667,-0.0002661811013240367,-0.0359344482421875,0.02502102218568325
2532433952975,-0.2908955216407776,-9.799468040466309,0.41060560941696167,0.0018632676219567657,-0.0444522425532341,0.0258195661008358
2532435190125,-0.2717418968677521,-9.773131370544434,0.37469255924224854,0.0018632676219567657,-0.0425889752805233,0.02422248013317585
2532436427287,-0.32680854201316833,-9.780314445495605,0.4118027091026306,0.0013309054775163531,-0.0393948033452034,0.02741665206849575
2532437664437,-0.28969842195510864,-9.821015357971191,0.3974374830722809,0.00452507846057415,-0.0404595248401165,0.0276828333735466
2532438901612,-0.3519476652145386,-9.765949249267578,0.40940847992897034,0.005057440605014563,-0.0396609827876091,0.02422248013317585
2532440138762,-0.3758896589279175,-9.7791166305542,0.38067808747291565,0.0026618109550327063,-0.0364668108522892,0.0220930315554142
2532441375925,-0.31124621629714966,-9.782708168029785,0.395043283700943,0.0031941730994731188,-0.0375315360724926,0.0268842913210392
2532442613062,-0.31364041566848755,-9.750386238098145,0.4225766062736511,0.003460354171693325,-0.038330078125,0.02502102218568325
2532443850212,-0.33997663855552673,-9.792284965515137,0.46806642413139343,0.006122165359556675,-0.0340711809694767,0.02022976242005825
2532445087375,-0.2992752194404602,-9.781511306762695,0.37469255924224854,0.0021294488105922937,-0.0377977155148983,0.0282151959836483
2532446324525,-0.32680854201316833,-9.77552604675293,0.3471592366695404,0.0031941730994731188,-0.038063894957304,0.02848137728869915
2532447561662,-0.34356793761253357,-9.7791166305542,0.4034229815006256,0.0039927163161337376,-0.033538818359375,0.0215606689453125
2532448798837,-0.3232172429561615,-9.834183692932129,0.4213795065879822,0.0066545275039970875,-0.0343373604118824,0.02741665206849575
2532450035987,-0.3076549172401428,-9.783905029296875,0.38546648621559143,0.0037265352439135313,-0.0348697230219841,0.0268842913210392
2532451273162,-0.31364041566848755,-9.761160850524902,0.35673606395721436,-0.0005323622026480734,-0.0306108258664608,0.0244886614382267
2532452510300,-0.32680854201316833,-9.807847023010254,0.3770867586135864,0.0002661811013240367,-0.033272635191679,0.02369011752307415
2532453747437,-0.30885201692581177,-9.791088104248047,0.41299980878829956,0.0063883461989462376,-0.0354020856320858,0.0282151959836483
2532454984600,-0.32680854201316833,-9.81263542175293,0.4141969084739685,0.0053236219100654125,-0.0292799212038517,0.02981228195130825
2532456221775,-0.30885201692581177,-9.794679641723633,0.42018240690231323,0.0037265352439135313,-0.0282151959836483,0.03034464456140995
2532457458912,-0.2944868206977844,-9.769539833068848,0.3758896589279175,0.0039927163161337376,-0.02874755859375,0.02741665206849575
2532458696075,-0.3124433159828186,-9.763554573059082,0.3711012601852417,0.008783976547420025,-0.0311431884765625,0.02661811001598835
2532459933237,-0.3148375153541565,-9.806650161743164,0.4165911078453064,0.0037265352439135313,-0.02741665206849575,0.02661811001598835
2532461170387,-0.3232172429561615,-9.770737648010254,0.42377370595932007,0.005589802749454975,-0.0268842913210392,0.02262539230287075
2532462407537,-0.31124621629714966,-9.81263542175293,0.41060560941696167,0.010381062515079975,-0.02794901467859745,0.0258195661008358
2532463644712,-0.3423708379268646,-9.798270225524902,0.4429273307323456,0.0071868896484375,-0.02076212503015995,0.02262539230287075
2532464881862,-0.3100491166114807,-9.805453300476074,0.4381389021873474,0.0023956298828125,-0.01703559048473835,0.023956298828125
2532466119000,-0.3256114423274994,-9.81143856048584,0.424970805644989,0.005589802749454975,-0.02182685025036335,0.02661811001598835
2532467356162,-0.2908955216407776,-9.835380554199219,0.3555389642715454,0.007985432632267475,-0.0220930315554142,0.023956298828125
2532468593312,-0.3315969407558441,-9.762357711791992,0.4010287821292877,0.00984870083630085,-0.02741665206849575,0.02502102218568325
2532469830475,-0.3471592366695404,-9.798270225524902,0.3902548849582672,0.0002661811013240367,-0.01836649514734745,0.0234239362180233
2532471067625,-0.29568392038345337,-9.77672290802002,0.38546648621559143,0.0007985432748682797,-0.02315775491297245,0.02369011752307415
2532472304787,-0.2849099934101105,-9.81024169921875,0.43095630407333374,0.008783976547420025,-0.0234239362180233,0.02422248013317585
2532473541937,-0.2932897210121155,-9.804256439208984,0.424970805644989,0.0090501569211483,-0.0234239362180233,0.02262539230287075
2532474779100,-0.3292027413845062,-9.794679641723633,0.41778820753097534,0.0037265352439135313,-0.01996358297765255,0.0223592109978199
2532476016237,-0.33518823981285095,-9.822212219238281,0.395043283700943,0.0042588976211845875,-0.0173017717897892,0.0263519287109375
2532477253412,-0.31842881441116333,-9.854534149169922,0.4297592043876648,0.00452507846057415,-0.0223592109978199,0.0204959437251091
2532478490562,-0.3363853394985199,-9.829395294189453,0.42018240690231323,0.0066545275039970875,-0.0244886614382267,0.02262539230287075
2532479727712,-0.2992752194404602,-9.858125686645508,0.3926490843296051,0.0090501569211483,-0.01996358297765255,0.0316755510866642
2532480964862,-0.30047231912612915,-9.803058624267578,0.3974374830722809,0.006122165359556675,-0.01756795309484005,0.0247548408806324
2532482202037,-0.30286651849746704,-9.835380554199219,0.40222588181495667,0.0023956298828125,-0.01889885775744915,0.0223592109978199
2532483439175,-0.2968810200691223,-9.819818496704102,0.3627215623855591,0.0063883461989462376,-0.0223592109978199,0.02422248013317585
2532484676337,-0.3100491166114807,-9.817423820495605,0.4465186297893524,0.005855984054505825,-0.0220930315554142,0.02741665206849575
2532485913487,-0.2968810200691223,-9.81143856048584,0.42377370595932007,0.005057440605014563,-0.0271504707634449,0.02901373989880085
2532487150662,-0.28371289372444153,-9.828198432922363,0.4405331015586853,0.0071868896484375,-0.01703559048473835,0.0268842913210392
2532488387775,-0.3495534360408783,-9.765949249267578,0.4225766062736511,0.007453070487827063,-0.0162370465695858,0.0247548408806324
2532489624937,-0.3363853394985199,-9.765949249267578,0.36990416049957275,0.008783976547420025,-0.02076212503015995,0.0252872034907341
2532490862125,-0.31842881441116333,-9.774328231811523,0.4297592043876648,0.010114881210029125,-0.01836649514734745,0.02129448764026165
2532492099262,-0.3076549172401428,-9.807847023010254,0.42856210470199585,0.0090501569211483,-0.012510511092841625,0.0220930315554142
2532493336425,-0.30286651849746704,-9.795876502990723,0.395043283700943,0.005855984054505825,-0.014906140975654125,0.01943122036755085
2532494573587,-0.3064578175544739,-9.806650161743164,0.41299980878829956,0.0053236219100654125,-0.01703559048473835,0.02661811001598835
2532495810712,-0.2932897210121155,-9.818621635437012,0.3627215623855591,0.0026618109550327063,-0.02129448764026165,0.02369011752307415
2532497047887,-0.29568392038345337,-9.822212219238281,0.37229835987091064,0.0015970865497365594,-0.0215606689453125,0.01836649514734745
2532498285050,-0.28131869435310364,-9.78869342803955,0.41778820753097534,0.0039927163161337376,-0.0167694091796875,0.02076212503015995
2532499522200,-0.3256114423274994,-9.773131370544434,0.4082113802433014,0.0071868896484375,-0.0186326764523983,0.0210283063352108
2532500759362,-0.2693476974964142,-9.817423820495605,0.37229835987091064,0.008783976547420025,-0.0204959437251091,0.0210283063352108
2532501996512,-0.29807811975479126,-9.838972091674805,0.41060560941696167,0.008783976547420025,-0.0181003138422966,0.0196974016726017
2532503233662,-0.2801215946674347,-9.840168952941895,0.4141969084739685,0.006122165359556675,-0.01756795309484005,0.01996358297765255
2532504470837,-0.2753331959247589,-9.818621635437012,0.3866635859012604,0.005589802749454975,-0.02129448764026165,0.01836649514734745
2532505707975,-0.3172317147254944,-9.789891242980957,0.37229835987091064,0.005855984054505825,-0.01996358297765255,0.0215606689453125
2532506945137,-0.34835633635520935,-9.819818496704102,0.3878606855869293,0.007453070487827063,-0.01756795309484005,0.0215606689453125
2532508182275,-0.27413609623908997,-9.84615421295166,0.40940847992897034,0.008783976547420025,-0.0167694091796875,0.02022976242005825
2532509419462,-0.30286651849746704,-9.848548889160156,0.4058171808719635,0.00984870083630085,-0.01996358297765255,0.01756795309484005
2532510656587,-0.2777273952960968,-9.830592155456543,0.4141969084739685,0.0077192517928779125,-0.0215606689453125,0.01410759799182415
2532511893762,-0.29807811975479126,-9.804256439208984,0.4321534037590027,0.00984870083630085,-0.01756795309484005,0.008783976547420025
2532513130900,-0.3016694188117981,-9.827000617980957,0.424970805644989,0.0053236219100654125,-0.0181003138422966,0.005589802749454975
2532514368075,-0.3016694188117981,-9.860519409179688,0.41778820753097534,0.0023956298828125,-0.0196974016726017,0.010913425125181675
2532515605200,-0.2932897210121155,-9.84376049041748,0.40462008118629456,0.008517795242369175,-0.02422248013317585,0.01597086526453495
2532516842362,-0.3064578175544739,-9.84256362915039,0.37828385829925537,0.0066545275039970875,-0.0220930315554142,0.014906140975654125
2532518079525,-0.3100491166114807,-9.885659217834473,0.395043283700943,0.003460354171693325,-0.01703559048473835,0.0173017717897892
2532519316700,-0.30286651849746704,-9.858125686645508,0.4165911078453064,0.0026618109550327063,-0.0167694091796875,0.014906140975654125
2532520553850,-0.31842881441116333,-9.822212219238281,0.4189853072166443,0.0023956298828125,-0.01889885775744915,0.0138414166867733
2532521790987,-0.3292027413845062,-9.793481826782227,0.363918662071228,0.004791259765625,-0.0223592109978199,0.007453070487827063
2532523028162,-0.2992752194404602,-9.84495735168457,0.39145198464393616,0.0023956298828125,-0.02129448764026165,0.006122165359556675
2532524265287,-0.28131869435310364,-9.815030097961426,0.41778820753097534,0.0053236219100654125,-0.01756795309484005,0.00984870083630085
2532525502462,-0.2932897210121155,-9.876082420349121,0.3794809579849243,0.00931633822619915,-0.02022976242005825,0.012776692397892475
2532526739625,-0.2944868206977844,-9.861717224121094,0.3926490843296051,0.0002661811013240367,-0.0186326764523983,0.01410759799182415
2532527976775,-0.29209262132644653,-9.798270225524902,0.4429273307323456,0.0039927163161337376,-0.01943122036755085,0.013309055007994175
2532529213925,-0.2944868206977844,-9.840168952941895,0.39145198464393616,0.0029279920272529125,-0.01836649514734745,0.00692070834338665
2532530451087,-0.3208230435848236,-9.864110946655273,0.39145198464393616,-0.003460354171693325,-0.01463996060192585,0.005057440605014563
2532531688250,-0.3363853394985199,-9.81143856048584,0.38546648621559143,0.003460354171693325,-0.013309055007994175,0.005855984054505825
2532532925375,-0.3387795388698578,-9.824606895446777,0.42377370595932007,0.005855984054505825,-0.013042873702943325,0.004791259765625
2532534162562,-0.3208230435848236,-9.801861763000488,0.42856210470199585,0.0005323622026480734,-0.014906140975654125,0.0026618109550327063
2532535399712,-0.3076549172401428,-9.825803756713867,0.3878606855869293,-0.0015970865497365594,-0.015172322280704975,0.003460354171693325
2532536636862,-0.3208230435848236,-9.825803756713867,0.38067808747291565,0.0023956298828125,-0.01117960549890995,0.0039927163161337376
2532537874012,-0.2585738003253937,-9.848548889160156,0.3974374830722809,0.005057440605014563,-0.01463996060192585,0.006122165359556675
2532539111187,-0.2825157940387726,-9.829395294189453,0.36750996112823486,-0.0007985432748682797,-0.013042873702943325,0.005057440605014563
2532540348325,-0.3208230435848236,-9.818621635437012,0.3902548849582672,0.003460354171693325,-0.015438503585755825,0.0013309054775163531
2532541585475,-0.2645592987537384,-9.837775230407715,0.38905778527259827,0.006122165359556675,-0.01597086526453495,0.0031941730994731188
2532542822650,-0.27413609623908997,-9.77672290802002,0.36990416049957275,0.0029279920272529125,-0.013309055007994175,0.0031941730994731188
2532544059800,-0.30286651849746704,-9.805453300476074,0.4405331015586853,-0.0013309054775163531,-0.01224433071911335,0.0005323622026480734
2532545296962,-0.2346317619085312,-9.829395294189453,0.43933600187301636,0.00452507846057415,-0.015172322280704975,0.0002661811013240367
2532546534125,-0.29209262132644653,-9.818621635437012,0.3926490843296051,0.010913425125181675,-0.01783413253724575,-0.0005323622026480734
2532547771275,-0.28730419278144836,-9.864110946655273,0.4297592043876648,0.0066545275039970875,-0.01836649514734745,-0.0013309054775163531
2532549008412,-0.2753331959247589,-9.813833236694336,0.39863458275794983,0.005855984054505825,-0.015438503585755825,-0.0026618109550327063
2532550245575,-0.2597709000110626,-9.801861763000488,0.37229835987091064,0.0053236219100654125,-0.0186326764523983,0.0010647244052961469
2532551482737,-0.2885012924671173,-9.806650161743164,0.40701428055763245,0.007985432632267475,-0.0173017717897892,0.0007985432748682797
2532552719900,-0.27054479718208313,-9.81263542175293,0.3758896589279175,0.00692070834338665,-0.012510511092841625,-0.004791259765625
2532553957062,-0.26336219906806946,-9.78869342803955,0.4297592043876648,0.0029279920272529125,-0.014373779296875,-0.0021294488105922937
2532555194212,-0.26815059781074524,-9.804256439208984,0.4465186297893524,0.0063883461989462376,-0.01889885775744915,0.0
2532556431337,-0.2621650993824005,-9.803058624267578,0.41778820753097534,0.010647243820130825,-0.0162370465695858,-0.0029279920272529125
2532557668525,-0.2585738003253937,-9.773131370544434,0.41778820753097534,0.0090501569211483,-0.01756795309484005,-0.00931633822619915
2532558905675,-0.19273324310779572,-9.798270225524902,0.4429273307323456,0.0071868896484375,-0.014373779296875,-0.007985432632267475
2532560142825,-0.2454056739807129,-9.770737648010254,0.424970805644989,0.005589802749454975,-0.0157046839594841,-0.0031941730994731188
2532561379987,-0.2585738003253937,-9.792284965515137,0.3902548849582672,0.0005323622026480734,-0.01650322787463665,-0.008251613937318325
2532562617137,-0.2992752194404602,-9.827000617980957,0.3818751871585846,0.007985432632267475,-0.01996358297765255,-0.0077192517928779125
2532563854275,-0.2669534981250763,-9.818621635437012,0.4189853072166443,0.0114457868039608,-0.02262539230287075,-0.008251613937318325
2532565091450,-0.28131869435310364,-9.84376049041748,0.39145198464393616,0.008517795242369175,-0.01943122036755085,-0.0053236219100654125
2532566328600,-0.3064578175544739,-9.824606895446777,0.46088382601737976,0.01117960549890995,-0.0186326764523983,-0.0039927163161337376
2532567565750,-0.2669534981250763,-9.819818496704102,0.41060560941696167,0.0114457868039608,-0.0167694091796875,-0.005057440605014563
2532568802887,-0.28371289372444153,-9.836577415466309,0.4489128291606903,0.012776692397892475,-0.01996358297765255,-0.0021294488105922937
2532570040075,-0.25737667083740234,-9.815030097961426,0.44532153010368347,0.0114457868039608,-0.02555338479578495,0.0
2532571277237,-0.2753331959247589,-9.7791166305542,0.39145198464393616,0.00692070834338665,-0.0186326764523983,-0.0042588976211845875
2532572514362,-0.30526071786880493,-9.804256439208984,0.3794809579849243,0.010381062515079975,-0.0186326764523983,-0.0077192517928779125
2532573751525,-0.29568392038345337,-9.818621635437012,0.3902548849582672,0.015438503585755825,-0.01943122036755085,-0.010647243820130825
2532574988700,-0.2849099934101105,-9.831789016723633,0.3866635859012604,0.00984870083630085,-0.01597086526453495,-0.0090501569211483
2532576225825,-0.28730419278144836,-9.80904483795166,0.42377370595932007,0.008517795242369175,-0.0204959437251091,-0.003460354171693325
2532577463000,-0.27653029561042786,-9.817423820495605,0.40462008118629456,0.0119781494140625,-0.01756795309484005,-0.006122165359556675
2532578700162,-0.27413609623908997,-9.817423820495605,0.39624038338661194,0.0162370465695858,-0.02022976242005825,-0.0007985432748682797
2532579937312,-0.304063618183136,-9.861717224121094,0.36990416049957275,0.01463996060192585,-0.02076212503015995,0.0013309054775163531
2532581174475,-0.28371289372444153,-9.825803756713867,0.41060560941696167,0.015438503585755825,-0.01943122036755085,-0.007453070487827063
2532582411637,-0.3280056416988373,-9.835380554199219,0.43335050344467163,0.01703559048473835,-0.0210283063352108,-0.004791259765625
2532583648787,-0.3256114423274994,-9.824606895446777,0.4165911078453064,0.01463996060192585,-0.0196974016726017,-0.0066545275039970875
2532584885937,-0.3232172429561615,-9.81143856048584,0.3842693865299225,0.01996358297765255,-0.02262539230287075,-0.005855984054505825
2532586123112,-0.33997663855552673,-9.864110946655273,0.3770867586135864,0.0186326764523983,-0.0162370465695858,-0.004791259765625
2532587360237,-0.3315969407558441,-9.818621635437012,0.4213795065879822,0.0204959437251091,-0.0186326764523983,-0.0018632676219567657
2532588597400,-0.3519476652145386,-9.865307807922363,0.4405331015586853,0.01889885775744915,-0.01756795309484005,-0.0015970865497365594
2532589834575,-0.33997663855552673,-9.855731010437012,0.3627215623855591,0.010381062515079975,-0.0162370465695858,-0.0042588976211845875
2532591071712,-0.37229835987091064,-9.822212219238281,0.4141969084739685,0.01410759799182415,-0.01357523538172245,-0.008251613937318325
2532592308862,-0.36990416049957275,-9.907206535339355,0.39863458275794983,0.014906140975654125,-0.0090501569211483,-0.005589802749454975
2532593546025,-0.3902548849582672,-9.916783332824707,0.3423708379268646,0.01117960549890995,-0.0063883461989462376,-0.003460354171693325
2532594783187,-0.4213795065879822,-9.855731010437012,0.37828385829925537,0.010647243820130825,-0.01117960549890995,-0.0042588976211845875
2532596020337,-0.424970805644989,-9.847352027893066,0.40701428055763245,0.00984870083630085,-0.0119781494140625,-0.0037265352439135313
2532597257487,-0.365115761756897,-9.864110946655273,0.38905778527259827,0.01117960549890995,-0.005855984054505825,-0.00692070834338665
2532598494637,-0.43694180250167847,-9.864110946655273,0.4058171808719635,0.013309055007994175,-0.008251613937318325,-0.0114457868039608
2532599731775,-0.42018240690231323,-9.894038200378418,0.3794809579849243,0.010381062515079975,-0.0063883461989462376,-0.01357523538172245
2532600968962,-0.3770867586135864,-9.849745750427246,0.3926490843296051,0.014373779296875,-0.00692070834338665,-0.003460354171693325
2532602206100,-0.4213795065879822,-9.871294021606445,0.4141969084739685,0.0138414166867733,-0.0039927163161337376,-0.0005323622026480734
2532603443275,-0.41539400815963745,-9.873687744140625,0.424970805644989,0.010114881210029125,0.0039927163161337376,-0.008517795242369175
2532604680437,-0.41060560941696167,-9.861717224121094,0.3734954595565796,0.010114881210029125,-0.0037265352439135313,-0.008251613937318325
2532605917587,-0.3878606855869293,-9.848548889160156,0.3687070608139038,0.010114881210029125,-0.0021294488105922937,-0.0010647244052961469
2532607154725,-0.38067808747291565,-9.880870819091797,0.4034229815006256,0.01463996060192585,0.0039927163161337376,-0.00452507846057415
2532608391887,-0.40222588181495667,-9.852140426635742,0.37828385829925537,0.01224433071911335,0.0013309054775163531,-0.0077192517928779125
2532609629025,-0.3842693865299225,-9.821015357971191,0.38307228684425354,0.010114881210029125,0.0053236219100654125,-0.006122165359556675
2532610866212,-0.37229835987091064,-9.86650562286377,0.3734954595565796,0.012510511092841625,0.0063883461989462376,-0.004791259765625
2532612103375,-0.3711012601852417,-9.84495735168457,0.3866635859012604,0.00984870083630085,0.0071868896484375,-0.005057440605014563
2532613340512,-0.4010287821292877,-9.841365814208984,0.41539400815963745,0.012510511092841625,0.007453070487827063,-0.007985432632267475
2532614577675,-0.37229835987091064,-9.84615421295166,0.36750996112823486,0.010381062515079975,0.0066545275039970875,-0.005855984054505825
2532615814812,-0.37229835987091064,-9.834183692932129,0.39863458275794983,0.00692070834338665,0.013042873702943325,-0.010913425125181675
2532617051975,-0.3531447649002075,-9.819818496704102,0.42377370595932007,0.0114457868039608,0.01410759799182415,-0.007453070487827063
2532618289137,-0.3555389642715454,-9.837775230407715,0.46567222476005554,0.0162370465695858,0.014373779296875,0.0007985432748682797
2532619526275,-0.3579331636428833,-9.832986831665039,0.4225766062736511,0.01117960549890995,0.0167694091796875,-0.0023956298828125
2532620763425,-0.3579331636428833,-9.80904483795166,0.41539400815963745,0.0063883461989462376,0.0173017717897892,-0.00958251953125
2532622000600,-0.3519476652145386,-9.84495735168457,0.4297592043876648,0.008783976547420025,0.013309055007994175,-0.0026618109550327063
2532623237750,-0.33758243918418884,-9.817423820495605,0.44173023104667664,0.00958251953125,0.01783413253724575,-0.0005323622026480734
2532624474900,-0.36990416049957275,-9.828198432922363,0.4991910457611084,0.0114457868039608,0.0196974016726017,-0.0066545275039970875
2532625712062,-0.3471592366695404,-9.819818496704102,0.44771572947502136,0.007985432632267475,0.023956298828125,-0.00931633822619915
2532626949212,-0.34596213698387146,-9.827000617980957,0.44532153010368347,0.00692070834338665,0.0247548408806324,-0.0066545275039970875
2532628186375,-0.35434186458587646,-9.81263542175293,0.44173023104667664,0.008783976547420025,0.02369011752307415,-0.007453070487827063
2532629423550,-0.34356793761253357,-9.793481826782227,0.4165911078453064,0.008517795242369175,0.02262539230287075,-0.0090501569211483
2532630660687,-0.3064578175544739,-9.852140426635742,0.4082113802433014,0.0071868896484375,0.02369011752307415,-0.006122165359556675
2532631897850,-0.2885012924671173,-9.847352027893066,0.4596867263317108,0.0077192517928779125,0.02182685025036335,-0.0042588976211845875
2532633134987,-0.30286651849746704,-9.831789016723633,0.39624038338661194,0.010647243820130825,0.0268842913210392,-0.00984870083630085
2532634372137,-0.304063618183136,-9.823410034179688,0.46327802538871765,0.010114881210029125,0.02608574740588665,-0.007453070487827063
2532635609300,-0.333991140127182,-9.801861763000488,0.40222588181495667,0.004791259765625,0.0244886614382267,-0.0053236219100654125
2532636846475,-0.2885012924671173,-9.828198432922363,0.4213795065879822,0.005855984054505825,0.02794901467859745,-0.0063883461989462376
2532638083625,-0.25019407272338867,-9.832986831665039,0.43335050344467163,0.004791259765625,0.03034464456140995,-0.005057440605014563
2532639320762,-0.2932897210121155,-9.827000617980957,0.44532153010368347,0.006122165359556675,0.02874755859375,-0.005855984054505825
2532640557937,-0.28730419278144836,-9.84615421295166,0.4513070285320282,0.00931633822619915,0.03087700717151165,-0.0071868896484375
2532641795075,-0.304063618183136,-9.816226959228516,0.47405195236206055,0.00984870083630085,0.0340711809694767,-0.0066545275039970875
2532643032237,-0.2968810200691223,-9.803058624267578,0.45848962664604187,0.0053236219100654125,0.0319417305290699,-0.005855984054505825
2532644269375,-0.2693476974964142,-9.86889934539795,0.39863458275794983,0.0037265352439135313,0.02901373989880085,-0.006122165359556675
2532645506537,-0.26815059781074524,-9.827000617980957,0.4273650050163269,0.0029279920272529125,0.0330064557492733,-0.010381062515079975
2532646743712,-0.25258827209472656,-9.853337287902832,0.44532153010368347,0.0053236219100654125,0.0324740931391716,-0.006122165359556675
2532647980850,-0.21308395266532898,-9.817423820495605,0.45250412821769714,0.0071868896484375,0.0322079136967659,-0.005057440605014563
2532649218012,-0.24779987335205078,-9.850942611694336,0.46088382601737976,0.00692070834338665,0.0356682650744915,-0.004791259765625
2532650455162,-0.25737667083740234,-9.832986831665039,0.4213795065879822,0.0053236219100654125,0.0322079136967659,-0.0077192517928779125
2532651692337,-0.25498247146606445,-9.837775230407715,0.4381389021873474,0.0053236219100654125,0.02794901467859745,-0.0063883461989462376
2532652929500,-0.21787235140800476,-9.813833236694336,0.4441244304180145,0.010381062515079975,0.0311431884765625,-0.005855984054505825
2532654166650,-0.2190694510936737,-9.832986831665039,0.4572925269603729,0.007453070487827063,0.0324740931391716,-0.0071868896484375
2532655403800,-0.181959331035614,-9.815030097961426,0.4465186297893524,0.003460354171693325,0.0271504707634449,-0.0037265352439135313
2532656640950,-0.21547815203666687,-9.825803756713867,0.4345476031303406,0.003460354171693325,0.02502102218568325,-0.0063883461989462376
2532657878100,-0.17956513166427612,-9.855731010437012,0.43335050344467163,0.0029279920272529125,0.02422248013317585,-0.010913425125181675
2532659115237,-0.19871874153614044,-9.830592155456543,0.45250412821769714,0.0053236219100654125,0.02262539230287075,-0.0071868896484375
2532660352425,-0.21667525172233582,-9.821015357971191,0.4620809257030487,0.0007985432748682797,0.0244886614382267,-0.0053236219100654125
2532661589562,-0.1867477297782898,-9.852140426635742,0.41060560941696167,0.0031941730994731188,0.02262539230287075,-0.00958251953125
2532662826725,-0.22266076505184174,-9.804256439208984,0.42616790533065796,0.0053236219100654125,0.0234239362180233,-0.00692070834338665
2532664063887,-0.22625206410884857,-9.817423820495605,0.4082113802433014,0.005589802749454975,0.0204959437251091,-0.007453070487827063
2532665301012,-0.181959331035614,-9.874884605407715,0.3926490843296051,0.00452507846057415,0.02022976242005825,-0.008783976547420025
2532666538200,-0.21547815203666687,-9.831789016723633,0.42018240690231323,0.006122165359556675,0.01836649514734745,-0.00452507846057415
2532667775362,-0.16639702022075653,-9.830592155456543,0.4225766062736511,0.008251613937318325,0.02369011752307415,-0.0010647244052961469
2532669012500,-0.21188685297966003,-9.84615421295166,0.4273650050163269,0.005589802749454975,0.0215606689453125,-0.005855984054505825
2532670249650,-0.15921440720558167,-9.837775230407715,0.4405331015586853,0.005855984054505825,0.0191650390625,-0.007453070487827063
2532671486825,-0.152031809091568,-9.818621635437012,0.4321534037590027,0.00452507846057415,0.01943122036755085,-0.006122165359556675
2532672723962,-0.2059013545513153,-9.80904483795166,0.40701428055763245,0.0071868896484375,0.0173017717897892,-0.0119781494140625
2532673961125,-0.1735796183347702,-9.852140426635742,0.41778820753097534,0.0015970865497365594,0.01463996060192585,-0.010381062515079975
2532675198300,-0.1628057211637497,-9.876082420349121,0.4034229815006256,0.0026618109550327063,0.010913425125181675,-0.00692070834338665
2532676435425,-0.15801730751991272,-9.870096206665039,0.3878606855869293,0.0018632676219567657,0.013042873702943325,-0.007985432632267475
2532677672587,-0.16879121959209442,-9.873687744140625,0.42616790533065796,0.0077192517928779125,0.01171196810901165,-0.00984870083630085
2532678909750,-0.15083470940589905,-9.877279281616211,0.4537012279033661,0.0042588976211845875,0.00931633822619915,-0.010647243820130825
2532680146912,-0.152031809091568,-9.856928825378418,0.4225766062736511,0.0005323622026480734,0.007453070487827063,-0.00958251953125
2532681384062,-0.16400282084941864,-9.877279281616211,0.4189853072166443,0.0018632676219567657,0.010381062515079975,-0.0039927163161337376
2532682621212,-0.2059013545513153,-9.850942611694336,0.4165911078453064,0.00452507846057415,0.01650322787463665,-0.005855984054505825
2532683858375,-0.20350714027881622,-9.860519409179688,0.4213795065879822,0.0005323622026480734,0.0138414166867733,-0.0063883461989462376
2532685095525,-0.1759738326072693,-9.883264541625977,0.4357447028160095,-0.0031941730994731188,0.008517795242369175,-0.0119781494140625
2532686332675,-0.15562310814857483,-9.877279281616211,0.4118027091026306,-0.0005323622026480734,0.00452507846057415,-0.01117960549890995
2532687569837,-0.22505496442317963,-9.90361499786377,0.39863458275794983,0.008251613937318325,0.010114881210029125,-0.0021294488105922937
2532688806975,-0.2214636653661728,-9.870096206665039,0.40222588181495667,-0.0002661811013240367,0.008251613937318325,-0.005855984054505825
2532690044150,-0.2322375625371933,-9.882067680358887,0.4273650050163269,0.0007985432748682797,0.004791259765625,-0.0066545275039970875
2532691281312,-0.25498247146606445,-9.871294021606445,0.38905778527259827,-0.0015970865497365594,0.008517795242369175,-0.005057440605014563
2532692518462,-0.2346317619085312,-9.929951667785645,0.3794809579849243,-0.0005323622026480734,0.0042588976211845875,-0.005589802749454975
2532693755612,-0.2346317619085312,-9.923966407775879,0.395043283700943,-0.0002661811013240367,0.0023956298828125,-0.0029279920272529125
2532694992762,-0.21308395266532898,-9.907206535339355,0.3866635859012604,-0.0037265352439135313,-0.0023956298828125,-0.00931633822619915
2532696229937,-0.22385786473751068,-9.895236015319824,0.3818751871585846,-0.004791259765625,0.0042588976211845875,-0.008517795242369175
2532697467087,-0.25019407272338867,-9.922768592834473,0.43335050344467163,-0.003460354171693325,0.0039927163161337376,-0.0039927163161337376
2532698704237,-0.23702597618103027,-9.90122127532959,0.4010287821292877,-0.00452507846057415,-0.0010647244052961469,-0.0002661811013240367
2532699941400,-0.25019407272338867,-9.90241813659668,0.3734954595565796,-0.005057440605014563,-0.0031941730994731188,-0.0023956298828125
2532701178562,-0.25498247146606445,-9.93354320526123,0.41778820753097534,-0.0063883461989462376,0.0,-0.0023956298828125
2532702415712,-0.23582887649536133,-9.885659217834473,0.42616790533065796,-0.01224433071911335,0.0010647244052961469,0.0007985432748682797
2532703652875,-0.22625206410884857,-9.86889934539795,0.3866635859012604,-0.008251613937318325,0.003460354171693325,-0.0013309054775163531
2532704890012,-0.27054479718208313,-9.886856079101562,0.4010287821292877,-0.005057440605014563,0.0,-0.0029279920272529125
2532706127175,-0.2885012924671173,-9.907206535339355,0.365115761756897,-0.007453070487827063,-0.0005323622026480734,-0.005855984054505825
2532707364325,-0.25258827209472656,-9.889249801635742,0.42616790533065796,-0.007985432632267475,-0.0007985432748682797,-0.0010647244052961469
2532708601487,-0.2190694510936737,-9.864110946655273,0.3842693865299225,-0.00984870083630085,-0.0013309054775163531,0.0005323622026480734
2532709838650,-0.23702597618103027,-9.84376049041748,0.395043283700943,-0.012510511092841625,0.004791259765625,-0.0015970865497365594
2532711075800,-0.23343466222286224,-9.829395294189453,0.3902548849582672,-0.00931633822619915,0.003460354171693325,0.0018632676219567657
2532712312950,-0.24181437492370605,-9.831789016723633,0.424970805644989,-0.013042873702943325,0.0021294488105922937,0.00452507846057415
2532713550112,-0.2717418968677521,-9.850942611694336,0.3842693865299225,-0.01117960549890995,0.0002661811013240367,0.0018632676219567657
2532714787262,-0.26575639843940735,-9.849745750427246,0.37828385829925537,-0.008517795242369175,-0.0026618109550327063,0.003460354171693325
2532716024425,-0.2597709000110626,-9.806650161743164,0.45848962664604187,-0.00692070834338665,0.0018632676219567657,0.0031941730994731188
2532717261575,-0.26336219906806946,-9.865307807922363,0.41060560941696167,-0.00984870083630085,0.0023956298828125,-0.0005323622026480734
2532718498725,-0.24660277366638184,-9.865307807922363,0.39624038338661194,-0.010114881210029125,0.0015970865497365594,0.006122165359556675
2532719735887,-0.3280056416988373,-9.818621635437012,0.39863458275794983,-0.01224433071911335,0.005589802749454975,0.00692070834338665
2532720973050,-0.33039984107017517,-9.815030097961426,0.4225766062736511,-0.01171196810901165,0.003460354171693325,0.0010647244052961469
2532722210212,-0.2669534981250763,-9.804256439208984,0.41299980878829956,-0.0119781494140625,0.005855984054505825,0.00452507846057415
2532723447350,-0.24660277366638184,-9.822212219238281,0.42377370595932007,-0.010913425125181675,0.0063883461989462376,0.008783976547420025
2532724684500,-0.26336219906806946,-9.800664901733398,0.4165911078453064,-0.0066545275039970875,0.0007985432748682797,0.010913425125181675
2532725921662,-0.2885012924671173,-9.830592155456543,0.41060560941696167,-0.008517795242369175,-0.0007985432748682797,0.004791259765625
2532727158825,-0.27892449498176575,-9.816226959228516,0.3974374830722809,-0.007453070487827063,0.003460354171693325,0.008783976547420025
2532728395987,-0.304063618183136,-9.827000617980957,0.3926490843296051,-0.008251613937318325,0.005855984054505825,0.0119781494140625
2532729633125,-0.2861070930957794,-9.848548889160156,0.395043283700943,-0.007985432632267475,0.0063883461989462376,0.008251613937318325
2532730870275,-0.2992752194404602,-9.838972091674805,0.4441244304180145,-0.01117960549890995,0.010114881210029125,0.0
2532732107450,-0.28969842195510864,-9.823410034179688,0.4489128291606903,-0.01224433071911335,0.008517795242369175,0.007985432632267475
2532733344612,-0.2849099934101105,-9.815030097961426,0.4381389021873474,-0.013309055007994175,0.0063883461989462376,0.0063883461989462376
2532734581762,-0.28131869435310364,-9.829395294189453,0.42377370595932007,-0.006122165359556675,0.013309055007994175,0.007453070487827063
2532735818925,-0.3519476652145386,-9.823410034179688,0.4297592043876648,-0.00931633822619915,0.01171196810901165,0.008251613937318325
2532737056050,-0.34356793761253357,-9.804256439208984,0.4165911078453064,-0.0037265352439135313,0.010114881210029125,0.0090501569211483
2532738293225,-0.2968810200691223,-9.806650161743164,0.43933600187301636,-0.0042588976211845875,0.014373779296875,0.010913425125181675
2532739530387,-0.3531447649002075,-9.803058624267578,0.41299980878829956,-0.0071868896484375,0.0114457868039608,0.0114457868039608
2532740767537,-0.3663128614425659,-9.818621635437012,0.39384618401527405,-0.010913425125181675,0.0119781494140625,0.005057440605014563
2532742004687,-0.3172317147254944,-9.768342971801758,0.41778820753097534,-0.0066545275039970875,0.0138414166867733,0.005855984054505825
2532743241850,-0.363918662071228,-9.782708168029785,0.3842693865299225,-0.01117960549890995,0.01463996060192585,0.0071868896484375
2532744479000,-0.3471592366695404,-9.827000617980957,0.4118027091026306,-0.0138414166867733,0.0167694091796875,0.008783976547420025
2532745716162,-0.2944868206977844,-9.817423820495605,0.3926490843296051,-0.00692070834338665,0.0157046839594841,0.008783976547420025
2532746953300,-0.3423708379268646,-9.816226959228516,0.3866635859012604,-0.0039927163161337376,0.01836649514734745,0.0071868896484375
2532748190462,-0.3232172429561615,-9.81143856048584,0.42856210470199585,-0.0042588976211845875,0.014373779296875,0.007985432632267475
2532749427600,-0.34596213698387146,-9.821015357971191,0.3866635859012604,-0.00452507846057415,0.0215606689453125,0.005589802749454975
2532750664787,-0.3315969407558441,-9.849745750427246,0.46327802538871765,-0.003460354171693325,0.02182685025036335,0.004791259765625
2532751901937,-0.35434186458587646,-9.818621635437012,0.4189853072166443,-0.0010647244052961469,0.02076212503015995,0.005855984054505825
2532753139087,-0.34835633635520935,-9.81143856048584,0.41060560941696167,-0.00452507846057415,0.0181003138422966,0.006122165359556675
2532754376250,-0.33758243918418884,-9.81263542175293,0.38546648621559143,-0.004791259765625,0.02262539230287075,0.0023956298828125
2532755613400,-0.3603273630142212,-9.831789016723633,0.4297592043876648,-0.0037265352439135313,0.0220930315554142,0.0039927163161337376
2532756850562,-0.3555389642715454,-9.821015357971191,0.38307228684425354,-0.0031941730994731188,0.0258195661008358,0.0023956298828125
2532758087737,-0.37828385829925537,-9.797073364257812,0.42018240690231323,-0.005855984054505825,0.0300784632563591,0.0031941730994731188
2532759324875,-0.3794809579849243,-9.822212219238281,0.4165911078453064,-0.004791259765625,0.03034464456140995,0.0037265352439135313
2532760562025,-0.34356793761253357,-9.816226959228516,0.3974374830722809,-0.005855984054505825,0.02848137728869915,0.0013309054775163531
2532761799175,-0.36990416049957275,-9.829395294189453,0.4189853072166443,-0.007985432632267475,0.0324740931391716,-0.0018632676219567657
2532763036337,-0.38905778527259827,-9.81263542175293,0.45489832758903503,-0.0021294488105922937,0.033538818359375,0.0039927163161337376
2532764273487,-0.3663128614425659,-9.800664901733398,0.45489832758903503,0.0021294488105922937,0.0316755510866642,0.0026618109550327063
2532765510650,-0.35434186458587646,-9.800664901733398,0.4668693244457245,0.0018632676219567657,0.0356682650744915,0.0029279920272529125
2532766747812,-0.3387795388698578,-9.773131370544434,0.4513070285320282,-0.0037265352439135313,0.0330064557492733,0.0013309054775163531
2532767984975,-0.3878606855869293,-9.785102844238281,0.42616790533065796,-0.0007985432748682797,0.033272635191679,0.0013309054775163531
2532769222125,-0.3363853394985199,-9.81263542175293,0.4165911078453064,0.0026618109550327063,0.0364668108522892,-0.0005323622026480734
2532770459287,-0.395043283700943,-9.807847023010254,0.39624038338661194,-0.0015970865497365594,0.0417904332280159,-0.005855984054505825
2532771696425,-0.38905778527259827,-9.806650161743164,0.40701428055763245,0.0007985432748682797,0.043121337890625,-0.0015970865497365594
2532772933575,-0.3818751871585846,-9.785102844238281,0.4010287821292877,0.00452507846057415,0.0404595248401165,-0.0005323622026480734
2532774170737,-0.38307228684425354,-9.77552604675293,0.36750996112823486,0.00452507846057415,0.0439198799431324,-0.0010647244052961469
2532775407900,-0.363918662071228,-9.786299705505371,0.4010287821292877,0.0042588976211845875,0.0449846051633358,0.0031941730994731188
2532776645062,-0.39863458275794983,-9.78869342803955,0.43933600187301636,-0.0023956298828125,0.0367329902946949,0.0042588976211845875
2532777882212,-0.3818751871585846,-9.81024169921875,0.4405331015586853,-0.0021294488105922937,0.0465816929936409,0.0
2532779119362,-0.4165911078453064,-9.818621635437012,0.47644615173339844,0.0037265352439135313,0.0558980293571949,0.0007985432748682797
2532780356512,-0.39384618401527405,-9.804256439208984,0.38546648621559143,0.0031941730994731188,0.0540347620844841,-0.004791259765625
2532781593687,-0.40940847992897034,-9.823410034179688,0.39624038338661194,0.0,0.0550994873046875,-0.0042588976211845875
2532782830825,-0.45010992884635925,-9.816226959228516,0.424970805644989,0.0010647244052961469,0.0505744069814682,-0.0002661811013240367
2532784067987,-0.4489128291606903,-9.782708168029785,0.41299980878829956,0.005057440605014563,0.0516391322016716,-0.0026618109550327063
2532785305150,-0.4596867263317108,-9.765949249267578,0.3926490843296051,0.00692070834338665,0.0593583844602108,-0.003460354171693325
2532786542312,-0.4572925269603729,-9.80904483795166,0.4225766062736511,0.0039927163161337376,0.0657467320561409,-0.007453070487827063
2532787779475,-0.47165775299072266,-9.835380554199219,0.39145198464393616,0.0007985432748682797,0.0662790909409523,-0.0042588976211845875
2532789016612,-0.4321534037590027,-9.834183692932129,0.4213795065879822,0.007453070487827063,0.066545270383358,-0.006122165359556675
2532790253762,-0.45848962664604187,-9.84376049041748,0.40701428055763245,0.0039927163161337376,0.0638834610581398,-0.0066545275039970875
2532791490925,-0.4381389021873474,-9.78869342803955,0.3687070608139038,0.004791259765625,0.0700056254863739,-0.0010647244052961469
2532792728087,-0.4620809257030487,-9.793481826782227,0.4010287821292877,0.005057440605014563,0.0724012553691864,-0.0039927163161337376
2532793965262,-0.47165775299072266,-9.813833236694336,0.40701428055763245,0.0031941730994731188,0.0721350759267807,-0.0053236219100654125
2532795202412,-0.48602294921875,-9.792284965515137,0.4010287821292877,0.003460354171693325,0.0774587020277977,-0.0066545275039970875
2532796439550,-0.45848962664604187,-9.830592155456543,0.41778820753097534,0.0063883461989462376,0.0827823206782341,-0.0037265352439135313
2532797676700,-0.5207388997077942,-9.785102844238281,0.3998316824436188,0.00452507846057415,0.0747968852519989,-0.005057440605014563
2532798913862,-0.4572925269603729,-9.794679641723633,0.41060560941696167,0.0063883461989462376,0.0771925151348114,-0.008783976547420025
2532800151012,-0.46088382601737976,-9.816226959228516,0.38067808747291565,0.00692070834338665,0.0825161412358284,-0.0021294488105922937
2532801388175,-0.4321534037590027,-9.8784761428833,0.424970805644989,0.0063883461989462376,0.0915662944316864,-0.008783976547420025
2532802625325,-0.4537012279033661,-9.818621635437012,0.4010287821292877,0.00692070834338665,0.0907677561044693,-0.008783976547420025
2532803862500,-0.4752490520477295,-9.830592155456543,0.3866635859012604,0.0021294488105922937,0.0918324738740921,-0.010381062515079975
2532805099637,-0.43095630407333374,-9.834183692932129,0.4010287821292877,0.0010647244052961469,0.0955590158700943,-0.010114881210029125
2532806336812,-0.4082113802433014,-9.828198432922363,0.3794809579849243,0.0029279920272529125,0.0976884588599205,-0.01597086526453495
2532807573975,-0.4141969084739685,-9.823410034179688,0.37229835987091064,-0.0042588976211845875,0.1032782644033432,-0.010913425125181675
2532808811125,-0.3770867586135864,-9.838972091674805,0.3627215623855591,-0.0026618109550327063,0.1064724400639534,-0.005057440605014563
2532810048275,-0.38546648621559143,-9.84376049041748,0.4165911078453064,0.007453070487827063,0.0990193635225296,-0.00452507846057415
2532811285450,-0.3878606855869293,-9.815030097961426,0.43694180250167847,0.00984870083630085,0.0995517298579216,-0.010114881210029125
2532812522587,-0.38905778527259827,-9.828198432922363,0.4189853072166443,0.0,0.1094004288315773,-0.010913425125181675
2532813759762,-0.38067808747291565,-9.7791166305542,0.40940847992897034,0.0002661811013240367,0.109666608273983,-0.0090501569211483
2532814996912,-0.3758896589279175,-9.836577415466309,0.4297592043876648,0.007453070487827063,0.1078033447265625,-0.005057440605014563
2532816234062,-0.3208230435848236,-9.831789016723633,0.42018240690231323,0.0071868896484375,0.1117960587143898,-0.0037265352439135313
2532817471225,-0.31962594389915466,-9.84376049041748,0.37469255924224854,0.0039927163161337376,0.1141916885972023,-0.00958251953125
2532818708375,-0.3387795388698578,-9.829395294189453,0.41778820753097534,0.010647243820130825,0.1128607839345932,-0.012510511092841625
2532819945525,-0.30885201692581177,-9.81263542175293,0.39624038338661194,0.005057440605014563,0.114457868039608,-0.00958251953125
2532821182687,-0.3076549172401428,-9.841365814208984,0.40701428055763245,0.0053236219100654125,0.110198974609375,-0.013042873702943325
2532822419825,-0.27054479718208313,-9.848548889160156,0.42377370595932007,0.0066545275039970875,0.1104651540517807,-0.0119781494140625
2532823657000,-0.2885012924671173,-9.829395294189453,0.4273650050163269,0.00452507846057415,0.1123284250497818,-0.007985432632267475
2532824894162,-0.27892449498176575,-9.847352027893066,0.40940847992897034,0.004791259765625,0.1147240549325943,-0.0077192517928779125
2532826131325,-0.26096799969673157,-9.858125686645508,0.42377370595932007,0.005855984054505825,0.119781494140625,-0.015438503585755825
2532827368462,-0.22864626348018646,-9.848548889160156,0.39863458275794983,0.005057440605014563,0.1123284250497818,-0.00984870083630085
2532828605625,-0.2585738003253937,-9.834183692932129,0.39863458275794983,0.00452507846057415,0.1133931428194046,-0.010381062515079975
2532829842762,-0.24779987335205078,-9.865307807922363,0.39384618401527405,0.0005323622026480734,0.1163211390376091,-0.007985432632267475
2532831079937,-0.22266076505184174,-9.84615421295166,0.39624038338661194,0.0039927163161337376,0.1136593297123909,-0.0039927163161337376
2532832317087,-0.1867477297782898,-9.865307807922363,0.44532153010368347,0.0063883461989462376,0.1125946044921875,-0.0066545275039970875
2532833554237,-0.21667525172233582,-9.883264541625977,0.4273650050163269,0.0071868896484375,0.1147240549325943,-0.0066545275039970875
2532834791400,-0.21188685297966003,-9.865307807922363,0.3926490843296051,0.006122165359556675,0.1125946044921875,-0.0037265352439135313
2532836028562,-0.1975216418504715,-9.859322547912598,0.39384618401527405,0.0018632676219567657,0.1112636998295784,-0.004791259765625
2532837265712,-0.1759738326072693,-9.837775230407715,0.39624038338661194,0.005589802749454975,0.1046091690659523,-0.0063883461989462376
2532838502875,-0.20231004059314728,-9.840168952941895,0.4034229815006256,0.0026618109550327063,0.1062062531709671,-0.0053236219100654125
2532839740025,-0.1999158412218094,-9.827000617980957,0.3818751871585846,0.0066545275039970875,0.1062062531709671,-0.010114881210029125
2532840977200,-0.1604115217924118,-9.832986831665039,0.41539400815963745,0.00692070834338665,0.1115298792719841,-0.007985432632267475
2532842214337,-0.19033904373645782,-9.797073364257812,0.43095630407333374,0.0031941730994731188,0.1056738942861557,-0.005855984054505825
2532843451500,-0.152031809091568,-9.830592155456543,0.4165911078453064,0.0018632676219567657,0.0955590158700943,-0.00692070834338665
2532844688662,-0.16879121959209442,-9.830592155456543,0.4321534037590027,-0.0002661811013240367,0.1022135391831398,-0.005855984054505825
2532845925812,-0.20231004059314728,-9.838972091674805,0.3926490843296051,0.008251613937318325,0.0998179093003273,-0.008783976547420025
2532847162962,-0.15682020783424377,-9.834183692932129,0.3770867586135864,0.0021294488105922937,0.100084088742733,-0.00958251953125
2532848400125,-0.1628057211637497,-9.817423820495605,0.43933600187301636,0.0015970865497365594,0.1008826345205307,-0.00931633822619915
2532849637275,-0.17956513166427612,-9.804256439208984,0.4189853072166443,0.00692070834338665,0.0995517298579216,-0.0071868896484375
2532850874437,-0.20111294090747833,-9.865307807922363,0.36990416049957275,-0.004791259765625,0.0995517298579216,-0.0173017717897892
2532852111587,-0.1735796183347702,-9.836577415466309,0.42856210470199585,-0.0015970865497365594,0.0990193635225296,-0.010647243820130825
2532853348750,-0.20231004059314728,-9.847352027893066,0.4141969084739685,0.0023956298828125,0.0990193635225296,-0.012776692397892475
2532854585900,-0.21308395266532898,-9.818621635437012,0.43095630407333374,0.0007985432748682797,0.0936957448720932,-0.010381062515079975
2532855823062,-0.2322375625371933,-9.835380554199219,0.4345476031303406,0.0023956298828125,0.090501569211483,-0.010114881210029125
2532857060225,-0.21547815203666687,-9.90361499786377,0.3758896589279175,0.0023956298828125,0.0923648402094841,-0.0173017717897892
2532858297362,-0.2513911724090576,-9.871294021606445,0.3974374830722809,0.0042588976211845875,0.0963575541973114,-0.010381062515079975
2532859534525,-0.24181437492370605,-9.835380554199219,0.4189853072166443,0.0023956298828125,0.0915662944316864,-0.01410759799182415
2532860771700,-0.22385786473751068,-9.877279281616211,0.3687070608139038,0.0042588976211845875,0.0886383056640625,-0.01703559048473835
2532862008850,-0.2669534981250763,-9.882067680358887,0.40701428055763245,0.0005323622026480734,0.0913001149892807,-0.013309055007994175
2532863246000,-0.2346317619085312,-9.823410034179688,0.4034229815006256,-0.0010647244052961469,0.0939619243144989,-0.0204959437251091
2532864483175,-0.26575639843940735,-9.837775230407715,0.3794809579849243,0.0037265352439135313,0.0907677561044693,-0.0244886614382267
2532865720312,-0.2298433631658554,-9.856928825378418,0.38067808747291565,0.0002661811013240367,0.0889044851064682,-0.01943122036755085
2532866957475,-0.23582887649536133,-9.871294021606445,0.4357447028160095,-0.007453070487827063,0.0859764963388443,-0.012510511092841625
2532868194625,-0.24420857429504395,-9.86770248413086,0.3818751871585846,-0.004791259765625,0.0870412141084671,-0.015438503585755825
2532869431787,-0.304063618183136,-9.855731010437012,0.4165911078453064,-0.0013309054775163531,0.0897030308842659,-0.01943122036755085
2532870668937,-0.2645592987537384,-9.825803756713867,0.4034229815006256,-0.0066545275039970875,0.0894368439912796,-0.02262539230287075
2532871906075,-0.2669534981250763,-9.860519409179688,0.38905778527259827,-0.0029279920272529125,0.0894368439912796,-0.0228915736079216
2532873143262,-0.29568392038345337,-9.877279281616211,0.4321534037590027,-0.0015970865497365594,0.090501569211483,-0.01943122036755085
2532874380412,-0.27892449498176575,-9.886856079101562,0.38307228684425354,-0.0066545275039970875,0.0918324738740921,-0.0220930315554142
2532875617562,-0.3124433159828186,-9.86889934539795,0.4141969084739685,-0.0039927163161337376,0.0944942906498909,-0.02262539230287075
2532876854712,-0.2693476974964142,-9.873687744140625,0.39863458275794983,-0.0023956298828125,0.0960913747549057,-0.02555338479578495
2532878091875,-0.28371289372444153,-9.938331604003906,0.41539400815963745,-0.0023956298828125,0.0939619243144989,-0.0268842913210392
2532879329037,-0.30047231912612915,-9.886856079101562,0.40462008118629456,-0.008517795242369175,0.0881059393286705,-0.0234239362180233
2532880566200,-0.31603461503982544,-9.891644477844238,0.40222588181495667,-0.0063883461989462376,0.0944942906498909,-0.02422248013317585
2532881803337,-0.28131869435310364,-9.8784761428833,0.4225766062736511,-0.0039927163161337376,0.0920986607670784,-0.0228915736079216
2532883040500,-0.2717418968677521,-9.860519409179688,0.456095427274704,0.0002661811013240367,0.0923648402094841,-0.0223592109978199
2532884277662,-0.26096799969673157,-9.880870819091797,0.39624038338661194,-0.007453070487827063,0.0955590158700943,-0.0276828333735466
2532885514812,-0.29209262132644653,-9.886856079101562,0.39384618401527405,-0.00692070834338665,0.0936957448720932,-0.0300784632563591
2532886751962,-0.32202014327049255,-9.914389610290527,0.4297592043876648,-0.01171196810901165,0.0979546457529068,-0.02794901467859745
2532887989137,-0.2885012924671173,-9.86650562286377,0.43933600187301636,-0.0090501569211483,0.0968899205327034,-0.0300784632563591
2532889226287,-0.2932897210121155,-9.849745750427246,0.4381389021873474,-0.006122165359556675,0.0931633859872818,-0.0327402763068676
2532890463437,-0.2849099934101105,-9.821015357971191,0.4429273307323456,-0.0071868896484375,0.100616455078125,-0.0268842913210392
2532891700600,-0.29568392038345337,-9.806650161743164,0.3878606855869293,-0.0077192517928779125,0.0966237336397171,-0.02981228195130825
2532892937750,-0.272938996553421,-9.819818496704102,0.41539400815963745,-0.0119781494140625,0.0974222794175148,-0.02874755859375
2532894174912,-0.3064578175544739,-9.800664901733398,0.38905778527259827,-0.00984870083630085,0.1014149934053421,-0.0292799212038517
2532895412062,-0.28969842195510864,-9.817423820495605,0.37229835987091064,-0.0090501569211483,0.1019473597407341,-0.02555338479578495
2532896649212,-0.27892449498176575,-9.77791976928711,0.4082113802433014,-0.0063883461989462376,0.0971560999751091,-0.0276828333735466
2532897886375,-0.25498247146606445,-9.783905029296875,0.39384618401527405,-0.0077192517928779125,0.0960913747549057,-0.0276828333735466
2532899123537,-0.26096799969673157,-9.737218856811523,0.35913026332855225,-0.00984870083630085,0.0998179093003273,-0.0306108258664608
2532900360700,-0.23702597618103027,-9.739612579345703,0.39384618401527405,-0.00958251953125,0.0976884588599205,-0.0244886614382267
2532901597850,-0.243011474609375,-9.782708168029785,0.4165911078453064,-0.010647243820130825,0.0984870046377182,-0.0258195661008358
2532902835012,-0.23702597618103027,-9.763554573059082,0.39145198464393616,-0.010381062515079975,0.1043429896235466,-0.0252872034907341
2532904072175,-0.2406172752380371,-9.798270225524902,0.4118027091026306,-0.004791259765625,0.1051415354013443,-0.02182685025036335
2532905309312,-0.2059013545513153,-9.783905029296875,0.363918662071228,-0.0063883461989462376,0.1008826345205307,-0.0268842913210392
2532906546462,-0.18076223134994507,-9.813833236694336,0.3926490843296051,-0.0053236219100654125,0.100084088742733,-0.02369011752307415
2532907783625,-0.16639702022075653,-9.799468040466309,0.4273650050163269,-0.004791259765625,0.0963575541973114,-0.0244886614382267
2532909020775,-0.13287819921970367,-9.794679641723633,0.39863458275794983,-0.003460354171693325,0.0968899205327034,-0.02182685025036335
2532910257950,-0.14604631066322327,-9.77552604675293,0.3627215623855591,-0.00452507846057415,0.0928971990942955,-0.023956298828125
2532911495100,-0.13168109953403473,-9.78869342803955,0.38905778527259827,-0.0053236219100654125,0.0907677561044693,-0.0223592109978199
2532912732237,-0.09217676520347595,-9.77672290802002,0.424970805644989,0.0005323622026480734,0.0873074010014534,-0.0167694091796875
2532913969400,-0.10055647045373917,-9.759963035583496,0.39624038338661194,-0.0021294488105922937,0.0889044851064682,-0.0119781494140625
2532915206575,-0.06703764945268631,-9.746795654296875,0.3663128614425659,-0.00692070834338665,0.08624267578125,-0.0138414166867733
2532916443712,-0.07781155407428741,-9.765949249267578,0.41778820753097534,-0.0010647244052961469,0.0835808664560318,-0.008783976547420025
2532917680862,-0.0802057608962059,-9.734824180603027,0.4165911078453064,-0.0026618109550327063,0.0822499617934227,-0.00931633822619915
2532918918025,-0.07302315533161163,-9.734824180603027,0.365115761756897,-0.0018632676219567657,0.0838470458984375,-0.0114457868039608
2532920155187,-0.05746084079146385,-9.726444244384766,0.4189853072166443,-0.0018632676219567657,0.0793219655752182,-0.003460354171693325
2532921392350,-0.043095629662275314,-9.694122314453125,0.4058171808719635,-0.0002661811013240367,0.0750630721449852,-0.0015970865497365594
2532922629512,-0.035913024097681046,-9.701305389404297,0.38307228684425354,-0.0037265352439135313,0.071868896484375,-0.0015970865497365594
2532923866662,-0.07302315533161163,-9.709685325622559,0.3471592366695404,-0.0066545275039970875,0.0700056254863739,-0.0002661811013240367
2532925103825,0.002394201699644327,-9.747992515563965,0.39384618401527405,0.0013309054775163531,0.06707763671875,0.0042588976211845875
2532926340975,-0.035913024097681046,-9.732430458068848,0.36152446269989014,0.0013309054775163531,0.071336530148983,0.0
2532927578112,-0.04429273307323456,-9.764751434326172,0.3603273630142212,0.00452507846057415,0.0644158273935318,-0.0002661811013240367
2532928815262,-0.028730420395731926,-9.77672290802002,0.3579331636428833,0.005057440605014563,0.0614878311753273,0.0031941730994731188
2532930052437,0.0,-9.756372451782227,0.35673606395721436,-0.0010647244052961469,0.0590922012925148,0.005589802749454975
2532931289600,-0.019153613597154617,-9.7791166305542,0.3663128614425659,0.004791259765625,0.0574951171875,0.0039927163161337376
2532932526750,-0.02753331884741783,-9.781511306762695,0.3926490843296051,0.0029279920272529125,0.0492435023188591,0.0039927163161337376
2532933763887,-0.04189852997660637,-9.786299705505371,0.3579331636428833,0.0029279920272529125,0.0484449602663517,0.0037265352439135313
2532935001062,-0.014365210197865963,-9.793481826782227,0.38546648621559143,0.0071868896484375,0.0521714948117733,0.003460354171693325
2532936238225,-0.040701430290937424,-9.816226959228516,0.363918662071228,0.008783976547420025,0.0444522425532341,0.007453070487827063
2532937475400,-0.031124621629714966,-9.80904483795166,0.3842693865299225,0.005855984054505825,0.0436537005007267,0.005855984054505825
2532938712525,-0.05267243832349777,-9.831789016723633,0.3818751871585846,0.0053236219100654125,0.0393948033452034,-0.0015970865497365594
2532939949712,-0.04189852997660637,-9.847352027893066,0.37469255924224854,0.0015970865497365594,0.0362006276845932,0.0026618109550327063
2532941186850,0.0059855044819414616,-9.87967300415039,0.395043283700943,0.0010647244052961469,0.0314093679189682,0.00452507846057415
2532942424000,-0.0011971008498221636,-9.8784761428833,0.3926490843296051,0.0042588976211845875,0.02901373989880085,0.006122165359556675
2532943661175,0.011971008963882923,-9.876082420349121,0.35434186458587646,0.0002661811013240367,0.0210283063352108,0.0031941730994731188
2532944898325,-0.02274491637945175,-9.892841339111328,0.3687070608139038,0.0013309054775163531,0.02555338479578495,0.0010647244052961469
2532946135475,0.011971008963882923,-9.886856079101562,0.40940847992897034,0.0021294488105922937,0.0228915736079216,0.00931633822619915
2532947372637,-0.023942017927765846,-9.896432876586914,0.4034229815006256,0.0002661811013240367,0.0173017717897892,0.003460354171693325
2532948609787,-0.014365210197865963,-9.908403396606445,0.363918662071228,-0.0018632676219567657,0.0181003138422966,0.0010647244052961469
2532949846937,0.020350715145468712,-9.909601211547852,0.34835633635520935,0.0013309054775163531,0.014906140975654125,0.012776692397892475
2532951084125,-0.010773907415568829,-9.925163269042969,0.35673606395721436,0.0015970865497365594,0.008517795242369175,0.0114457868039608
2532952321250,-0.020350715145468712,-9.93354320526123,0.3687070608139038,-0.0015970865497365594,0.00958251953125,0.0063883461989462376
2532953558412,-0.0059855044819414616,-9.952696800231934,0.3842693865299225,0.0002661811013240367,0.00958251953125,0.0077192517928779125
2532954795575,0.021547814831137657,-9.973047256469727,0.4165911078453064,-0.0031941730994731188,0.003460354171693325,0.005589802749454975
2532956032725,-0.03711012750864029,-9.955090522766113,0.42856210470199585,-0.0018632676219567657,-0.0007985432748682797,0.00692070834338665
2532957269875,-0.043095629662275314,-9.943120002746582,0.40940847992897034,-0.0013309054775163531,0.0029279920272529125,0.004791259765625
2532958507050,-0.07182604819536209,-9.951498985290527,0.43694180250167847,-0.005057440605014563,-0.0010647244052961469,0.003460354171693325
2532959744187,-0.05506663769483566,-9.965864181518555,0.39624038338661194,-0.005855984054505825,-0.010381062515079975,0.00452507846057415
2532960981362,-0.07062894850969315,-9.959878921508789,0.3627215623855591,-0.0063883461989462376,-0.008251613937318325,0.0010647244052961469
2532962218512,-0.06344634294509888,-9.940725326538086,0.4465186297893524,-0.0071868896484375,-0.0077192517928779125,0.0007985432748682797
2532963455662,-0.06584054976701736,-9.986215591430664,0.3423708379268646,-0.005855984054505825,-0.01410759799182415,0.0015970865497365594
2532964692825,-0.07182604819536209,-9.95748519897461,0.36152446269989014,-0.007453070487827063,-0.015172322280704975,-0.005855984054505825
2532965929975,-0.08858546614646912,-9.952696800231934,0.3579331636428833,-0.012776692397892475,-0.01171196810901165,-0.005589802749454975
2532967167137,-0.12330138683319092,-9.93354320526123,0.3603273630142212,-0.0114457868039608,-0.01996358297765255,-0.0029279920272529125
2532968404275,-0.11013327538967133,-9.971850395202637,0.3579331636428833,-0.010913425125181675,-0.02315775491297245,-0.0029279920272529125
2532969641437,-0.12449848651885986,-9.906009674072266,0.40462008118629456,-0.0157046839594841,-0.01703559048473835,-0.005589802749454975
2532970878600,-0.13527239859104156,-9.914389610290527,0.4321534037590027,-0.014906140975654125,-0.01783413253724575,-0.0063883461989462376
2532972115762,-0.14006079733371735,-9.932345390319824,0.4345476031303406,-0.01836649514734745,-0.02129448764026165,-0.00958251953125
2532973352900,-0.12689268589019775,-9.95748519897461,0.395043283700943,-0.0157046839594841,-0.02502102218568325,-0.008783976547420025
2532974590075,-0.14365209639072418,-9.938331604003906,0.3603273630142212,-0.0138414166867733,-0.0271504707634449,-0.0077192517928779125
2532975827225,-0.1149216815829277,-9.90241813659668,0.3423708379268646,-0.0157046839594841,-0.0223592109978199,-0.00958251953125
2532977064387,-0.15322890877723694,-9.927556991577148,0.3902548849582672,-0.012510511092841625,-0.0295461006462574,-0.015438503585755825
2532978301550,-0.15682020783424377,-9.906009674072266,0.3687070608139038,-0.01597086526453495,-0.0292799212038517,-0.0186326764523983
2532979538687,-0.15322890877723694,-9.929951667785645,0.3447650372982025,-0.0196974016726017,-0.02741665206849575,-0.01943122036755085
2532980775850,-0.17836803197860718,-9.90241813659668,0.3794809579849243,-0.01597086526453495,-0.0314093679189682,-0.01756795309484005
2532982013012,-0.15322890877723694,-9.915586471557617,0.3423708379268646,-0.013309055007994175,-0.02981228195130825,-0.0196974016726017
2532983250150,-0.1975216418504715,-9.897629737854004,0.3794809579849243,-0.01756795309484005,-0.0292799212038517,-0.0181003138422966
2532984487325,-0.18555063009262085,-9.921571731567383,0.4034229815006256,-0.02022976242005825,-0.02874755859375,-0.01943122036755085
2532985724487,-0.21667525172233582,-9.888052940368652,0.3974374830722809,-0.01597086526453495,-0.0343373604118824,-0.0204959437251091
2532986961625,-0.22864626348018646,-9.913191795349121,0.40222588181495667,-0.0157046839594841,-0.033272635191679,-0.0138414166867733
2532988198787,-0.21428105235099792,-9.86650562286377,0.4405331015586853,-0.0157046839594841,-0.0316755510866642,-0.0196974016726017
2532989435950,-0.22026655077934265,-9.90361499786377,0.38307228684425354,-0.0173017717897892,-0.03087700717151165,-0.0210283063352108
2532990673112,-0.24779987335205078,-9.90241813659668,0.3998316824436188,-0.013309055007994175,-0.0316755510866642,-0.02076212503015995
2532991910250,-0.2585738003253937,-9.93593692779541,0.38905778527259827,-0.01171196810901165,-0.0311431884765625,-0.0220930315554142
2532993147425,-0.2561795711517334,-9.897629737854004,0.35434186458587646,-0.01597086526453495,-0.033538818359375,-0.01756795309484005
2532994384575,-0.25737667083740234,-9.852140426635742,0.36990416049957275,-0.01463996060192585,-0.0351359061896801,-0.0173017717897892
2532995621737,-0.272938996553421,-9.849745750427246,0.38546648621559143,-0.010647243820130825,-0.0377977155148983,-0.02022976242005825
2532996858887,-0.26336219906806946,-9.849745750427246,0.41539400815963745,-0.01224433071911335,-0.033538818359375,-0.01703559048473835
2532998096062,-0.2825157940387726,-9.850942611694336,0.3902548849582672,-0.013309055007994175,-0.02981228195130825,-0.015438503585755825
2532999333212,-0.28969842195510864,-9.817423820495605,0.3711012601852417,-0.014373779296875,-0.033272635191679,-0.01650322787463665
2533000570362,-0.2932897210121155,-9.800664901733398,0.36990416049957275,-0.01171196810901165,-0.0327402763068676,-0.01889885775744915
2533001807525,-0.333991140127182,-9.806650161743164,0.4034229815006256,-0.013042873702943325,-0.0258195661008358,-0.010381062515079975
2533003044675,-0.2944868206977844,-9.84495735168457,0.4225766062736511,-0.01171196810901165,-0.0247548408806324,-0.010114881210029125
2533004281837,-0.27653029561042786,-9.840168952941895,0.42377370595932007,-0.00931633822619915,-0.02555338479578495,-0.01650322787463665
2533005518975,-0.26336219906806946,-9.818621635437012,0.395043283700943,-0.00958251953125,-0.02848137728869915,-0.01171196810901165
2533006756150,-0.2322375625371933,-9.807847023010254,0.42377370595932007,-0.0063883461989462376,-0.02741665206849575,-0.013042873702943325
2533007993312,-0.2645592987537384,-9.782708168029785,0.395043283700943,-0.007985432632267475,-0.0276828333735466,-0.014906140975654125
2533009230450,-0.2597709000110626,-9.793481826782227,0.41060560941696167,-0.0053236219100654125,-0.02661811001598835,-0.014906140975654125
2533010467612,-0.24420857429504395,-9.799468040466309,0.35075056552886963,-0.0071868896484375,-0.02661811001598835,-0.007985432632267475
2533011704775,-0.20470423996448517,-9.793481826782227,0.3148375153541565,-0.0026618109550327063,-0.02022976242005825,-0.008251613937318325
2533012941937,-0.2513911724090576,-9.773131370544434,0.35434186458587646,-0.0021294488105922937,-0.0173017717897892,-0.00931633822619915
2533014179100,-0.22625206410884857,-9.77552604675293,0.3818751871585846,-0.003460354171693325,-0.0196974016726017,-0.014906140975654125
2533015416250,-0.22625206410884857,-9.773131370544434,0.35075056552886963,-0.0005323622026480734,-0.01943122036755085,-0.0077192517928779125
2533016653375,-0.21787235140800476,-9.728838920593262,0.38307228684425354,0.003460354171693325,-0.0223592109978199,-0.00452507846057415
2533017890562,-0.21308395266532898,-9.75278091430664,0.365115761756897,0.0029279920272529125,-0.02315775491297245,-0.0053236219100654125
2533019127712,-0.21547815203666687,-9.765949249267578,0.363918662071228,0.0037265352439135313,-0.0234239362180233,-0.005855984054505825
2533020364850,-0.2082955539226532,-9.739612579345703,0.3495534360408783,0.0015970865497365594,-0.023956298828125,-0.005589802749454975
2533021602025,-0.18315643072128296,-9.728838920593262,0.3866635859012604,0.0023956298828125,-0.02369011752307415,-0.006122165359556675
2533022839187,-0.19273324310779572,-9.731232643127441,0.39624038338661194,0.0013309054775163531,-0.0271504707634449,-0.0007985432748682797
2533024076350,-0.20470423996448517,-9.771934509277344,0.3447650372982025,0.0077192517928779125,-0.02502102218568325,0.0021294488105922937
2533025313475,-0.20470423996448517,-9.771934509277344,0.35673606395721436,0.007985432632267475,-0.02369011752307415,-0.0021294488105922937
2533026550637,-0.13527239859104156,-9.75517463684082,0.38307228684425354,0.006122165359556675,-0.0220930315554142,-0.0037265352439135313
2533027787800,-0.181959331035614,-9.770737648010254,0.363918662071228,0.00984870083630085,-0.02262539230287075,0.0015970865497365594
2533029024950,-0.22744916379451752,-9.756372451782227,0.4165911078453064,0.012776692397892475,-0.0228915736079216,0.00452507846057415
2533030262112,-0.2082955539226532,-9.756372451782227,0.45250412821769714,0.01357523538172245,-0.02369011752307415,0.005057440605014563
2533031499287,-0.152031809091568,-9.75158405303955,0.36990416049957275,0.0162370465695858,-0.0268842913210392,0.00452507846057415
2533032736425,-0.2106897532939911,-9.81024169921875,0.4034229815006256,0.0173017717897892,-0.023956298828125,0.0007985432748682797
2533033973600,-0.23343466222286224,-9.750386238098145,0.3818751871585846,0.0196974016726017,-0.0247548408806324,0.005589802749454975
2533035210725,-0.20709845423698425,-9.769539833068848,0.36990416049957275,0.01756795309484005,-0.0263519287109375,0.00452507846057415
2533036447900,-0.19393034279346466,-9.744400978088379,0.40701428055763245,0.0157046839594841,-0.02076212503015995,0.005589802749454975
2533037685075,-0.23343466222286224,-9.75278091430664,0.41299980878829956,0.015438503585755825,-0.0223592109978199,0.005057440605014563
2533038922212,-0.2454056739807129,-9.715670585632324,0.45010992884635925,0.0181003138422966,-0.023956298828125,0.004791259765625
2533040159375,-0.19273324310779572,-9.756372451782227,0.3866635859012604,0.0191650390625,-0.0258195661008358,0.0023956298828125
2533041396537,-0.2454056739807129,-9.77672290802002,0.3555389642715454,0.01996358297765255,-0.02422248013317585,0.010647243820130825
2533042633687,-0.25258827209472656,-9.733627319335938,0.3842693865299225,0.02022976242005825,-0.02262539230287075,0.0066545275039970875
2533043870850,-0.24420857429504395,-9.734824180603027,0.395043283700943,0.0186326764523983,-0.02369011752307415,0.010381062515079975
2533045107987,-0.21428105235099792,-9.730035781860352,0.39624038338661194,0.02076212503015995,-0.0234239362180233,0.0063883461989462376
2533046345137,-0.24779987335205078,-9.75278091430664,0.4010287821292877,0.02262539230287075,-0.02422248013317585,0.005589802749454975
2533047582312,-0.24660277366638184,-9.71926212310791,0.4213795065879822,0.0252872034907341,-0.0247548408806324,0.0066545275039970875
2533048819462,-0.2406172752380371,-9.770737648010254,0.3758896589279175,0.0196974016726017,-0.0181003138422966,0.006122165359556675
2533050056612,-0.21787235140800476,-9.770737648010254,0.39145198464393616,0.02076212503015995,-0.02076212503015995,0.007453070487827063
2533051293787,-0.23702597618103027,-9.739612579345703,0.363918662071228,0.0263519287109375,-0.02901373989880085,0.0026618109550327063
2533052530937,-0.24420857429504395,-9.758766174316406,0.34356793761253357,0.0252872034907341,-0.0228915736079216,0.00692070834338665
2533053768100,-0.2190694510936737,-9.75278091430664,0.41060560941696167,0.02608574740588665,-0.02422248013317585,0.00692070834338665
2533055005250,-0.2597709000110626,-9.781511306762695,0.45010992884635925,0.02608574740588665,-0.023956298828125,0.00452507846057415
2533056242400,-0.2214636653661728,-9.756372451782227,0.3423708379268646,0.0276828333735466,-0.02262539230287075,-0.0071868896484375
2533057479562,-0.22505496442317963,-9.77672290802002,0.36990416049957275,0.0263519287109375,-0.02315775491297245,-0.0063883461989462376
2533058716712,-0.23104046285152435,-9.738415718078613,0.4405331015586853,0.0244886614382267,-0.0220930315554142,-0.0007985432748682797
2533059953887,-0.23343466222286224,-9.765949249267578,0.39624038338661194,0.0292799212038517,-0.01943122036755085,-0.0005323622026480734
2533061191037,-0.18794482946395874,-9.767146110534668,0.40222588181495667,0.0346035435795784,-0.01889885775744915,0.005057440605014563
2533062428200,-0.22266076505184174,-9.81143856048584,0.3687070608139038,0.033538818359375,-0.0223592109978199,0.0018632676219567657
2533063665350,-0.23582887649536133,-9.807847023010254,0.3974374830722809,0.0252872034907341,-0.0210283063352108,-0.003460354171693325
2533064902512,-0.2454056739807129,-9.75278091430664,0.4058171808719635,0.0316755510866642,-0.0244886614382267,-0.0007985432748682797
2533066139662,-0.2645592987537384,-9.749189376831055,0.3998316824436188,0.0316755510866642,-0.02022976242005825,-0.0002661811013240367
2533067376812,-0.2406172752380371,-9.749189376831055,0.40222588181495667,0.0346035435795784,-0.0196974016726017,0.0007985432748682797
2533068613975,-0.26815059781074524,-9.78869342803955,0.39863458275794983,0.0346035435795784,-0.02076212503015995,-0.0037265352439135313
2533069851150,-0.2454056739807129,-9.818621635437012,0.4345476031303406,0.0348697230219841,-0.0181003138422966,-0.0007985432748682797
2533071088275,-0.25019407272338867,-9.787496566772461,0.40222588181495667,0.0327402763068676,-0.01410759799182415,0.0042588976211845875
2533072325450,-0.2669534981250763,-9.743204116821289,0.38546648621559143,0.0306108258664608,-0.0181003138422966,-0.0013309054775163531
2533073562600,-0.27892449498176575,-9.75158405303955,0.41060560941696167,0.0330064557492733,-0.014906140975654125,-0.0018632676219567657
2533074799762,-0.26096799969673157,-9.746795654296875,0.42018240690231323,0.0362006276845932,-0.01171196810901165,-0.0026618109550327063
2533076036912,-0.30286651849746704,-9.7791166305542,0.3471592366695404,0.0295461006462574,-0.010647243820130825,-0.00452507846057415
2533077274087,-0.28730419278144836,-9.781511306762695,0.4058171808719635,0.0292799212038517,-0.005589802749454975,-0.003460354171693325
2533078511237,-0.2645592987537384,-9.781511306762695,0.4141969084739685,0.0346035435795784,-0.01650322787463665,-0.004791259765625
2533079748387,-0.2597709000110626,-9.765949249267578,0.38067808747291565,0.0311431884765625,-0.01357523538172245,-0.0018632676219567657
2533080985550,-0.29209262132644653,-9.738415718078613,0.40940847992897034,0.03034464456140995,-0.0066545275039970875,-0.0031941730994731188
2533082222712,-0.2885012924671173,-9.725247383117676,0.43335050344467163,0.0314093679189682,-0.01224433071911335,-0.0039927163161337376
2533083459862,-0.26336219906806946,-9.762357711791992,0.3794809579849243,0.0343373604118824,-0.0138414166867733,-0.0013309054775163531
2533084697000,-0.2669534981250763,-9.807847023010254,0.3758896589279175,0.0327402763068676,-0.01224433071911335,-0.0010647244052961469
2533085934162,-0.25498247146606445,-9.792284965515137,0.363918662071228,0.0348697230219841,-0.0114457868039608,-0.005589802749454975
2533087171337,-0.2717418968677521,-9.84495735168457,0.3878606855869293,0.02981228195130825,-0.012776692397892475,-0.0018632676219567657
2533088408487,-0.22385786473751068,-9.859322547912598,0.3579331636428833,0.0300784632563591,-0.010647243820130825,-0.0018632676219567657
2533089645637,-0.2346317619085312,-9.865307807922363,0.37469255924224854,0.0319417305290699,-0.00958251953125,-0.003460354171693325
2533090882800,-0.26336219906806946,-9.853337287902832,0.40462008118629456,0.02794901467859745,-0.010114881210029125,-0.004791259765625
2533092119950,-0.2597709000110626,-9.860519409179688,0.40940847992897034,0.02422248013317585,-0.01171196810901165,-0.00452507846057415
2533093357112,-0.2214636653661728,-9.897629737854004,0.3866635859012604,0.02369011752307415,-0.012510511092841625,-0.0007985432748682797
2533094594262,-0.23343466222286224,-9.874884605407715,0.365115761756897,0.0252872034907341,-0.0138414166867733,-0.0029279920272529125
2533095831412,-0.2513911724090576,-9.911994934082031,0.3663128614425659,0.02262539230287075,-0.01597086526453495,-0.0005323622026480734
2533097068575,-0.24779987335205078,-9.921571731567383,0.3974374830722809,0.02369011752307415,-0.008251613937318325,-0.0023956298828125
2533098305737,-0.2190694510936737,-9.914389610290527,0.38307228684425354,0.01783413253724575,-0.00958251953125,-0.0021294488105922937
2533099542887,-0.2106897532939911,-9.953893661499023,0.37229835987091064,0.0173017717897892,-0.012510511092841625,-0.0007985432748682797
2533100780062,-0.16998831927776337,-9.90361499786377,0.4034229815006256,0.01597086526453495,-0.01597086526453495,0.0010647244052961469
2533102017225,-0.21428105235099792,-9.93354320526123,0.38905778527259827,0.0181003138422966,-0.01597086526453495,0.00452507846057415
2533103254375,-0.2059013545513153,-9.894038200378418,0.38905778527259827,0.01357523538172245,-0.013309055007994175,0.0007985432748682797
2533104491525,-0.2059013545513153,-9.888052940368652,0.40222588181495667,0.00984870083630085,-0.01597086526453495,0.0029279920272529125
2533105728687,-0.1843535304069519,-9.919178009033203,0.4213795065879822,0.01171196810901165,-0.0173017717897892,0.0063883461989462376
2533106965850,-0.12928690016269684,-9.920374870300293,0.3998316824436188,0.0114457868039608,-0.01410759799182415,0.0039927163161337376
2533108203012,-0.1628057211637497,-9.908403396606445,0.4381389021873474,0.00958251953125,-0.01703559048473835,0.0013309054775163531
2533109440150,-0.14245499670505524,-9.892841339111328,0.39863458275794983,0.0114457868039608,-0.0191650390625,0.004791259765625
2533110677312,-0.16160862147808075,-9.920374870300293,0.39384618401527405,0.010381062515079975,-0.0220930315554142,0.005855984054505825
2533111914462,-0.16759411990642548,-9.906009674072266,0.40940847992897034,0.005589802749454975,-0.02555338479578495,0.0039927163161337376
2533113151637,-0.15083470940589905,-9.922768592834473,0.4189853072166443,0.0037265352439135313,-0.0244886614382267,0.00958251953125
2533114388787,-0.1472434103488922,-9.926360130310059,0.45010992884635925,0.006122165359556675,-0.0228915736079216,0.0029279920272529125
2533115625937,-0.12689268589019775,-9.93354320526123,0.41299980878829956,0.0007985432748682797,-0.02182685025036335,0.0053236219100654125
2533116863100,-0.11851298809051514,-9.891644477844238,0.4189853072166443,-0.0021294488105922937,-0.02315775491297245,0.00692070834338665
2533118100262,-0.12689268589019775,-9.886856079101562,0.3998316824436188,-0.0031941730994731188,-0.0295461006462574,0.0053236219100654125
2533119337412,-0.12689268589019775,-9.870096206665039,0.3842693865299225,0.0010647244052961469,-0.0268842913210392,0.0071868896484375
2533120574575,-0.14365209639072418,-9.892841339111328,0.41299980878829956,0.0005323622026480734,-0.0258195661008358,0.0039927163161337376
2533121811725,-0.16759411990642548,-9.956287384033203,0.3794809579849243,-0.003460354171693325,-0.0367329902946949,0.0018632676219567657
2533123048887,-0.1843535304069519,-9.891644477844238,0.365115761756897,-0.008251613937318325,-0.0295461006462574,0.0029279920272529125
2533124286025,-0.21308395266532898,-9.907206535339355,0.43694180250167847,-0.006122165359556675,-0.0268842913210392,0.006122165359556675
2533125523187,-0.2190694510936737,-9.8784761428833,0.43095630407333374,-0.005855984054505825,-0.033538818359375,0.003460354171693325
2533126760362,-0.2082955539226532,-9.895236015319824,0.4357447028160095,-0.004791259765625,-0.0263519287109375,-0.0021294488105922937
2533127997500,-0.2059013545513153,-9.855731010437012,0.39145198464393616,-0.01117960549890995,-0.02794901467859745,-0.0021294488105922937
2533129234662,-0.18914192914962769,-9.848548889160156,0.3842693865299225,-0.010647243820130825,-0.0362006276845932,0.004791259765625
2533130471825,-0.17956513166427612,-9.9000244140625,0.37229835987091064,-0.010114881210029125,-0.03087700717151165,0.004791259765625
2533131708975,-0.19033904373645782,-9.896432876586914,0.34596213698387146,-0.012510511092841625,-0.0314093679189682,0.008517795242369175
2533132946137,-0.18794482946395874,-9.891644477844238,0.3998316824436188,-0.015172322280704975,-0.033272635191679,0.005057440605014563
2533134183287,-0.21188685297966003,-9.910798072814941,0.4141969084739685,-0.0186326764523983,-0.02981228195130825,0.0042588976211845875
2533135420450,-0.1867477297782898,-9.859322547912598,0.43095630407333374,-0.013309055007994175,-0.0314093679189682,0.0018632676219567657
2533136657612,-0.1735796183347702,-9.856928825378418,0.39624038338661194,-0.01597086526453495,-0.0319417305290699,0.0071868896484375
2533137894762,-0.17238251864910126,-9.907206535339355,0.3902548849582672,-0.0173017717897892,-0.033272635191679,0.00452507846057415
2533139131912,-0.15921440720558167,-9.9000244140625,0.4345476031303406,-0.0191650390625,-0.0359344482421875,0.0018632676219567657
2533140369087,-0.12210428714752197,-9.84495735168457,0.42377370595932007,-0.01756795309484005,-0.0377977155148983,0.0013309054775163531
2533141606237,-0.13407529890537262,-9.84256362915039,0.38067808747291565,-0.014373779296875,-0.0356682650744915,0.0005323622026480734
2533142843400,-0.14604631066322327,-9.841365814208984,0.38905778527259827,-0.01996358297765255,-0.0425889752805233,0.0042588976211845875
2533144080550,-0.13048399984836578,-9.792284965515137,0.41539400815963745,-0.01889885775744915,-0.0372653529047966,0.0013309054775163531
2533145317700,-0.16639702022075653,-9.838972091674805,0.424970805644989,-0.01889885775744915,-0.0359344482421875,0.0018632676219567657
2533146554875,-0.16759411990642548,-9.792284965515137,0.4034229815006256,-0.02129448764026165,-0.038063894957304,-0.0010647244052961469
2533147792012,-0.13048399984836578,-9.84256362915039,0.41539400815963745,-0.0223592109978199,-0.0385962575674057,-0.0013309054775163531
2533149029187,-0.12928690016269684,-9.840168952941895,0.36152446269989014,-0.02022976242005825,-0.0412580706179142,-0.0005323622026480734
2533150266337,-0.152031809091568,-9.836577415466309,0.41299980878829956,-0.01783413253724575,-0.0391286201775074,0.0018632676219567657
2533151503500,-0.1412578970193863,-9.794679641723633,0.43095630407333374,-0.01756795309484005,-0.0399271659553051,0.0018632676219567657
2533152740662,-0.15562310814857483,-9.815030097961426,0.43095630407333374,-0.014906140975654125,-0.0420566126704216,0.0039927163161337376
2533153977800,-0.13287819921970367,-9.7791166305542,0.40462008118629456,-0.01943122036755085,-0.0452507846057415,0.008251613937318325
2533155214975,-0.14006079733371735,-9.757569313049316,0.40222588181495667,-0.01703559048473835,-0.0495096817612648,0.0066545275039970875
2533156452112,-0.14844051003456116,-9.803058624267578,0.4141969084739685,-0.015172322280704975,-0.0460493303835392,0.0029279920272529125
2533157689275,-0.15083470940589905,-9.800664901733398,0.3878606855869293,-0.0196974016726017,-0.0439198799431324,0.0029279920272529125
2533158926462,-0.09935937076807022,-9.804256439208984,0.42616790533065796,-0.014373779296875,-0.0481787770986557,0.0039927163161337376
2533160163587,-0.1867477297782898,-9.81024169921875,0.43335050344467163,-0.02076212503015995,-0.0487111397087574,0.0021294488105922937
2533161400762,-0.1735796183347702,-9.847352027893066,0.43933600187301636,-0.01889885775744915,-0.0489773228764534,0.0015970865497365594
2533162637925,-0.12928690016269684,-9.823410034179688,0.4572925269603729,-0.0090501569211483,-0.0500420443713665,-0.003460354171693325
2533163875050,-0.13287819921970367,-9.825803756713867,0.4345476031303406,-0.0119781494140625,-0.0473802350461483,-0.0021294488105922937
2533165112212,-0.18555063009262085,-9.861717224121094,0.4034229815006256,-0.014906140975654125,-0.047646414488554,-0.0015970865497365594
2533166349387,-0.1472434103488922,-9.828198432922363,0.38307228684425354,-0.01171196810901165,-0.0497758649289608,-0.0037265352439135313
2533167586537,-0.1951274424791336,-9.825803756713867,0.37828385829925537,-0.01224433071911335,-0.0492435023188591,-0.004791259765625
2533168823675,-0.1472434103488922,-9.838972091674805,0.45848962664604187,-0.014373779296875,-0.052437674254179,-0.0037265352439135313
2533170060850,-0.16160862147808075,-9.831789016723633,0.4620809257030487,-0.0173017717897892,-0.0532362200319767,-0.0007985432748682797
2533171297987,-0.1867477297782898,-9.841365814208984,0.4345476031303406,-0.013309055007994175,-0.0550994873046875,-0.0037265352439135313
2533172535150,-0.16759411990642548,-9.876082420349121,0.4537012279033661,-0.00692070834338665,-0.0545671246945858,-0.005589802749454975
2533173772325,-0.16160862147808075,-9.862914085388184,0.4776432514190674,-0.0114457868039608,-0.0558980293571949,-0.0023956298828125
2533175009487,-0.16519992053508759,-9.861717224121094,0.4082113802433014,-0.00958251953125,-0.0548333041369915,0.0
2533176246637,-0.2298433631658554,-9.86650562286377,0.4058171808719635,-0.00931633822619915,-0.0521714948117733,-0.0010647244052961469
2533177483812,-0.16519992053508759,-9.86770248413086,0.424970805644989,-0.0090501569211483,-0.0556318499147892,0.0007985432748682797
2533178720950,-0.16879121959209442,-9.86650562286377,0.3734954595565796,-0.008517795242369175,-0.0540347620844841,-0.004791259765625
2533179958100,-0.152031809091568,-9.77672290802002,0.4381389021873474,-0.0066545275039970875,-0.0508405901491642,-0.0066545275039970875
2533181195275,-0.2190694510936737,-9.834183692932129,0.38307228684425354,-0.00452507846057415,-0.052437674254179,0.0005323622026480734
2533182432437,-0.14604631066322327,-9.813833236694336,0.395043283700943,-0.0066545275039970875,-0.0566965714097023,-0.005855984054505825
2533183669575,-0.15801730751991272,-9.799468040466309,0.4297592043876648,-0.0053236219100654125,-0.0561642125248909,-0.0023956298828125
2533184906750,-0.1951274424791336,-9.769539833068848,0.42377370595932007,-0.004791259765625,-0.0521714948117733,-0.0031941730994731188
2533186143887,-0.21428105235099792,-9.749189376831055,0.4141969084739685,-0.0066545275039970875,-0.0519053116440773,-0.005589802749454975
2533187381037,-0.20111294090747833,-9.725247383117676,0.4213795065879822,-0.0026618109550327063,-0.057228934019804,-0.00692070834338665
2533188618212,-0.17956513166427612,-9.714473724365234,0.4513070285320282,0.0015970865497365594,-0.0590922012925148,-0.003460354171693325
2533189855375,-0.17836803197860718,-9.734824180603027,0.4429273307323456,0.0026618109550327063,-0.0601569265127182,-0.0026618109550327063
2533191092525,-0.18076223134994507,-9.716867446899414,0.3842693865299225,0.007453070487827063,-0.0580274797976017,-0.0005323622026480734
2533192329687,-0.17238251864910126,-9.68813705444336,0.40701428055763245,0.0042588976211845875,-0.0558980293571949,0.0007985432748682797
2533193566837,-0.1280897855758667,-9.653421401977539,0.37828385829925537,0.0021294488105922937,-0.057228934019804,0.0021294488105922937
2533194804000,-0.16998831927776337,-9.706093788146973,0.4058171808719635,0.0007985432748682797,-0.057228934019804,-0.0053236219100654125
2533196041150,-0.1867477297782898,-9.68933391571045,0.40940847992897034,0.00692070834338665,-0.057228934019804,-0.0026618109550327063
2533197278300,-0.17477671802043915,-9.740809440612793,0.43095630407333374,0.0090501569211483,-0.0558980293571949,0.0
2533198515462,-0.18555063009262085,-9.72285270690918,0.42018240690231323,0.0066545275039970875,-0.0580274797976017,-0.0015970865497365594
2533199752625,-0.17717093229293823,-9.726444244384766,0.3974374830722809,0.008251613937318325,-0.0564303919672966,-0.0053236219100654125
2533200989787,-0.17477671802043915,-9.733627319335938,0.4213795065879822,0.010913425125181675,-0.0558980293571949,-0.007453070487827063
2533202226937,-0.1951274424791336,-9.77552604675293,0.3579331636428833,0.014906140975654125,-0.0574951171875,-0.007453070487827063
2533203464100,-0.1604115217924118,-9.801861763000488,0.40940847992897034,0.0173017717897892,-0.062020193785429,-0.0039927163161337376
2533204701250,-0.2214636653661728,-9.785102844238281,0.41539400815963745,0.015172322280704975,-0.0580274797976017,-0.0023956298828125
2533205938412,-0.19632454216480255,-9.823410034179688,0.41060560941696167,0.0162370465695858,-0.0574951171875,0.0
2533207175575,-0.20111294090747833,-9.828198432922363,0.4141969084739685,0.0173017717897892,-0.0601569265127182,-0.0010647244052961469
2533208412725,-0.1951274424791336,-9.795876502990723,0.42018240690231323,0.0220930315554142,-0.0633511021733284,-0.0031941730994731188
2533209649875,-0.2346317619085312,-9.86650562286377,0.4381389021873474,0.0220930315554142,-0.062286376953125,-0.0039927163161337376
2533210887037,-0.23942017555236816,-9.849745750427246,0.395043283700943,0.0204959437251091,-0.062286376953125,0.0002661811013240367
2533212124200,-0.22864626348018646,-9.828198432922363,0.4357447028160095,0.015172322280704975,-0.0617540143430233,-0.0031941730994731188
2533213361350,-0.24660277366638184,-9.84256362915039,0.44532153010368347,0.01650322787463665,-0.066545270383358,-0.00452507846057415
2533214598500,-0.25019407272338867,-9.8784761428833,0.40940847992897034,0.014906140975654125,-0.0633511021733284,-0.0010647244052961469
2533215835675,-0.2298433631658554,-9.877279281616211,0.41060560941696167,0.0157046839594841,-0.0566965714097023,0.0005323622026480734
2533217072825,-0.23343466222286224,-9.884461402893066,0.363918662071228,0.02022976242005825,-0.0588260218501091,0.007985432632267475
2533218309975,-0.28131869435310364,-9.858125686645508,0.38546648621559143,0.02076212503015995,-0.0585598424077034,0.0026618109550327063
2533219547150,-0.2406172752380371,-9.848548889160156,0.41778820753097534,0.0210283063352108,-0.057228934019804,0.0029279920272529125
2533220784287,-0.23343466222286224,-9.84256362915039,0.3974374830722809,0.01650322787463665,-0.0561642125248909,0.006122165359556675
2533222021437,-0.26096799969673157,-9.860519409179688,0.41060560941696167,0.01756795309484005,-0.0532362200319767,0.0037265352439135313
2533223258612,-0.2717418968677521,-9.871294021606445,0.39863458275794983,0.02369011752307415,-0.0511067695915699,0.005057440605014563
2533224495762,-0.26336219906806946,-9.858125686645508,0.3878606855869293,0.0204959437251091,-0.0543009415268898,0.0015970865497365594
2533225732912,-0.272938996553421,-9.865307807922363,0.45250412821769714,0.0191650390625,-0.0503082275390625,0.0053236219100654125
2533226970087,-0.2825157940387726,-9.914389610290527,0.40462008118629456,0.0196974016726017,-0.0492435023188591,0.0039927163161337376
2533228207237,-0.2861070930957794,-9.884461402893066,0.4489128291606903,0.0167694091796875,-0.052437674254179,0.0010647244052961469
2533229444387,-0.2513911724090576,-9.877279281616211,0.4141969084739685,0.015172322280704975,-0.0457831472158432,0.0042588976211845875
2533230681575,-0.2801215946674347,-9.90361499786377,0.40222588181495667,0.01410759799182415,-0.0449846051633358,-0.0023956298828125
2533231918737,-0.2908955216407776,-9.9000244140625,0.38067808747291565,0.01224433071911335,-0.0495096817612648,-0.0010647244052961469
2533233155875,-0.2753331959247589,-9.84376049041748,0.40462008118629456,0.01224433071911335,-0.0460493303835392,-0.0013309054775163531
2533234393012,-0.24181437492370605,-9.888052940368652,0.38546648621559143,0.012776692397892475,-0.0452507846057415,-0.0039927163161337376
2533235630175,-0.27892449498176575,-9.837775230407715,0.3758896589279175,0.008251613937318325,-0.0396609827876091,-0.0042588976211845875
2533236867350,-0.2801215946674347,-9.840168952941895,0.3902548849582672,0.0114457868039608,-0.0407257080078125,-0.0031941730994731188
2533238104487,-0.25737667083740234,-9.864110946655273,0.4297592043876648,0.012510511092841625,-0.0433875173330307,-0.0037265352439135313
2533239341675,-0.2717418968677521,-9.825803756713867,0.43694180250167847,0.014373779296875,-0.0452507846057415,-0.00958251953125
2533240578825,-0.2322375625371933,-9.84615421295166,0.4273650050163269,0.014906140975654125,-0.0433875173330307,-0.008783976547420025
2533241815962,-0.23822307586669922,-9.852140426635742,0.44532153010368347,0.010647243820130825,-0.0367329902946949,-0.0053236219100654125
2533243053125,-0.25019407272338867,-9.829395294189453,0.40940847992897034,0.0119781494140625,-0.0399271659553051,-0.00692070834338665
2533244290300,-0.23343466222286224,-9.84376049041748,0.4273650050163269,0.0119781494140625,-0.0377977155148983,-0.004791259765625
2533245527437,-0.22744916379451752,-9.838972091674805,0.42377370595932007,0.01357523538172245,-0.0375315360724926,-0.0039927163161337376
2533246764600,-0.21787235140800476,-9.837775230407715,0.44532153010368347,0.01650322787463665,-0.0388624407351017,-0.0015970865497365594
2533248001762,-0.20350714027881622,-9.831789016723633,0.4513070285320282,0.0114457868039608,-0.0343373604118824,-0.0018632676219567657
2533249238925,-0.22505496442317963,-9.847352027893066,0.4405331015586853,0.00931633822619915,-0.033538818359375,-0.0037265352439135313
2533250476062,-0.23343466222286224,-9.831789016723633,0.4692635238170624,0.01410759799182415,-0.0322079136967659,-0.0007985432748682797
2533251713225,-0.2214636653661728,-9.835380554199219,0.48243165016174316,0.01889885775744915,-0.0362006276845932,0.0013309054775163531
2533252950400,-0.23822307586669922,-9.853337287902832,0.4381389021873474,0.0191650390625,-0.0322079136967659,0.0031941730994731188
2533254187562,-0.17477671802043915,-9.882067680358887,0.4441244304180145,0.0186326764523983,-0.0314093679189682,-0.0002661811013240367
2533255424712,-0.20949265360832214,-9.874884605407715,0.4405331015586853,0.02076212503015995,-0.03034464456140995,0.0013309054775163531
2533256661862,-0.20949265360832214,-9.838972091674805,0.4704606235027313,0.0181003138422966,-0.0276828333735466,0.0026618109550327063
2533257899012,-0.20709845423698425,-9.856928825378418,0.4513070285320282,0.015172322280704975,-0.033538818359375,-0.0037265352439135313
2533259136175,-0.23702597618103027,-9.86770248413086,0.41299980878829956,0.02262539230287075,-0.0340711809694767,0.0023956298828125
2533260373325,-0.19871874153614044,-9.832986831665039,0.46088382601737976,0.0204959437251091,-0.03087700717151165,-0.0002661811013240367
2533261610462,-0.22026655077934265,-9.852140426635742,0.43933600187301636,0.0181003138422966,-0.02661811001598835,-0.0010647244052961469
2533262847637,-0.26096799969673157,-9.861717224121094,0.4189853072166443,0.01996358297765255,-0.02794901467859745,-0.004791259765625
2533264084800,-0.22385786473751068,-9.84615421295166,0.4967968463897705,0.0181003138422966,-0.033538818359375,-0.0018632676219567657
2533265321950,-0.22385786473751068,-9.817423820495605,0.46567222476005554,0.01224433071911335,-0.0292799212038517,0.005589802749454975
2533266559125,-0.25019407272338867,-9.81024169921875,0.41060560941696167,0.0167694091796875,-0.0306108258664608,0.0077192517928779125
2533267796275,-0.25498247146606445,-9.81263542175293,0.4213795065879822,0.0181003138422966,-0.0276828333735466,0.007453070487827063
2533269033425,-0.2513911724090576,-9.84256362915039,0.41539400815963745,0.015438503585755825,-0.0247548408806324,0.005589802749454975
2533270270575,-0.2106897532939911,-9.884461402893066,0.4345476031303406,0.0167694091796875,-0.02555338479578495,0.0021294488105922937
2533271507737,-0.23942017555236816,-9.859322547912598,0.4225766062736511,0.01756795309484005,-0.0276828333735466,0.0037265352439135313
2533272744912,-0.25737667083740234,-9.834183692932129,0.4357447028160095,0.02129448764026165,-0.02901373989880085,0.0077192517928779125
2533273982050,-0.25258827209472656,-9.850942611694336,0.46088382601737976,0.0191650390625,-0.0252872034907341,0.005855984054505825
2533275219225,-0.22625206410884857,-9.86650562286377,0.42616790533065796,0.01463996060192585,-0.0215606689453125,0.0023956298828125
2533276456375,-0.2621650993824005,-9.84615421295166,0.42616790533065796,0.015172322280704975,-0.0181003138422966,0.0031941730994731188
2533277693550,-0.25019407272338867,-9.861717224121094,0.4884171485900879,0.01889885775744915,-0.02076212503015995,0.005589802749454975
2533278930687,-0.2849099934101105,-9.870096206665039,0.42377370595932007,0.0173017717897892,-0.01996358297765255,0.0042588976211845875
2533280167850,-0.2645592987537384,-9.8784761428833,0.48243165016174316,0.0173017717897892,-0.0223592109978199,0.003460354171693325
2533281405012,-0.2298433631658554,-9.880870819091797,0.45489832758903503,0.01783413253724575,-0.0186326764523983,0.0063883461989462376
2533282642162,-0.25737667083740234,-9.9000244140625,0.46327802538871765,0.0228915736079216,-0.0196974016726017,0.0090501569211483
2533283879312,-0.2717418968677521,-9.90122127532959,0.456095427274704,0.0157046839594841,-0.0181003138422966,0.0090501569211483
2533285116475,-0.2059013545513153,-9.865307807922363,0.4213795065879822,0.01889885775744915,-0.014906140975654125,0.00452507846057415
2533286353637,-0.25258827209472656,-9.915586471557617,0.42018240690231323,0.0162370465695858,-0.0167694091796875,0.0039927163161337376
2533287590800,-0.23582887649536133,-9.898826599121094,0.4225766062736511,0.0167694091796875,-0.0186326764523983,0.007985432632267475
2533288827950,-0.24779987335205078,-9.907206535339355,0.4704606235027313,0.0162370465695858,-0.0181003138422966,0.010647243820130825
2533290065112,-0.26815059781074524,-9.947908401489258,0.40462008118629456,0.012776692397892475,-0.0173017717897892,0.008251613937318325
2533291302262,-0.2406172752380371,-9.925163269042969,0.4513070285320282,0.014373779296875,-0.0173017717897892,0.01117960549890995
2533292539412,-0.2537853717803955,-9.953893661499023,0.4213795065879822,0.015438503585755825,-0.01463996060192585,0.010381062515079975
2533293776575,-0.2454056739807129,-9.927556991577148,0.41299980878829956,0.01783413253724575,-0.014906140975654125,0.013042873702943325
2533295013725,-0.23822307586669922,-9.917980194091797,0.45489832758903503,0.015438503585755825,-0.023956298828125,0.012776692397892475
2533296250900,-0.22625206410884857,-9.920374870300293,0.41539400815963745,0.010913425125181675,-0.0167694091796875,0.0157046839594841
2533297488050,-0.22026655077934265,-9.93474006652832,0.4381389021873474,0.010114881210029125,-0.012510511092841625,0.00958251953125
2533298725200,-0.20231004059314728,-9.949105262756348,0.44771572947502136,0.005057440605014563,-0.013042873702943325,0.0071868896484375
2533299962362,-0.243011474609375,-9.955090522766113,0.4082113802433014,0.01117960549890995,-0.01171196810901165,0.01836649514734745
2533301199512,-0.23582887649536133,-9.951498985290527,0.4405331015586853,0.014906140975654125,-0.0157046839594841,0.0157046839594841
2533302436675,-0.21188685297966003,-9.894038200378418,0.42377370595932007,0.01117960549890995,-0.0157046839594841,0.01463996060192585
2533303673850,-0.2214636653661728,-9.919178009033203,0.47884035110473633,0.013042873702943325,-0.00958251953125,0.0167694091796875
2533304910987,-0.2214636653661728,-9.947908401489258,0.42856210470199585,0.013042873702943325,-0.0119781494140625,0.013042873702943325
2533306148162,-0.243011474609375,-9.928754806518555,0.40701428055763245,0.0090501569211483,-0.008517795242369175,0.0119781494140625
2533307385312,-0.24660277366638184,-9.90361499786377,0.4513070285320282,0.0053236219100654125,-0.010647243820130825,0.01650322787463665
2533308622462,-0.2406172752380371,-9.919178009033203,0.4489128291606903,0.0039927163161337376,-0.013042873702943325,0.0138414166867733
2533309859637,-0.25498247146606445,-9.919178009033203,0.45010992884635925,0.007453070487827063,-0.007985432632267475,0.01996358297765255
2533311096800,-0.2597709000110626,-9.86770248413086,0.44532153010368347,0.0037265352439135313,-0.010381062515079975,0.01650322787463665
2533312333937,-0.2597709000110626,-9.898826599121094,0.39384618401527405,0.0042588976211845875,-0.00984870083630085,0.01889885775744915
2533313571100,-0.2537853717803955,-9.84256362915039,0.4165911078453064,0.005589802749454975,-0.0077192517928779125,0.0186326764523983
2533314808262,-0.2561795711517334,-9.892841339111328,0.42018240690231323,0.0013309054775163531,-0.00452507846057415,0.0181003138422966
2533316045412,-0.23582887649536133,-9.877279281616211,0.4118027091026306,0.0018632676219567657,-0.0021294488105922937,0.01756795309484005
2533317282562,-0.25258827209472656,-9.895236015319824,0.41060560941696167,-0.0021294488105922937,-0.0042588976211845875,0.015438503585755825
2533318519725,-0.2621650993824005,-9.86650562286377,0.47644615173339844,0.0002661811013240367,-0.0018632676219567657,0.0157046839594841
2533319756887,-0.24899697303771973,-9.848548889160156,0.4513070285320282,-0.0023956298828125,-0.0029279920272529125,0.01889885775744915
2533320994037,-0.2454056739807129,-9.915586471557617,0.4082113802433014,-0.0042588976211845875,-0.0007985432748682797,0.0167694091796875
2533322231200,-0.25498247146606445,-9.871294021606445,0.38307228684425354,0.0005323622026480734,0.0002661811013240367,0.0196974016726017
2533323468362,-0.2537853717803955,-9.859322547912598,0.42856210470199585,-0.0013309054775163531,-0.0018632676219567657,0.0204959437251091
2533324705525,-0.25019407272338867,-9.894038200378418,0.4620809257030487,-0.0031941730994731188,-0.0021294488105922937,0.02022976242005825
2533325942675,-0.24181437492370605,-9.856928825378418,0.45250412821769714,-0.0042588976211845875,0.0,0.01996358297765255
2533327179837,-0.20350714027881622,-9.825803756713867,0.41299980878829956,-0.0066545275039970875,0.0013309054775163531,0.01943122036755085
2533328416987,-0.243011474609375,-9.818621635437012,0.40462008118629456,-0.005589802749454975,-0.0053236219100654125,0.0157046839594841
2533329654150,-0.2537853717803955,-9.849745750427246,0.4441244304180145,-0.0002661811013240367,0.004791259765625,0.015172322280704975
2533330891300,-0.2322375625371933,-9.86889934539795,0.4213795065879822,-0.0042588976211845875,0.0018632676219567657,0.02422248013317585
2533332128450,-0.23343466222286224,-9.853337287902832,0.3998316824436188,-0.0053236219100654125,0.0018632676219567657,0.0210283063352108
2533333365625,-0.24779987335205078,-9.821015357971191,0.40940847992897034,-0.0010647244052961469,0.0023956298828125,0.01836649514734745
2533334602775,-0.23104046285152435,-9.84376049041748,0.4381389021873474,-0.0023956298828125,0.0037265352439135313,0.01889885775744915
2533335839937,-0.23343466222286224,-9.80904483795166,0.4213795065879822,-0.006122165359556675,0.007985432632267475,0.02369011752307415
2533337077075,-0.2298433631658554,-9.834183692932129,0.4381389021873474,-0.010114881210029125,0.0042588976211845875,0.0173017717897892
2533338314250,-0.24660277366638184,-9.828198432922363,0.4118027091026306,-0.005855984054505825,0.0015970865497365594,0.01650322787463665
2533339551400,-0.243011474609375,-9.799468040466309,0.4513070285320282,-0.006122165359556675,0.0063883461989462376,0.01463996060192585
2533340788562,-0.2537853717803955,-9.828198432922363,0.42018240690231323,-0.006122165359556675,0.008783976547420025,0.0215606689453125
2533342025737,-0.25258827209472656,-9.831789016723633,0.38546648621559143,-0.0138414166867733,0.007453070487827063,0.0204959437251091
2533343262862,-0.2597709000110626,-9.848548889160156,0.395043283700943,-0.0114457868039608,0.0018632676219567657,0.0204959437251091
2533344500050,-0.25498247146606445,-9.821015357971191,0.41299980878829956,-0.0066545275039970875,0.0015970865497365594,0.02022976242005825
2533345737212,-0.23942017555236816,-9.807847023010254,0.4034229815006256,-0.0090501569211483,0.0042588976211845875,0.01836649514734745
2533346974350,-0.20709845423698425,-9.815030097961426,0.4357447028160095,-0.01171196810901165,0.0037265352439135313,0.02129448764026165
2533348211512,-0.21308395266532898,-9.762357711791992,0.41778820753097534,-0.006122165359556675,0.0007985432748682797,0.0215606689453125
2533349448662,-0.1735796183347702,-9.764751434326172,0.39624038338661194,-0.010114881210029125,0.0053236219100654125,0.01996358297765255
2533350685825,-0.21188685297966003,-9.829395294189453,0.4189853072166443,-0.008783976547420025,0.008517795242369175,0.02262539230287075
2533351922975,-0.22385786473751068,-9.798270225524902,0.4034229815006256,-0.0042588976211845875,0.008783976547420025,0.01756795309484005
2533353160137,-0.21188685297966003,-9.819818496704102,0.4441244304180145,-0.004791259765625,0.0071868896484375,0.01889885775744915
2533354397300,-0.20470423996448517,-9.807847023010254,0.38307228684425354,-0.0063883461989462376,0.005057440605014563,0.01996358297765255
2533355634475,-0.21188685297966003,-9.786299705505371,0.4034229815006256,-0.005589802749454975,0.0071868896484375,0.0186326764523983
2533356871625,-0.17717093229293823,-9.758766174316406,0.39624038338661194,-0.007453070487827063,0.01117960549890995,0.0215606689453125
2533358108775,-0.2322375625371933,-9.786299705505371,0.4010287821292877,-0.0090501569211483,0.008517795242369175,0.0162370465695858
2533359345937,-0.18555063009262085,-9.823410034179688,0.4141969084739685,-0.0042588976211845875,0.01224433071911335,0.02022976242005825
2533360583087,-0.1951274424791336,-9.805453300476074,0.4118027091026306,-0.004791259765625,0.01117960549890995,0.0228915736079216
2533361820237,-0.181959331035614,-9.803058624267578,0.3926490843296051,-0.0090501569211483,0.007985432632267475,0.02076212503015995
2533363057400,-0.22625206410884857,-9.847352027893066,0.4321534037590027,-0.007453070487827063,0.0119781494140625,0.0263519287109375
2533364294562,-0.2693476974964142,-9.780314445495605,0.38067808747291565,-0.007453070487827063,0.01117960549890995,0.02502102218568325
2533365531712,-0.23702597618103027,-9.81024169921875,0.42616790533065796,-0.00452507846057415,0.005589802749454975,0.01783413253724575
2533366768887,-0.2059013545513153,-9.813833236694336,0.424970805644989,-0.005855984054505825,0.007985432632267475,0.01756795309484005
2533368006025,-0.23343466222286224,-9.836577415466309,0.40222588181495667,-0.005057440605014563,0.01224433071911335,0.01756795309484005
2533369243200,-0.23343466222286224,-9.789891242980957,0.40940847992897034,-0.01117960549890995,0.012510511092841625,0.01650322787463665
2533370480350,-0.2406172752380371,-9.819818496704102,0.4321534037590027,-0.007453070487827063,0.010381062515079975,0.01836649514734745
2533371717500,-0.2585738003253937,-9.819818496704102,0.36990416049957275,-0.0090501569211483,0.00984870083630085,0.01703559048473835
2533372954662,-0.2322375625371933,-9.781511306762695,0.4213795065879822,-0.0063883461989462376,0.008517795242369175,0.02182685025036335
2533374191825,-0.2190694510936737,-9.813833236694336,0.37828385829925537,-0.0031941730994731188,0.010913425125181675,0.02608574740588665
2533375429000,-0.2597709000110626,-9.806650161743164,0.4321534037590027,-0.0077192517928779125,0.015172322280704975,0.02129448764026165
2533376666137,-0.2454056739807129,-9.81143856048584,0.4381389021873474,-0.00452507846057415,0.01117960549890995,0.01597086526453495
2533377903312,-0.23702597618103027,-9.821015357971191,0.4273650050163269,-0.0015970865497365594,0.01410759799182415,0.0167694091796875
2533379140450,-0.2454056739807129,-9.816226959228516,0.38067808747291565,-0.0021294488105922937,0.01357523538172245,0.01703559048473835
2533380377625,-0.25258827209472656,-9.801861763000488,0.3902548849582672,-0.006122165359556675,0.013309055007994175,0.02129448764026165
2533381614762,-0.26096799969673157,-9.771934509277344,0.3818751871585846,-0.0090501569211483,0.01463996060192585,0.0204959437251091
2533382851925,-0.2406172752380371,-9.77672290802002,0.4489128291606903,-0.00984870083630085,0.0204959437251091,0.01996358297765255
2533384089075,-0.26336219906806946,-9.819818496704102,0.4189853072166443,-0.0042588976211845875,0.0191650390625,0.0220930315554142
2533385326225,-0.243011474609375,-9.854534149169922,0.3758896589279175,-0.0037265352439135313,0.01597086526453495,0.0204959437251091
2533386563400,-0.28371289372444153,-9.835380554199219,0.4034229815006256,-0.0063883461989462376,0.010647243820130825,0.01783413253724575
2533387800562,-0.25258827209472656,-9.824606895446777,0.40462008118629456,-0.008517795242369175,0.0181003138422966,0.01889885775744915
2533389037725,-0.2717418968677521,-9.799468040466309,0.4058171808719635,-0.0013309054775163531,0.01650322787463665,0.0215606689453125
2533390274887,-0.24420857429504395,-9.830592155456543,0.39384618401527405,-0.0023956298828125,0.02022976242005825,0.0191650390625
2533391512037,-0.24660277366638184,-9.805453300476074,0.38905778527259827,-0.0018632676219567657,0.0157046839594841,0.0204959437251091
2533392749187,-0.23582887649536133,-9.824606895446777,0.365115761756897,-0.0021294488105922937,0.014906140975654125,0.0181003138422966
2533393986350,-0.2322375625371933,-9.858125686645508,0.4225766062736511,-0.006122165359556675,0.0167694091796875,0.0204959437251091
2533395223525,-0.24420857429504395,-9.803058624267578,0.3818751871585846,-0.0042588976211845875,0.0220930315554142,0.01597086526453495
2533396460675,-0.26815059781074524,-9.786299705505371,0.3998316824436188,-0.0026618109550327063,0.0252872034907341,0.0162370465695858
2533397697825,-0.26096799969673157,-9.830592155456543,0.3770867586135864,-0.0010647244052961469,0.02022976242005825,0.02022976242005825
2533398934987,-0.2454056739807129,-9.80904483795166,0.365115761756897,-0.005855984054505825,0.0215606689453125,0.01996358297765255
2533400172150,-0.24181437492370605,-9.80904483795166,0.3998316824436188,-0.004791259765625,0.02555338479578495,0.0181003138422966
2533401409312,-0.21428105235099792,-9.832986831665039,0.4225766062736511,-0.005057440605014563,0.02794901467859745,0.0181003138422966
2533402646437,-0.22505496442317963,-9.84376049041748,0.4058171808719635,-0.00452507846057415,0.02608574740588665,0.015438503585755825
2533403883612,-0.23343466222286224,-9.763554573059082,0.40701428055763245,-0.00452507846057415,0.02741665206849575,0.0204959437251091
2533405120775,-0.19871874153614044,-9.830592155456543,0.41778820753097534,-0.0037265352439135313,0.02315775491297245,0.02422248013317585
2533406357925,-0.2082955539226532,-9.841365814208984,0.3926490843296051,-0.0039927163161337376,0.0204959437251091,0.0157046839594841
2533407595087,-0.1759738326072693,-9.793481826782227,0.4118027091026306,0.0,0.02022976242005825,0.02022976242005825
2533408832250,-0.16519992053508759,-9.791088104248047,0.41778820753097534,0.0,0.023956298828125,0.0196974016726017
2533410069400,-0.1867477297782898,-9.789891242980957,0.4082113802433014,0.0,0.02608574740588665,0.0196974016726017
2533411306562,-0.1735796183347702,-9.813833236694336,0.43694180250167847,0.0002661811013240367,0.02741665206849575,0.02262539230287075
2533412543725,-0.19273324310779572,-9.806650161743164,0.4141969084739685,-0.0018632676219567657,0.0244886614382267,0.0244886614382267
2533413780875,-0.2106897532939911,-9.795876502990723,0.424970805644989,-0.0031941730994731188,0.02315775491297245,0.01943122036755085
