timestamp_ns,accel_x,accel_y,accel_z,gyro_x,gyro_y,gyro_z
2454342230837,1.3407529592514038,-9.736021041870117,1.1982979774475098,0.0053236219100654125,-0.01889885775744915,0.01836649514734745
2454343467950,1.4197616577148438,-9.6989107131958,1.2186486721038818,0.010114881210029125,-0.01756795309484005,0.0220930315554142
2454344705075,1.357512354850769,-9.707290649414062,1.212663173675537,0.00692070834338665,-0.01597086526453495,0.01943122036755085
2454345942200,1.3706804513931274,-9.728838920593262,1.2270283699035645,0.0066545275039970875,-0.01703559048473835,0.01943122036755085
2454347179300,1.3934253454208374,-9.738415718078613,1.2210428714752197,0.0066545275039970875,-0.01836649514734745,0.0215606689453125
2454348416437,1.4089877605438232,-9.737218856811523,1.1623849868774414,0.0053236219100654125,-0.02502102218568325,0.0173017717897892
2454349653537,1.4101848602294922,-9.712079048156738,1.1971008777618408,0.010913425125181675,-0.0220930315554142,0.02182685025036335
2454350890662,1.3922282457351685,-9.714473724365234,1.1408370733261108,0.010114881210029125,-0.0162370465695858,0.02182685025036335
2454352127775,1.3862427473068237,-9.762357711791992,1.1791443824768066,0.006122165359556675,-0.0173017717897892,0.02129448764026165
2454353364912,1.381454348564148,-9.683348655700684,1.1875240802764893,0.008783976547420025,-0.02182685025036335,0.01943122036755085
2454354602000,1.3646949529647827,-9.727641105651855,1.1899182796478271,0.010913425125181675,-0.02369011752307415,0.0186326764523983
2454355839137,1.3850456476211548,-9.747992515563965,1.2282254695892334,0.0063883461989462376,-0.02315775491297245,0.01756795309484005
2454357076262,1.3611036539077759,-9.774328231811523,1.2042834758758545,0.0042588976211845875,-0.023956298828125,0.01783413253724575
2454358313387,1.3419500589370728,-9.750386238098145,1.2401964664459229,0.0053236219100654125,-0.0191650390625,0.01943122036755085
2454359550500,1.3682862520217896,-9.718064308166504,1.2090718746185303,0.0053236219100654125,-0.0196974016726017,0.01943122036755085
2454360787612,1.3623007535934448,-9.758766174316406,1.1971008777618408,0.00692070834338665,-0.01836649514734745,0.01889885775744915
2454362024725,1.4089877605438232,-9.75158405303955,1.1623849868774414,0.0071868896484375,-0.023956298828125,0.0244886614382267
2454363261850,1.3227964639663696,-9.701305389404297,1.1899182796478271,0.008517795242369175,-0.0282151959836483,0.0196974016726017
2454364498975,1.358709454536438,-9.736021041870117,1.1851298809051514,0.004791259765625,-0.02182685025036335,0.0223592109978199
2454365736087,1.3682862520217896,-9.728838920593262,1.193509578704834,0.00452507846057415,-0.0162370465695858,0.01836649514734745
2454366973200,1.357512354850769,-9.761160850524902,1.1899182796478271,0.0077192517928779125,-0.02182685025036335,0.0157046839594841
2454368210325,1.3299790620803833,-9.75517463684082,1.1204863786697388,0.010647243820130825,-0.02129448764026165,0.01756795309484005
2454369447450,1.3060370683670044,-9.739612579345703,1.194706678390503,0.012510511092841625,-0.023956298828125,0.014906140975654125
2454370684562,1.359906554222107,-9.734824180603027,1.1623849868774414,0.00984870083630085,-0.02502102218568325,0.014373779296875
2454371921687,1.3323732614517212,-9.750386238098145,1.2006921768188477,0.005589802749454975,-0.0268842913210392,0.01117960549890995
2454373158800,1.382651448249817,-9.715670585632324,1.2102689743041992,0.008783976547420025,-0.02422248013317585,0.012510511092841625
2454374395937,1.3898340463638306,-9.740809440612793,1.2078747749328613,0.007985432632267475,-0.02129448764026165,0.0173017717897892
2454375633037,1.3922282457351685,-9.783905029296875,1.2078747749328613,0.0066545275039970875,-0.02422248013317585,0.015438503585755825
2454376870150,1.3215993642807007,-9.759963035583496,1.1959037780761719,0.0077192517928779125,-0.0282151959836483,0.0162370465695858
2454378107275,1.3623007535934448,-9.746795654296875,1.1791443824768066,0.0023956298828125,-0.0247548408806324,0.014906140975654125
2454379344387,1.3455413579940796,-9.771934509277344,1.2294225692749023,-0.0005323622026480734,-0.0223592109978199,0.01410759799182415
2454380581512,1.3634978532791138,-9.770737648010254,1.2102689743041992,0.0002661811013240367,-0.0244886614382267,0.0114457868039608
2454381818612,1.3491326570510864,-9.765949249267578,1.1994950771331787,0.0037265352439135313,-0.0223592109978199,0.0138414166867733
2454383055750,1.3467384576797485,-9.739612579345703,1.2246341705322266,0.0039927163161337376,-0.0247548408806324,0.01171196810901165
2454384292850,1.3658920526504517,-9.773131370544434,1.1540051698684692,0.0071868896484375,-0.0271504707634449,0.00931633822619915
2454385529975,1.3778630495071411,-9.737218856811523,1.2258312702178955,0.008517795242369175,-0.023956298828125,0.0119781494140625
2454386767100,1.357512354850769,-9.744400978088379,1.2006921768188477,0.0026618109550327063,-0.023956298828125,0.015438503585755825
2454388004212,1.3467384576797485,-9.771934509277344,1.1791443824768066,0.0039927163161337376,-0.01783413253724575,0.0157046839594841
2454389241337,1.3263877630233765,-9.767146110534668,1.192312479019165,0.010913425125181675,-0.0268842913210392,0.0138414166867733
2454390478450,1.3275848627090454,-9.713275909423828,1.2030863761901855,0.0090501569211483,-0.02369011752307415,0.01171196810901165
2454391715575,1.3479355573654175,-9.6989107131958,1.1803414821624756,0.0026618109550327063,-0.02262539230287075,0.010647243820130825
2454392952687,1.358709454536438,-9.728838920593262,1.194706678390503,0.0015970865497365594,-0.02369011752307415,0.0157046839594841
2454394189812,1.3766659498214722,-9.716867446899414,1.194706678390503,0.003460354171693325,-0.0234239362180233,0.01463996060192585
2454395426925,1.3766659498214722,-9.702502250671387,1.193509578704834,0.0023956298828125,-0.0223592109978199,0.0162370465695858
2454396664025,1.357512354850769,-9.736021041870117,1.1623849868774414,0.007985432632267475,-0.02369011752307415,0.015172322280704975
2454397901175,1.3431471586227417,-9.710882186889648,1.2102689743041992,0.008783976547420025,-0.02262539230287075,0.013042873702943325
2454399138287,1.338358759880066,-9.692925453186035,1.1971008777618408,0.0053236219100654125,-0.02502102218568325,0.0181003138422966
2454400375400,1.3503297567367554,-9.690531730651855,1.1899182796478271,0.0071868896484375,-0.0258195661008358,0.0071868896484375
2454401612525,1.3407529592514038,-9.667786598205566,1.2797008752822876,0.01171196810901165,-0.0271504707634449,0.008517795242369175
2454402849637,1.3311761617660522,-9.715670585632324,1.1875240802764893,0.010647243820130825,-0.0271504707634449,0.01171196810901165
2454404086750,1.3910311460494995,-9.739612579345703,1.194706678390503,0.00452507846057415,-0.0247548408806324,0.015438503585755825
2454405323875,1.3287819623947144,-9.692925453186035,1.2222399711608887,0.0037265352439135313,-0.0210283063352108,0.0157046839594841
2454406561012,1.3251906633377075,-9.724050521850586,1.2437877655029297,0.010114881210029125,-0.02262539230287075,0.010381062515079975
2454407798112,1.3299790620803833,-9.701305389404297,1.2473790645599365,0.008517795242369175,-0.02502102218568325,0.01357523538172245
2454409035237,1.3335703611373901,-9.700108528137207,1.217451572418213,0.008783976547420025,-0.0186326764523983,0.012510511092841625
2454410272350,1.3682862520217896,-9.714473724365234,1.1647791862487793,0.0090501569211483,-0.0186326764523983,0.01117960549890995
2454411509450,1.3479355573654175,-9.709685325622559,1.1815385818481445,0.01357523538172245,-0.0196974016726017,0.0090501569211483
2454412746587,1.3096283674240112,-9.724050521850586,1.1982979774475098,0.008783976547420025,-0.0220930315554142,0.007453070487827063
2454413983712,1.3670891523361206,-9.697713851928711,1.2258312702178955,0.010647243820130825,-0.0223592109978199,0.010647243820130825
2454415220812,1.3527239561080933,-9.697713851928711,1.2318167686462402,0.007453070487827063,-0.0244886614382267,0.010913425125181675
2454416457950,1.3263877630233765,-9.72285270690918,1.216254472732544,0.013042873702943325,-0.0258195661008358,0.012776692397892475
2454417695062,1.314416766166687,-9.724050521850586,1.237802267074585,0.012776692397892475,-0.0210283063352108,0.01224433071911335
2454418932175,1.3287819623947144,-9.68694019317627,1.2437877655029297,0.00931633822619915,-0.0223592109978199,0.014373779296875
2454420169300,1.3407529592514038,-9.682151794433594,1.2497732639312744,0.010647243820130825,-0.02502102218568325,0.01224433071911335
2454421406412,1.358709454536438,-9.670180320739746,1.194706678390503,0.012776692397892475,-0.0223592109978199,0.01117960549890995
2454422643537,1.3503297567367554,-9.684545516967773,1.2449848651885986,0.01357523538172245,-0.0186326764523983,0.0053236219100654125
2454423880650,1.3443442583084106,-9.6989107131958,1.1767501831054688,0.01756795309484005,-0.01836649514734745,0.0077192517928779125
2454425117775,1.37906014919281,-9.668983459472656,1.215057373046875,0.0162370465695858,-0.0196974016726017,0.0114457868039608
2454426354900,1.3024457693099976,-9.682151794433594,1.2342109680175781,0.012776692397892475,-0.02315775491297245,0.005589802749454975
2454427592000,1.3215993642807007,-9.701305389404297,1.2042834758758545,0.015438503585755825,-0.01943122036755085,0.0071868896484375
2454428829125,1.292868971824646,-9.6618013381958,1.215057373046875,0.0181003138422966,-0.0210283063352108,0.008517795242369175
2454430066250,1.3227964639663696,-9.678560256958008,1.2090718746185303,0.0167694091796875,-0.0220930315554142,0.00692070834338665
2454431303375,1.3299790620803833,-9.682151794433594,1.2186486721038818,0.0138414166867733,-0.02182685025036335,0.005057440605014563
2454432540500,1.3311761617660522,-9.68933391571045,1.2210428714752197,0.01836649514734745,-0.0162370465695858,0.00692070834338665
2454433777612,1.3299790620803833,-9.700108528137207,1.2186486721038818,0.0173017717897892,-0.01650322787463665,0.00452507846057415
2454435014725,1.3611036539077759,-9.724050521850586,1.2509703636169434,0.01703559048473835,-0.01783413253724575,0.008517795242369175
2454436251850,1.2964602708816528,-9.680954933166504,1.1899182796478271,0.0173017717897892,-0.0181003138422966,0.0063883461989462376
2454437488962,1.359906554222107,-9.679757118225098,1.2066776752471924,0.02022976242005825,-0.01783413253724575,0.007453070487827063
2454438726075,1.3000515699386597,-9.6989107131958,1.193509578704834,0.02555338479578495,-0.01996358297765255,0.004791259765625
2454439963200,1.3311761617660522,-9.706093788146973,1.238999366760254,0.0228915736079216,-0.01996358297765255,0.005855984054505825
2454441200312,1.313219666481018,-9.702502250671387,1.217451572418213,0.01756795309484005,-0.014373779296875,0.00931633822619915
2454442437437,1.3299790620803833,-9.703699111938477,1.1971008777618408,0.0210283063352108,-0.01463996060192585,0.0039927163161337376
2454443674575,1.3646949529647827,-9.739612579345703,1.193509578704834,0.0244886614382267,-0.0138414166867733,0.0029279920272529125
2454444911662,1.334767460823059,-9.725247383117676,1.237802267074585,0.0252872034907341,-0.015172322280704975,0.003460354171693325
2454446148800,1.3479355573654175,-9.709685325622559,1.2102689743041992,0.02741665206849575,-0.01357523538172245,0.005057440605014563
2454447385925,1.2892776727676392,-9.738415718078613,1.2461819648742676,0.0295461006462574,-0.01117960549890995,0.0053236219100654125
2454448623037,1.314416766166687,-9.720458984375,1.2318167686462402,0.0268842913210392,-0.010913425125181675,0.0002661811013240367
2454449860137,1.3251906633377075,-9.715670585632324,1.2401964664459229,0.0234239362180233,-0.01224433071911335,0.0007985432748682797
2454451097275,1.3000515699386597,-9.71926212310791,1.2342109680175781,0.0247548408806324,-0.01357523538172245,-0.0005323622026480734
2454452334387,1.3024457693099976,-9.703699111938477,1.2449848651885986,0.02422248013317585,-0.008783976547420025,-0.0039927163161337376
2454453571525,1.2964602708816528,-9.724050521850586,1.1982979774475098,0.02369011752307415,-0.012510511092841625,0.0010647244052961469
2454454808625,1.3563152551651,-9.730035781860352,1.258152961730957,0.0204959437251091,-0.008517795242369175,0.0031941730994731188
2454456045762,1.3563152551651,-9.716867446899414,1.2210428714752197,0.0228915736079216,-0.008783976547420025,0.0015970865497365594
2454457282862,1.3024457693099976,-9.716867446899414,1.1863269805908203,0.02661811001598835,-0.005057440605014563,0.0042588976211845875
2454458519987,1.3275848627090454,-9.709685325622559,1.212663173675537,0.0244886614382267,-0.006122165359556675,-0.0021294488105922937
2454459757112,1.3239935636520386,-9.700108528137207,1.235408067703247,0.0215606689453125,-0.00958251953125,-0.0005323622026480734
2454460994225,1.3108254671096802,-9.672574996948242,1.2258312702178955,0.02661811001598835,-0.00958251953125,-0.0010647244052961469
2454462231337,1.2868834733963013,-9.708487510681152,1.1851298809051514,0.0268842913210392,-0.00692070834338665,0.0010647244052961469
2454463468462,1.2988544702529907,-9.668983459472656,1.1982979774475098,0.02848137728869915,-0.0066545275039970875,0.0005323622026480734
2454464705587,1.2988544702529907,-9.696516990661621,1.2401964664459229,0.02502102218568325,-0.003460354171693325,-0.0005323622026480734
2454465942700,1.3096283674240112,-9.728838920593262,1.2306196689605713,0.0276828333735466,-0.0037265352439135313,0.005057440605014563
2454467179825,1.2761094570159912,-9.703699111938477,1.2449848651885986,0.03034464456140995,-0.0063883461989462376,0.005057440605014563
2454468416937,1.3192051649093628,-9.708487510681152,1.237802267074585,0.0276828333735466,-0.00984870083630085,0.0010647244052961469
2454469654062,1.3239935636520386,-9.696516990661621,1.2306196689605713,0.0276828333735466,-0.0005323622026480734,0.0015970865497365594
2454470891162,1.3036428689956665,-9.72165584564209,1.2689268589019775,0.02981228195130825,0.0037265352439135313,0.0015970865497365594
2454472128300,1.292868971824646,-9.726444244384766,1.213860273361206,0.0338049978017807,-0.0010647244052961469,-0.0053236219100654125
2454473365425,1.3108254671096802,-9.720458984375,1.2018892765045166,0.0314093679189682,-0.0031941730994731188,0.0015970865497365594
2454474602537,1.3108254671096802,-9.706093788146973,1.2401964664459229,0.0314093679189682,-0.003460354171693325,-0.0010647244052961469
2454475839637,1.3060370683670044,-9.757569313049316,1.2318167686462402,0.0295461006462574,0.0021294488105922937,0.0007985432748682797
2454477076762,1.3096283674240112,-9.743204116821289,1.2030863761901855,0.0311431884765625,-0.0018632676219567657,0.0077192517928779125
2454478313875,1.3227964639663696,-9.736021041870117,1.2449848651885986,0.033272635191679,0.0010647244052961469,0.0066545275039970875
2454479551012,1.3730746507644653,-9.737218856811523,1.2653355598449707,0.038063894957304,-0.0021294488105922937,0.0053236219100654125
2454480788125,1.3527239561080933,-9.712079048156738,1.2198457717895508,0.0338049978017807,-0.0063883461989462376,0.0015970865497365594
2454482025250,1.357512354850769,-9.738415718078613,1.2713210582733154,0.03087700717151165,0.0015970865497365594,0.0002661811013240367
2454483262362,1.3263877630233765,-9.773131370544434,1.2473790645599365,0.0330064557492733,0.0007985432748682797,0.0021294488105922937
2454484499462,1.3431471586227417,-9.733627319335938,1.2485761642456055,0.0319417305290699,0.0015970865497365594,0.0015970865497365594
2454485736587,1.3192051649093628,-9.743204116821289,1.259350061416626,0.0319417305290699,-0.0005323622026480734,0.0039927163161337376
2454486973725,1.3419500589370728,-9.771934509277344,1.2090718746185303,0.0292799212038517,-0.0007985432748682797,0.005589802749454975
2454488210837,1.380257248878479,-9.77672290802002,1.216254472732544,0.0314093679189682,0.0007985432748682797,0.0039927163161337376
2454489447950,1.3443442583084106,-9.75278091430664,1.2880805730819702,0.0351359061896801,0.005057440605014563,0.004791259765625
2454490685075,1.3539210557937622,-9.747992515563965,1.2677297592163086,0.0388624407351017,0.005057440605014563,0.0039927163161337376
2454491922187,1.3239935636520386,-9.762357711791992,1.2198457717895508,0.0340711809694767,0.0013309054775163531,-0.0002661811013240367
2454493159312,1.3108254671096802,-9.767146110534668,1.235408067703247,0.0324740931391716,0.0029279920272529125,0.0066545275039970875
2454494396450,1.3742717504501343,-9.738415718078613,1.259350061416626,0.0271504707634449,0.0018632676219567657,0.007985432632267475
2454495633537,1.3682862520217896,-9.757569313049316,1.2294225692749023,0.0306108258664608,-0.0015970865497365594,0.008783976547420025
2454496870675,1.358709454536438,-9.792284965515137,1.256955862045288,0.0362006276845932,0.0039927163161337376,0.0071868896484375
2454498107800,1.358709454536438,-9.787496566772461,1.2808979749679565,0.03087700717151165,0.0031941730994731188,0.00692070834338665
2454499344900,1.3395558595657349,-9.789891242980957,1.2485761642456055,0.0330064557492733,0.0026618109550327063,0.0090501569211483
2454500582025,1.3718775510787964,-9.795876502990723,1.2820950746536255,0.033538818359375,0.0007985432748682797,0.0018632676219567657
2454501819137,1.359906554222107,-9.799468040466309,1.2533645629882812,0.0343373604118824,0.00452507846057415,0.007453070487827063
2454503056262,1.3275848627090454,-9.822212219238281,1.2485761642456055,0.0306108258664608,0.013042873702943325,0.005589802749454975
2454504293387,1.358709454536438,-9.838972091674805,1.2653355598449707,0.0343373604118824,0.0063883461989462376,0.01117960549890995
2454505530500,1.3491326570510864,-9.823410034179688,1.2246341705322266,0.0292799212038517,0.0039927163161337376,0.008783976547420025
2454506767637,1.3551181554794312,-9.791088104248047,1.2330138683319092,0.0263519287109375,0.005057440605014563,0.004791259765625
2454508004737,1.3611036539077759,-9.803058624267578,1.2401964664459229,0.0276828333735466,0.0026618109550327063,0.004791259765625
2454509241862,1.3515268564224243,-9.77791976928711,1.2557587623596191,0.02848137728869915,0.00452507846057415,0.0090501569211483
2454510478962,1.3551181554794312,-9.81143856048584,1.260547161102295,0.02901373989880085,0.0053236219100654125,0.008517795242369175
2454511716100,1.3491326570510864,-9.791088104248047,1.3096283674240112,0.02608574740588665,0.0037265352439135313,0.0021294488105922937
2454512953212,1.3192051649093628,-9.797073364257812,1.2545616626739502,0.02502102218568325,-0.0002661811013240367,0.007453070487827063
2454514190350,1.357512354850769,-9.822212219238281,1.258152961730957,0.0196974016726017,0.00958251953125,0.00984870083630085
2454515427462,1.3479355573654175,-9.782708168029785,1.2713210582733154,0.02422248013317585,0.00692070834338665,0.0063883461989462376
2454516664575,1.3706804513931274,-9.81263542175293,1.2880805730819702,0.0271504707634449,0.0042588976211845875,0.003460354171693325
2454517901700,1.3694833517074585,-9.797073364257812,1.2868834733963013,0.0268842913210392,0.0026618109550327063,0.0071868896484375
2454519138812,1.316810965538025,-9.813833236694336,1.2677297592163086,0.0311431884765625,0.007985432632267475,0.005057440605014563
2454520375937,1.3467384576797485,-9.764751434326172,1.292868971824646,0.0247548408806324,0.003460354171693325,0.0031941730994731188
2454521613050,1.3263877630233765,-9.75517463684082,1.3012486696243286,0.023956298828125,0.0042588976211845875,0.00984870083630085
2454522850150,1.3946224451065063,-9.798270225524902,1.2761094570159912,0.02129448764026165,0.0071868896484375,0.00931633822619915
2454524087287,1.3658920526504517,-9.827000617980957,1.2509703636169434,0.0234239362180233,0.008517795242369175,0.01357523538172245
2454525324400,1.3778630495071411,-9.822212219238281,1.2653355598449707,0.02369011752307415,0.005589802749454975,0.007985432632267475
2454526561525,1.4018051624298096,-9.80904483795166,1.2617442607879639,0.02369011752307415,0.0010647244052961469,0.0114457868039608
2454527798637,1.3874398469924927,-9.813833236694336,1.238999366760254,0.0196974016726017,0.0021294488105922937,0.01410759799182415
2454529035762,1.334767460823059,-9.841365814208984,1.2485761642456055,0.02422248013317585,0.003460354171693325,0.0090501569211483
2454530272875,1.3287819623947144,-9.815030097961426,1.2485761642456055,0.0244886614382267,0.006122165359556675,0.012510511092841625
2454531510012,1.3862427473068237,-9.813833236694336,1.2521674633026123,0.01597086526453495,0.0018632676219567657,0.012510511092841625
2454532747125,1.3886369466781616,-9.819818496704102,1.2449848651885986,0.013042873702943325,0.004791259765625,0.005855984054505825
2454533984237,1.381454348564148,-9.817423820495605,1.2545616626739502,0.013309055007994175,0.0053236219100654125,0.0077192517928779125
2454535221362,1.3634978532791138,-9.859322547912598,1.2844892740249634,0.0162370465695858,0.0021294488105922937,0.01357523538172245
2454536458487,1.3623007535934448,-9.84615421295166,1.260547161102295,0.015438503585755825,0.0023956298828125,0.015172322280704975
2454537695600,1.3910311460494995,-9.835380554199219,1.292868971824646,0.0173017717897892,0.0031941730994731188,0.0181003138422966
2454538932712,1.3754688501358032,-9.836577415466309,1.2976573705673218,0.0162370465695858,0.0,0.013042873702943325
2454540169825,1.3646949529647827,-9.830592155456543,1.2653355598449707,0.01783413253724575,0.0021294488105922937,0.00984870083630085
2454541406962,1.3658920526504517,-9.819818496704102,1.2485761642456055,0.015172322280704975,0.010114881210029125,0.013309055007994175
2454542644062,1.382651448249817,-9.841365814208984,1.2689268589019775,0.012776692397892475,0.0037265352439135313,0.0173017717897892
2454543881200,1.335964560508728,-9.831789016723633,1.2880805730819702,0.004791259765625,0.0013309054775163531,0.0119781494140625
2454545118325,1.3778630495071411,-9.838972091674805,1.2773066759109497,0.0114457868039608,0.0021294488105922937,0.01171196810901165
2454546355425,1.3730746507644653,-9.852140426635742,1.2761094570159912,0.01171196810901165,0.00452507846057415,0.0157046839594841
2454547592550,1.3718775510787964,-9.817423820495605,1.3048399686813354,0.0053236219100654125,0.004791259765625,0.0157046839594841
2454548829662,1.4065935611724854,-9.84376049041748,1.2761094570159912,0.0063883461989462376,0.008783976547420025,0.01597086526453495
2454550066775,1.413776159286499,-9.824606895446777,1.3036428689956665,0.0071868896484375,0.0039927163161337376,0.01171196810901165
2454551303912,1.3682862520217896,-9.827000617980957,1.294066071510315,0.005057440605014563,-0.0015970865497365594,0.01171196810901165
2454552541025,1.3886369466781616,-9.81263542175293,1.2844892740249634,0.00452507846057415,-0.0005323622026480734,0.0157046839594841
2454553778137,1.3646949529647827,-9.819818496704102,1.2617442607879639,0.007985432632267475,0.0031941730994731188,0.01756795309484005
2454555015250,1.3898340463638306,-9.798270225524902,1.2773066759109497,0.010114881210029125,-0.0005323622026480734,0.015438503585755825
2454556252387,1.3982137441635132,-9.769539833068848,1.2342109680175781,0.0039927163161337376,0.004791259765625,0.014906140975654125
2454557489500,1.380257248878479,-9.813833236694336,1.314416766166687,0.0037265352439135313,0.0007985432748682797,0.013042873702943325
2454558726612,1.4185645580291748,-9.762357711791992,1.2820950746536255,0.0053236219100654125,-0.0007985432748682797,0.02129448764026165
2454559963737,1.4460978507995605,-9.798270225524902,1.235408067703247,0.008517795242369175,0.0039927163161337376,0.02022976242005825
2454561200850,1.357512354850769,-9.801861763000488,1.3215993642807007,0.0023956298828125,0.008517795242369175,0.01756795309484005
2454562437962,1.4293384552001953,-9.781511306762695,1.2976573705673218,0.0005323622026480734,0.0053236219100654125,0.01943122036755085
2454563675100,1.4053964614868164,-9.783905029296875,1.2832921743392944,0.0039927163161337376,-0.0002661811013240367,0.01783413253724575
2454564912212,1.3658920526504517,-9.81024169921875,1.2473790645599365,0.0015970865497365594,-0.005855984054505825,0.0196974016726017
2454566149350,1.3658920526504517,-9.768342971801758,1.2880805730819702,0.0029279920272529125,0.0005323622026480734,0.02315775491297245
2454567386450,1.3670891523361206,-9.746795654296875,1.2880805730819702,0.0066545275039970875,0.0,0.02076212503015995
2454568623575,1.381454348564148,-9.744400978088379,1.3180080652236938,0.0071868896484375,-0.005855984054505825,0.0173017717897892
2454569860687,1.3623007535934448,-9.733627319335938,1.2761094570159912,0.0053236219100654125,-0.0039927163161337376,0.01943122036755085
2454571097800,1.357512354850769,-9.743204116821289,1.2641384601593018,0.0053236219100654125,-0.0053236219100654125,0.02129448764026165
2454572334912,1.3611036539077759,-9.740809440612793,1.2832921743392944,0.003460354171693325,-0.0026618109550327063,0.0186326764523983
2454573572062,1.3922282457351685,-9.761160850524902,1.259350061416626,0.0053236219100654125,-0.003460354171693325,0.02129448764026165
2454574809162,1.3742717504501343,-9.733627319335938,1.259350061416626,0.004791259765625,-0.005057440605014563,0.0210283063352108
2454576046287,1.3682862520217896,-9.744400978088379,1.3072341680526733,0.0010647244052961469,-0.0023956298828125,0.02022976242005825
2454577283412,1.4065935611724854,-9.761160850524902,1.2737152576446533,0.0042588976211845875,-0.0031941730994731188,0.0167694091796875
2454578520525,1.3467384576797485,-9.747992515563965,1.315613865852356,0.0029279920272529125,-0.0053236219100654125,0.02369011752307415
2454579757650,1.3503297567367554,-9.75278091430664,1.316810965538025,0.0037265352439135313,-0.0015970865497365594,0.02262539230287075
2454580994787,1.3670891523361206,-9.725247383117676,1.2641384601593018,0.003460354171693325,-0.0026618109550327063,0.02182685025036335
2454582231887,1.3742717504501343,-9.757569313049316,1.2964602708816528,-0.0005323622026480734,-0.0042588976211845875,0.0204959437251091
2454583469000,1.3706804513931274,-9.731232643127441,1.2761094570159912,0.0002661811013240367,-0.005855984054505825,0.01783413253724575
2454584706125,1.3982137441635132,-9.758766174316406,1.2485761642456055,0.005589802749454975,-0.0031941730994731188,0.0247548408806324
2454585943250,1.3862427473068237,-9.771934509277344,1.2785037755966187,0.0010647244052961469,-0.005057440605014563,0.0258195661008358
2454587180375,1.3754688501358032,-9.774328231811523,1.2533645629882812,-0.0029279920272529125,-0.00692070834338665,0.02315775491297245
2454588417462,1.3527239561080933,-9.813833236694336,1.3000515699386597,-0.0023956298828125,-0.0066545275039970875,0.0228915736079216
2454589654587,1.3491326570510864,-9.762357711791992,1.256955862045288,-0.0031941730994731188,-0.008517795242369175,0.02182685025036335
2454590891725,1.3227964639663696,-9.759963035583496,1.260547161102295,0.0021294488105922937,-0.01463996060192585,0.0228915736079216
2454592128837,1.3395558595657349,-9.712079048156738,1.313219666481018,0.0037265352439135313,-0.00931633822619915,0.02369011752307415
2454593365937,1.3634978532791138,-9.744400978088379,1.2449848651885986,-0.0053236219100654125,-0.0037265352439135313,0.0228915736079216
2454594603075,1.3778630495071411,-9.77552604675293,1.2425906658172607,-0.0026618109550327063,-0.0071868896484375,0.02422248013317585
2454595840187,1.3718775510787964,-9.791088104248047,1.2868834733963013,-0.0042588976211845875,-0.00452507846057415,0.0252872034907341
2454597077325,1.3060370683670044,-9.7791166305542,1.2832921743392944,-0.0063883461989462376,-0.00452507846057415,0.0252872034907341
2454598314437,1.3287819623947144,-9.745597839355469,1.3024457693099976,-0.0026618109550327063,-0.006122165359556675,0.0276828333735466
2454599551562,1.357512354850769,-9.764751434326172,1.2497732639312744,-0.0029279920272529125,-0.0029279920272529125,0.0228915736079216
2454600788662,1.3778630495071411,-9.750386238098145,1.291671872138977,-0.0037265352439135313,-0.008783976547420025,0.0191650390625
2454602025787,1.3670891523361206,-9.745597839355469,1.2988544702529907,0.0,-0.008517795242369175,0.02076212503015995
2454603262900,1.3491326570510864,-9.744400978088379,1.2725181579589844,0.0015970865497365594,-0.008517795242369175,0.02502102218568325
2454604500025,1.381454348564148,-9.765949249267578,1.2832921743392944,-0.0037265352439135313,-0.0071868896484375,0.02182685025036335
2454605737150,1.358709454536438,-9.787496566772461,1.3263877630233765,-0.0053236219100654125,-0.010913425125181675,0.0210283063352108
2454606974275,1.4077906608581543,-9.734824180603027,1.313219666481018,-0.0010647244052961469,-0.0066545275039970875,0.023956298828125
2454608211387,1.3718775510787964,-9.744400978088379,1.2725181579589844,-0.00692070834338665,-0.0077192517928779125,0.0210283063352108
2454609448487,1.3838485479354858,-9.743204116821289,1.259350061416626,-0.008251613937318325,-0.00692070834338665,0.01703559048473835
2454610685625,1.3634978532791138,-9.697713851928711,1.3024457693099976,-0.0031941730994731188,-0.0066545275039970875,0.02076212503015995
2454611922737,1.381454348564148,-9.732430458068848,1.294066071510315,-0.0029279920272529125,-0.005589802749454975,0.02422248013317585
2454613159850,1.359906554222107,-9.715670585632324,1.2832921743392944,0.0,-0.007453070487827063,0.02422248013317585
2454614396987,1.3120225667953491,-9.731232643127441,1.2892776727676392,-0.0042588976211845875,-0.007985432632267475,0.02076212503015995
2454615634100,1.3431471586227417,-9.7420072555542,1.2413935661315918,-0.008517795242369175,-0.0066545275039970875,0.0234239362180233
2454616871212,1.3539210557937622,-9.710882186889648,1.2689268589019775,-0.0023956298828125,-0.0090501569211483,0.0234239362180233
2454618108325,1.3503297567367554,-9.732430458068848,1.2797008752822876,-0.0042588976211845875,-0.00984870083630085,0.02369011752307415
2454619345450,1.3311761617660522,-9.72285270690918,1.294066071510315,-0.004791259765625,-0.004791259765625,0.0186326764523983
2454620582575,1.3395558595657349,-9.740809440612793,1.2737152576446533,-0.00692070834338665,-0.006122165359556675,0.0186326764523983
2454621819700,1.3251906633377075,-9.786299705505371,1.2413935661315918,-0.008251613937318325,-0.00931633822619915,0.02369011752307415
2454623056812,1.334767460823059,-9.763554573059082,1.2449848651885986,-0.0090501569211483,-0.0114457868039608,0.023956298828125
2454624293937,1.3251906633377075,-9.744400978088379,1.217451572418213,-0.0063883461989462376,-0.010381062515079975,0.02129448764026165
2454625531050,1.3311761617660522,-9.713275909423828,1.2749123573303223,-0.0053236219100654125,-0.01117960549890995,0.0223592109978199
2454626768187,1.3084312677383423,-9.763554573059082,1.2545616626739502,-0.0063883461989462376,-0.008783976547420025,0.0234239362180233
2454628005300,1.3670891523361206,-9.745597839355469,1.2689268589019775,-0.0053236219100654125,-0.008517795242369175,0.0210283063352108
2454629242425,1.3922282457351685,-9.728838920593262,1.258152961730957,-0.00984870083630085,-0.00692070834338665,0.01889885775744915
2454630479537,1.3539210557937622,-9.734824180603027,1.2773066759109497,-0.010381062515079975,-0.0042588976211845875,0.01889885775744915
2454631716650,1.3850456476211548,-9.720458984375,1.292868971824646,-0.00958251953125,-0.008251613937318325,0.01889885775744915
2454632953762,1.3634978532791138,-9.746795654296875,1.2725181579589844,-0.005855984054505825,-0.008251613937318325,0.0215606689453125
2454634190887,1.3563152551651,-9.774328231811523,1.2473790645599365,-0.010114881210029125,-0.010913425125181675,0.0138414166867733
2454635428000,1.313219666481018,-9.736021041870117,1.2797008752822876,-0.00958251953125,-0.01171196810901165,0.01783413253724575
2454636665137,1.292868971824646,-9.768342971801758,1.2665326595306396,-0.0090501569211483,-0.0090501569211483,0.01783413253724575
2454637902250,1.3730746507644653,-9.757569313049316,1.2689268589019775,-0.01117960549890995,-0.0090501569211483,0.015438503585755825
2454639139375,1.3227964639663696,-9.765949249267578,1.2844892740249634,-0.00931633822619915,-0.007985432632267475,0.02022976242005825
2454640376487,1.2952631711959839,-9.745597839355469,1.2761094570159912,-0.01171196810901165,-0.0063883461989462376,0.01756795309484005
2454641613612,1.3754688501358032,-9.726444244384766,1.2677297592163086,-0.013309055007994175,-0.0026618109550327063,0.014373779296875
2454642850737,1.3299790620803833,-9.731232643127441,1.2820950746536255,-0.010381062515079975,-0.0053236219100654125,0.015172322280704975
2454644087837,1.3742717504501343,-9.757569313049316,1.2282254695892334,-0.01224433071911335,-0.00958251953125,0.02076212503015995
2454645324962,1.3192051649093628,-9.747992515563965,1.2449848651885986,-0.01171196810901165,-0.00958251953125,0.0167694091796875
2454646562100,1.3180080652236938,-9.728838920593262,1.2988544702529907,-0.012776692397892475,-0.008783976547420025,0.01783413253724575
2454647799212,1.3467384576797485,-9.726444244384766,1.2629413604736328,-0.01889885775744915,-0.005855984054505825,0.0167694091796875
2454649036312,1.314416766166687,-9.743204116821289,1.2054805755615234,-0.0181003138422966,-0.004791259765625,0.014906140975654125
2454650273450,1.3299790620803833,-9.72285270690918,1.1982979774475098,-0.013042873702943325,-0.010913425125181675,0.01889885775744915
2454651510562,1.3192051649093628,-9.72165584564209,1.2485761642456055,-0.012510511092841625,-0.013042873702943325,0.02022976242005825
2454652747687,1.291671872138977,-9.750386238098145,1.2808979749679565,-0.010913425125181675,-0.008783976547420025,0.0167694091796875
2454653984812,1.2988544702529907,-9.730035781860352,1.2461819648742676,-0.0157046839594841,-0.0063883461989462376,0.015172322280704975
2454655221925,1.2820950746536255,-9.761160850524902,1.215057373046875,-0.01357523538172245,-0.010114881210029125,0.01889885775744915
2454656459025,1.3335703611373901,-9.782708168029785,1.2186486721038818,-0.015438503585755825,-0.00958251953125,0.0173017717897892
2454657696150,1.3527239561080933,-9.770737648010254,1.237802267074585,-0.0138414166867733,-0.008517795242369175,0.01756795309484005
2454658933287,1.3192051649093628,-9.740809440612793,1.2677297592163086,-0.0119781494140625,-0.0090501569211483,0.01597086526453495
2454660170387,1.3299790620803833,-9.743204116821289,1.2653355598449707,-0.015172322280704975,-0.01117960549890995,0.0196974016726017
2454661407512,1.316810965538025,-9.71926212310791,1.2545616626739502,-0.013309055007994175,-0.00984870083630085,0.01756795309484005
2454662644625,1.3048399686813354,-9.72285270690918,1.2521674633026123,-0.012776692397892475,-0.0005323622026480734,0.014906140975654125
2454663881762,1.3108254671096802,-9.744400978088379,1.2198457717895508,-0.012510511092841625,-0.004791259765625,0.01357523538172245
2454665118862,1.3072341680526733,-9.757569313049316,1.2294225692749023,-0.01756795309484005,-0.010114881210029125,0.0173017717897892
2454666355975,1.3467384576797485,-9.715670585632324,1.2820950746536255,-0.01597086526453495,-0.0114457868039608,0.01703559048473835
2454667593112,1.3192051649093628,-9.734824180603027,1.2210428714752197,-0.01357523538172245,-0.0053236219100654125,0.01171196810901165
2454668830225,1.291671872138977,-9.730035781860352,1.2114660739898682,-0.0196974016726017,-0.0071868896484375,0.010381062515079975
2454670067350,1.3263877630233765,-9.730035781860352,1.2270283699035645,-0.0191650390625,-0.0039927163161337376,0.013042873702943325
2454671304475,1.3239935636520386,-9.744400978088379,1.2234370708465576,-0.01357523538172245,-0.0039927163161337376,0.012510511092841625
2454672541587,1.3251906633377075,-9.747992515563965,1.2844892740249634,-0.0181003138422966,-0.0066545275039970875,0.013309055007994175
2454673778700,1.3551181554794312,-9.763554573059082,1.216254472732544,-0.0292799212038517,0.0,0.007985432632267475
2454675015825,1.3227964639663696,-9.757569313049316,1.1994950771331787,-0.0196974016726017,-0.00452507846057415,0.007453070487827063
2454676252937,1.3335703611373901,-9.756372451782227,1.2234370708465576,-0.015172322280704975,-0.0077192517928779125,0.013309055007994175
2454677490062,1.3251906633377075,-9.702502250671387,1.2318167686462402,-0.01783413253724575,-0.0021294488105922937,0.014906140975654125
2454678727175,1.2952631711959839,-9.714473724365234,1.2641384601593018,-0.02129448764026165,-0.0023956298828125,0.015438503585755825
2454679964312,1.2976573705673218,-9.731232643127441,1.2641384601593018,-0.0181003138422966,-0.0029279920272529125,0.01171196810901165
2454681201437,1.3263877630233765,-9.708487510681152,1.2820950746536255,-0.01357523538172245,-0.00692070834338665,0.0114457868039608
2454682438537,1.3682862520217896,-9.712079048156738,1.260547161102295,-0.014373779296875,-0.00692070834338665,0.01463996060192585
2454683675662,1.2820950746536255,-9.736021041870117,1.236605167388916,-0.01756795309484005,-0.005057440605014563,0.0181003138422966
2454684912800,1.3096283674240112,-9.718064308166504,1.2832921743392944,-0.013042873702943325,-0.0042588976211845875,0.012776692397892475
2454686149900,1.3311761617660522,-9.704896926879883,1.256955862045288,-0.012510511092841625,-0.003460354171693325,0.008251613937318325
2454687387025,1.3024457693099976,-9.691728591918945,1.2557587623596191,-0.015438503585755825,-0.0037265352439135313,0.010913425125181675
2454688624125,1.3000515699386597,-9.709685325622559,1.2545616626739502,-0.014906140975654125,-0.0007985432748682797,0.013309055007994175
2454689861237,1.3251906633377075,-9.696516990661621,1.291671872138977,-0.0191650390625,-0.010114881210029125,0.010114881210029125
2454691098387,1.3239935636520386,-9.680954933166504,1.2737152576446533,-0.0167694091796875,-0.0037265352439135313,0.0077192517928779125
2454692335500,1.3072341680526733,-9.653421401977539,1.2545616626739502,-0.014906140975654125,-0.00692070834338665,0.010647243820130825
2454693572637,1.3323732614517212,-9.677363395690918,1.2653355598449707,-0.015438503585755825,-0.0042588976211845875,0.008251613937318325
2454694809737,1.3000515699386597,-9.716867446899414,1.2473790645599365,-0.01597086526453495,-0.0015970865497365594,0.012776692397892475
2454696046875,1.3060370683670044,-9.715670585632324,1.2832921743392944,-0.0186326764523983,-0.0023956298828125,0.0071868896484375
2454697283975,1.3108254671096802,-9.700108528137207,1.2342109680175781,-0.01836649514734745,-0.0010647244052961469,0.008517795242369175
2454698521075,1.316810965538025,-9.72285270690918,1.2342109680175781,-0.010913425125181675,0.0002661811013240367,0.005589802749454975
2454699758225,1.313219666481018,-9.641449928283691,1.2737152576446533,-0.012776692397892475,0.0,0.007985432632267475
2454700995337,1.3503297567367554,-9.696516990661621,1.237802267074585,-0.0162370465695858,-0.0010647244052961469,0.007985432632267475
2454702232462,1.3299790620803833,-9.710882186889648,1.2521674633026123,-0.015438503585755825,-0.0037265352439135313,0.00452507846057415
2454703469575,1.3694833517074585,-9.702502250671387,1.2689268589019775,-0.0173017717897892,-0.0053236219100654125,0.0023956298828125
2454704706700,1.3515268564224243,-9.712079048156738,1.2521674633026123,-0.015172322280704975,-0.0023956298828125,0.0077192517928779125
2454705943800,1.3754688501358032,-9.736021041870117,1.2030863761901855,-0.01756795309484005,0.0013309054775163531,0.008783976547420025
2454707180937,1.335964560508728,-9.701305389404297,1.2401964664459229,-0.01463996060192585,-0.0010647244052961469,0.012510511092841625
2454708418062,1.3275848627090454,-9.690531730651855,1.258152961730957,-0.013309055007994175,-0.0013309054775163531,0.014373779296875
2454709655187,1.3251906633377075,-9.68574333190918,1.2521674633026123,-0.01463996060192585,-0.007453070487827063,0.0042588976211845875
2454710892300,1.3227964639663696,-9.691728591918945,1.260547161102295,-0.014906140975654125,0.0031941730994731188,0.0053236219100654125
2454712129437,1.3120225667953491,-9.712079048156738,1.2665326595306396,-0.0167694091796875,0.003460354171693325,0.008783976547420025
2454713366537,1.3227964639663696,-9.68933391571045,1.2437877655029297,-0.0138414166867733,-0.0026618109550327063,0.008783976547420025
2454714603662,1.3395558595657349,-9.680954933166504,1.217451572418213,-0.010913425125181675,-0.00452507846057415,0.007453070487827063
2454715840787,1.3263877630233765,-9.700108528137207,1.2210428714752197,-0.01117960549890995,-0.0053236219100654125,0.012510511092841625
2454717077887,1.3239935636520386,-9.716867446899414,1.2449848651885986,-0.010381062515079975,-0.0002661811013240367,0.005855984054505825
2454718315000,1.3335703611373901,-9.713275909423828,1.2198457717895508,-0.006122165359556675,0.0026618109550327063,0.0053236219100654125
2454719552112,1.3120225667953491,-9.733627319335938,1.2306196689605713,-0.010381062515079975,-0.0015970865497365594,0.010114881210029125
2454720789250,1.3227964639663696,-9.710882186889648,1.260547161102295,-0.010114881210029125,0.0005323622026480734,0.01357523538172245
2454722026362,1.3395558595657349,-9.706093788146973,1.217451572418213,-0.005855984054505825,0.0029279920272529125,0.006122165359556675
2454723263500,1.3491326570510864,-9.694122314453125,1.2246341705322266,-0.01171196810901165,0.0063883461989462376,0.0066545275039970875
2454724500612,1.3395558595657349,-9.671378135681152,1.2653355598449707,-0.0157046839594841,0.0029279920272529125,0.010913425125181675
2454725737725,1.3407529592514038,-9.702502250671387,1.2533645629882812,-0.01117960549890995,0.0005323622026480734,0.008251613937318325
2454726974862,1.2988544702529907,-9.674968719482422,1.2533645629882812,-0.008251613937318325,0.0013309054775163531,0.013309055007994175
2454728211962,1.3096283674240112,-9.72165584564209,1.2653355598449707,-0.00984870083630085,0.0021294488105922937,0.007985432632267475
2454729449075,1.3479355573654175,-9.68694019317627,1.2102689743041992,-0.010114881210029125,0.003460354171693325,0.008783976547420025
2454730686200,1.338358759880066,-9.700108528137207,1.1982979774475098,-0.00984870083630085,0.0042588976211845875,0.005855984054505825
2454731923325,1.3563152551651,-9.691728591918945,1.2413935661315918,-0.0066545275039970875,0.005855984054505825,0.005589802749454975
2454733160462,1.3479355573654175,-9.696516990661621,1.2294225692749023,-0.00958251953125,0.0053236219100654125,0.006122165359556675
2454734397575,1.3024457693099976,-9.716867446899414,1.2342109680175781,-0.006122165359556675,0.007453070487827063,0.007985432632267475
2454735634675,1.3611036539077759,-9.695320129394531,1.2270283699035645,-0.005057440605014563,0.0053236219100654125,0.0066545275039970875
2454736871812,1.3108254671096802,-9.703699111938477,1.2318167686462402,-0.008251613937318325,0.0066545275039970875,0.0010647244052961469
2454738108925,1.3192051649093628,-9.697713851928711,1.2820950746536255,-0.00692070834338665,0.0031941730994731188,0.00692070834338665
2454739346050,1.3539210557937622,-9.68574333190918,1.2294225692749023,-0.0026618109550327063,0.0013309054775163531,0.0077192517928779125
2454740583175,1.3407529592514038,-9.692925453186035,1.2461819648742676,-0.0039927163161337376,0.00692070834338665,0.0021294488105922937
2454741820287,1.3431471586227417,-9.703699111938477,1.2437877655029297,-0.00452507846057415,0.00452507846057415,0.0077192517928779125
2454743057400,1.337161660194397,-9.673771858215332,1.2473790645599365,-0.0066545275039970875,0.003460354171693325,0.007453070487827063
2454744294512,1.338358759880066,-9.695320129394531,1.2282254695892334,-0.005589802749454975,0.0015970865497365594,0.0015970865497365594
2454745531650,1.3335703611373901,-9.680954933166504,1.2425906658172607,-0.0023956298828125,0.007985432632267475,0.0013309054775163531
2454746768750,1.3275848627090454,-9.6989107131958,1.2425906658172607,-0.0029279920272529125,0.005589802749454975,0.008251613937318325
2454748005875,1.358709454536438,-9.713275909423828,1.294066071510315,-0.0031941730994731188,0.0002661811013240367,0.010381062515079975
2454749243000,1.3311761617660522,-9.666589736938477,1.2629413604736328,-0.0010647244052961469,0.0026618109550327063,0.004791259765625
2454750480125,1.3766659498214722,-9.702502250671387,1.2282254695892334,-0.0029279920272529125,0.008517795242369175,0.005855984054505825
2454751717237,1.3623007535934448,-9.712079048156738,1.216254472732544,-0.0010647244052961469,0.010114881210029125,0.004791259765625
2454752954362,1.3646949529647827,-9.715670585632324,1.2401964664459229,0.0010647244052961469,0.0066545275039970875,0.0018632676219567657
2454754191487,1.335964560508728,-9.701305389404297,1.2198457717895508,-0.00692070834338665,0.00692070834338665,0.0042588976211845875
2454755428600,1.3395558595657349,-9.712079048156738,1.2318167686462402,-0.0021294488105922937,0.01224433071911335,0.0031941730994731188
2454756665737,1.2988544702529907,-9.672574996948242,1.2437877655029297,0.0005323622026480734,0.010913425125181675,0.0021294488105922937
2454757902837,1.358709454536438,-9.68694019317627,1.2473790645599365,0.0007985432748682797,0.00958251953125,0.0026618109550327063
2454759139962,1.3850456476211548,-9.708487510681152,1.2797008752822876,0.0002661811013240367,0.008251613937318325,0.0031941730994731188
2454760377087,1.338358759880066,-9.6989107131958,1.2497732639312744,0.0018632676219567657,0.0090501569211483,0.003460354171693325
2454761614200,1.3611036539077759,-9.726444244384766,1.2509703636169434,0.0,0.00692070834338665,0.0066545275039970875
2454762851325,1.3694833517074585,-9.727641105651855,1.2641384601593018,0.0018632676219567657,0.003460354171693325,0.0071868896484375
2454764088437,1.3766659498214722,-9.727641105651855,1.1875240802764893,0.0007985432748682797,0.0071868896484375,0.0031941730994731188
2454765325550,1.357512354850769,-9.732430458068848,1.2306196689605713,0.0018632676219567657,0.0090501569211483,0.005855984054505825
2454766562675,1.3395558595657349,-9.75158405303955,1.2306196689605713,0.004791259765625,0.01117960549890995,0.0066545275039970875
2454767799800,1.3718775510787964,-9.725247383117676,1.2222399711608887,0.0005323622026480734,0.0039927163161337376,0.007985432632267475
2454769036900,1.3718775510787964,-9.6989107131958,1.2509703636169434,0.0013309054775163531,0.005855984054505825,0.010114881210029125
2454770274050,1.3443442583084106,-9.667786598205566,1.2461819648742676,0.0039927163161337376,0.00692070834338665,0.005057440605014563
2454771511150,1.3862427473068237,-9.727641105651855,1.2473790645599365,0.0005323622026480734,0.010114881210029125,0.005589802749454975
2454772748262,1.3886369466781616,-9.733627319335938,1.2521674633026123,0.0015970865497365594,0.00931633822619915,0.006122165359556675
2454773985362,1.3706804513931274,-9.715670585632324,1.215057373046875,0.0021294488105922937,0.00984870083630085,0.007985432632267475
2454775222537,1.3443442583084106,-9.714473724365234,1.2330138683319092,0.003460354171693325,0.012776692397892475,0.0071868896484375
2454776459637,1.3335703611373901,-9.718064308166504,1.2509703636169434,0.0039927163161337376,0.0186326764523983,0.0066545275039970875
2454777696762,1.3515268564224243,-9.714473724365234,1.2641384601593018,0.0042588976211845875,0.0119781494140625,0.0071868896484375
2454778933875,1.3670891523361206,-9.71926212310791,1.2282254695892334,0.0021294488105922937,0.01357523538172245,-0.0002661811013240367
2454780170975,1.357512354850769,-9.75517463684082,1.2557587623596191,0.0005323622026480734,0.012510511092841625,0.0071868896484375
2454781408100,1.3646949529647827,-9.718064308166504,1.212663173675537,-0.0015970865497365594,0.006122165359556675,0.005855984054505825
2454782645225,1.3922282457351685,-9.702502250671387,1.2557587623596191,0.0015970865497365594,0.00931633822619915,0.00958251953125
2454783882350,1.3419500589370728,-9.732430458068848,1.2461819648742676,0.004791259765625,0.01650322787463665,0.005855984054505825
2454785119475,1.3670891523361206,-9.734824180603027,1.2785037755966187,0.005057440605014563,0.00958251953125,0.005589802749454975
2454786356587,1.3455413579940796,-9.710882186889648,1.2473790645599365,0.005057440605014563,0.00958251953125,0.008783976547420025
2454787593725,1.4065935611724854,-9.75517463684082,1.2473790645599365,0.0037265352439135313,0.0090501569211483,0.0039927163161337376
2454788830837,1.37906014919281,-9.745597839355469,1.2413935661315918,0.00452507846057415,0.01650322787463665,0.0071868896484375
2454790067950,1.3874398469924927,-9.71926212310791,1.258152961730957,0.004791259765625,0.0162370465695858,0.013042873702943325
2454791305062,1.3646949529647827,-9.757569313049316,1.2485761642456055,0.0005323622026480734,0.013042873702943325,0.008517795242369175
2454792542187,1.3551181554794312,-9.780314445495605,1.236605167388916,0.0,0.01171196810901165,0.0063883461989462376
2454793779312,1.3611036539077759,-9.745597839355469,1.2509703636169434,0.005589802749454975,0.010913425125181675,0.0007985432748682797
2454795016425,1.3467384576797485,-9.739612579345703,1.2090718746185303,0.0066545275039970875,0.010114881210029125,0.0053236219100654125
2454796253562,1.3611036539077759,-9.763554573059082,1.2485761642456055,0.00452507846057415,0.0077192517928779125,0.008517795242369175
2454797490662,1.3658920526504517,-9.75397777557373,1.2018892765045166,0.0021294488105922937,0.010381062515079975,0.007453070487827063
2454798727800,1.3994109630584717,-9.786299705505371,1.2533645629882812,0.005855984054505825,0.010381062515079975,0.01117960549890995
2454799964925,1.3718775510787964,-9.758766174316406,1.2641384601593018,0.003460354171693325,0.0066545275039970875,0.008783976547420025
2454801202037,1.3742717504501343,-9.7791166305542,1.2294225692749023,0.0010647244052961469,0.0090501569211483,0.005589802749454975
2454802439162,1.3910311460494995,-9.739612579345703,1.2533645629882812,0.0023956298828125,0.00931633822619915,0.008517795242369175
2454803676262,1.3670891523361206,-9.786299705505371,1.2521674633026123,0.0037265352439135313,0.004791259765625,0.007453070487827063
2454804913400,1.381454348564148,-9.77552604675293,1.2114660739898682,0.0039927163161337376,0.010913425125181675,0.00958251953125
2454806150512,1.3682862520217896,-9.734824180603027,1.2401964664459229,0.0031941730994731188,0.00984870083630085,0.013042873702943325
2454807387612,1.3611036539077759,-9.771934509277344,1.2258312702178955,0.0037265352439135313,0.006122165359556675,0.01117960549890995
2454808624762,1.3982137441635132,-9.77791976928711,1.2629413604736328,0.004791259765625,0.006122165359556675,0.00984870083630085
2454809861862,1.4209587574005127,-9.725247383117676,1.2473790645599365,0.0005323622026480734,0.005855984054505825,0.00984870083630085
2454811098987,1.3886369466781616,-9.75517463684082,1.2306196689605713,-0.0007985432748682797,0.00452507846057415,0.01357523538172245
2454812336125,1.3718775510787964,-9.782708168029785,1.2413935661315918,-0.0005323622026480734,0.005855984054505825,0.012510511092841625
2454813573237,1.416170358657837,-9.761160850524902,1.238999366760254,0.007453070487827063,0.008517795242369175,0.0157046839594841
2454814810337,1.4101848602294922,-9.749189376831055,1.2461819648742676,0.00452507846057415,0.004791259765625,0.0167694091796875
2454816047487,1.4113819599151611,-9.773131370544434,1.238999366760254,-0.0018632676219567657,0.01224433071911335,0.01357523538172245
2454817284600,1.4329297542572021,-9.794679641723633,1.2018892765045166,0.0,0.0090501569211483,0.0173017717897892
2454818521712,1.37906014919281,-9.804256439208984,1.217451572418213,-0.0013309054775163531,0.0063883461989462376,0.0138414166867733
2454819758850,1.37906014919281,-9.786299705505371,1.2114660739898682,-0.0031941730994731188,0.0031941730994731188,0.015438503585755825
2454820995950,1.3934253454208374,-9.773131370544434,1.2485761642456055,-0.0015970865497365594,0.0005323622026480734,0.01703559048473835
2454822233062,1.37906014919281,-9.803058624267578,1.215057373046875,-0.0029279920272529125,0.0021294488105922937,0.01703559048473835
2454823470200,1.381454348564148,-9.799468040466309,1.2234370708465576,-0.005855984054505825,0.00692070834338665,0.02022976242005825
2454824707325,1.4173674583435059,-9.77791976928711,1.2222399711608887,-0.0002661811013240367,0.0042588976211845875,0.0215606689453125
2454825944437,1.413776159286499,-9.773131370544434,1.238999366760254,0.0026618109550327063,0.0042588976211845875,0.01597086526453495
2454827181562,1.4006080627441406,-9.791088104248047,1.2198457717895508,0.0007985432748682797,0.0037265352439135313,0.0191650390625
2454828418662,1.3563152551651,-9.780314445495605,1.235408067703247,0.0007985432748682797,0.004791259765625,0.02022976242005825
2454829655800,1.37906014919281,-9.783905029296875,1.2090718746185303,-0.0021294488105922937,0.0077192517928779125,0.02262539230287075
2454830892912,1.3970166444778442,-9.81143856048584,1.2521674633026123,-0.0010647244052961469,0.0077192517928779125,0.01996358297765255
2454832130037,1.3922282457351685,-9.824606895446777,1.2078747749328613,-0.0023956298828125,0.004791259765625,0.01703559048473835
2454833367150,1.3718775510787964,-9.761160850524902,1.2425906658172607,0.0,0.0013309054775163531,0.0196974016726017
2454834604287,1.381454348564148,-9.782708168029785,1.1887211799621582,-0.0026618109550327063,0.0015970865497365594,0.0252872034907341
2454835841400,1.4101848602294922,-9.793481826782227,1.192312479019165,-0.0013309054775163531,-0.0026618109550327063,0.02315775491297245
2454837078525,1.4221558570861816,-9.800664901733398,1.215057373046875,-0.0018632676219567657,0.004791259765625,0.0181003138422966
2454838315625,1.3730746507644653,-9.787496566772461,1.2557587623596191,-0.00692070834338665,0.0023956298828125,0.0196974016726017
2454839552750,1.3898340463638306,-9.801861763000488,1.1959037780761719,-0.01171196810901165,-0.0021294488105922937,0.02661811001598835
2454840789875,1.3922282457351685,-9.78869342803955,1.2425906658172607,-0.008783976547420025,-0.005057440605014563,0.02661811001598835
2454842027000,1.3862427473068237,-9.789891242980957,1.2437877655029297,-0.0015970865497365594,0.0021294488105922937,0.0215606689453125
2454843264112,1.3335703611373901,-9.803058624267578,1.2270283699035645,-0.0018632676219567657,0.0015970865497365594,0.01943122036755085
2454844501250,1.358709454536438,-9.815030097961426,1.235408067703247,-0.0039927163161337376,-0.0013309054775163531,0.02369011752307415
2454845738362,1.3754688501358032,-9.806650161743164,1.1959037780761719,-0.006122165359556675,-0.0026618109550327063,0.02874755859375
2454846975475,1.4065935611724854,-9.829395294189453,1.2413935661315918,-0.006122165359556675,-0.0010647244052961469,0.02502102218568325
2454848212575,1.3527239561080933,-9.818621635437012,1.2401964664459229,-0.0063883461989462376,-0.0007985432748682797,0.023956298828125
2454849449725,1.3670891523361206,-9.770737648010254,1.213860273361206,-0.004791259765625,0.0,0.0258195661008358
2454850686850,1.357512354850769,-9.7791166305542,1.238999366760254,-0.005589802749454975,-0.005855984054505825,0.0271504707634449
2454851923950,1.3527239561080933,-9.767146110534668,1.2114660739898682,-0.008517795242369175,-0.010114881210029125,0.02848137728869915
2454853161100,1.380257248878479,-9.782708168029785,1.1863269805908203,-0.0063883461989462376,-0.0066545275039970875,0.0258195661008358
2454854398187,1.3431471586227417,-9.827000617980957,1.2102689743041992,-0.00692070834338665,-0.004791259765625,0.02608574740588665
2454855635325,1.381454348564148,-9.853337287902832,1.1971008777618408,-0.0114457868039608,-0.0010647244052961469,0.02608574740588665
2454856872412,1.3527239561080933,-9.819818496704102,1.212663173675537,-0.012510511092841625,-0.0039927163161337376,0.02901373989880085
2454858109562,1.381454348564148,-9.806650161743164,1.2246341705322266,-0.013309055007994175,-0.005057440605014563,0.0247548408806324
2454859346675,1.3611036539077759,-9.807847023010254,1.2234370708465576,-0.0138414166867733,-0.0029279920272529125,0.0322079136967659
2454860583800,1.381454348564148,-9.81263542175293,1.2437877655029297,-0.012776692397892475,-0.0053236219100654125,0.02874755859375
2454861820912,1.3646949529647827,-9.806650161743164,1.2318167686462402,-0.0114457868039608,-0.00692070834338665,0.02741665206849575
2454863058050,1.380257248878479,-9.86889934539795,1.192312479019165,-0.0138414166867733,-0.0066545275039970875,0.0316755510866642
2454864295150,1.3479355573654175,-9.804256439208984,1.2449848651885986,-0.01650322787463665,-0.00692070834338665,0.03087700717151165
2454865532275,1.4113819599151611,-9.77552604675293,1.1994950771331787,-0.01597086526453495,-0.00931633822619915,0.02981228195130825
2454866769412,1.3850456476211548,-9.770737648010254,1.2449848651885986,-0.012510511092841625,-0.007985432632267475,0.0330064557492733
2454868006525,1.3778630495071411,-9.774328231811523,1.2425906658172607,-0.014373779296875,-0.00958251953125,0.02848137728869915
2454869243625,1.3670891523361206,-9.780314445495605,1.2090718746185303,-0.008517795242369175,-0.010647243820130825,0.0338049978017807
2454870480762,1.3227964639663696,-9.773131370544434,1.1875240802764893,-0.014373779296875,-0.00931633822619915,0.0306108258664608
2454871717887,1.3611036539077759,-9.792284965515137,1.2042834758758545,-0.0173017717897892,-0.005855984054505825,0.0316755510866642
2454872955012,1.3730746507644653,-9.740809440612793,1.260547161102295,-0.01756795309484005,-0.008783976547420025,0.0340711809694767
2454874192125,1.3910311460494995,-9.785102844238281,1.193509578704834,-0.01650322787463665,-0.007985432632267475,0.0348697230219841
2454875429237,1.313219666481018,-9.786299705505371,1.2509703636169434,-0.02076212503015995,-0.008251613937318325,0.03087700717151165
2454876666387,1.381454348564148,-9.75158405303955,1.1887211799621582,-0.01756795309484005,-0.010381062515079975,0.0356682650744915
2454877903500,1.3886369466781616,-9.758766174316406,1.192312479019165,-0.013042873702943325,-0.00931633822619915,0.0330064557492733
2454879140587,1.3551181554794312,-9.761160850524902,1.192312479019165,-0.0162370465695858,-0.013309055007994175,0.0340711809694767
2454880377725,1.3563152551651,-9.77552604675293,1.191115379333496,-0.0223592109978199,-0.0119781494140625,0.0316755510866642
2454881614837,1.3431471586227417,-9.7791166305542,1.194706678390503,-0.01783413253724575,-0.00931633822619915,0.0372653529047966
2454882851962,1.3634978532791138,-9.733627319335938,1.2186486721038818,-0.0167694091796875,-0.00931633822619915,0.0359344482421875
2454884089075,1.3778630495071411,-9.724050521850586,1.1959037780761719,-0.01703559048473835,-0.012776692397892475,0.0359344482421875
2454885326212,1.3754688501358032,-9.783905029296875,1.2222399711608887,-0.0210283063352108,-0.010114881210029125,0.0396609827876091
2454886563312,1.3623007535934448,-9.72285270690918,1.192312479019165,-0.0223592109978199,-0.00931633822619915,0.038330078125
2454887800450,1.3263877630233765,-9.75517463684082,1.1791443824768066,-0.02076212503015995,-0.010913425125181675,0.0327402763068676
2454889037562,1.3527239561080933,-9.75278091430664,1.2102689743041992,-0.0191650390625,-0.012510511092841625,0.0322079136967659
2454890274687,1.335964560508728,-9.758766174316406,1.2401964664459229,-0.01889885775744915,-0.0114457868039608,0.0377977155148983
2454891511800,1.357512354850769,-9.750386238098145,1.193509578704834,-0.0186326764523983,-0.00958251953125,0.038330078125
2454892748925,1.3754688501358032,-9.773131370544434,1.2066776752471924,-0.0173017717897892,-0.01224433071911335,0.0449846051633358
2454893986037,1.3503297567367554,-9.757569313049316,1.1863269805908203,-0.0191650390625,-0.015172322280704975,0.0425889752805233
2454895223175,1.358709454536438,-9.77672290802002,1.217451572418213,-0.02369011752307415,-0.0138414166867733,0.0401933453977108
2454896460300,1.3623007535934448,-9.745597839355469,1.1563994884490967,-0.02422248013317585,-0.010381062515079975,0.0393948033452034
2454897697437,1.357512354850769,-9.75278091430664,1.2066776752471924,-0.02262539230287075,-0.010647243820130825,0.0369991734623909
2454898934512,1.338358759880066,-9.757569313049316,1.170764684677124,-0.01783413253724575,-0.014906140975654125,0.0391286201775074
2454900171650,1.316810965538025,-9.749189376831055,1.1971008777618408,-0.0181003138422966,-0.01117960549890995,0.0407257080078125
2454901408787,1.3311761617660522,-9.743204116821289,1.1971008777618408,-0.02129448764026165,-0.007453070487827063,0.0393948033452034
2454902645900,1.3479355573654175,-9.744400978088379,1.1647791862487793,-0.0228915736079216,-0.0063883461989462376,0.0417904332280159
2454903883012,1.3323732614517212,-9.749189376831055,1.2222399711608887,-0.0244886614382267,-0.010913425125181675,0.0338049978017807
2454905120137,1.3455413579940796,-9.75517463684082,1.2186486721038818,-0.02182685025036335,-0.015172322280704975,0.0372653529047966
2454906357250,1.3443442583084106,-9.781511306762695,1.1959037780761719,-0.0223592109978199,-0.0181003138422966,0.0417904332280159
2454907594362,1.3742717504501343,-9.733627319335938,1.2318167686462402,-0.0234239362180233,-0.01597086526453495,0.0420566126704216
2454908831500,1.3479355573654175,-9.774328231811523,1.1599907875061035,-0.02502102218568325,-0.01943122036755085,0.0415242500603199
2454910068587,1.3251906633377075,-9.733627319335938,1.1851298809051514,-0.01943122036755085,-0.01996358297765255,0.042855154722929
2454911305737,1.3239935636520386,-9.758766174316406,1.191115379333496,-0.0186326764523983,-0.0220930315554142,0.0439198799431324
2454912542837,1.3084312677383423,-9.747992515563965,1.2042834758758545,-0.0244886614382267,-0.01889885775744915,0.043121337890625
2454913779962,1.3204022645950317,-9.762357711791992,1.1803414821624756,-0.02901373989880085,-0.013042873702943325,0.0444522425532341
2454915017100,1.3323732614517212,-9.746795654296875,1.193509578704834,-0.0210283063352108,-0.012776692397892475,0.0404595248401165
2454916254200,1.335964560508728,-9.7420072555542,1.1228805780410767,-0.02182685025036335,-0.01597086526453495,0.0423227921128273
2454917491325,1.3180080652236938,-9.731232643127441,1.1851298809051514,-0.0228915736079216,-0.0191650390625,0.0420566126704216
2454918728437,1.3204022645950317,-9.707290649414062,1.1743559837341309,-0.0234239362180233,-0.01756795309484005,0.0425889752805233
2454919965587,1.3048399686813354,-9.731232643127441,1.2246341705322266,-0.0252872034907341,-0.01650322787463665,0.0449846051633358
2454921202675,1.3072341680526733,-9.756372451782227,1.191115379333496,-0.0215606689453125,-0.015172322280704975,0.0449846051633358
2454922439812,1.2976573705673218,-9.710882186889648,1.1767501831054688,-0.0268842913210392,-0.01410759799182415,0.0417904332280159
2454923676925,1.3227964639663696,-9.714473724365234,1.170764684677124,-0.0191650390625,-0.015172322280704975,0.0412580706179142
2454924914050,1.3048399686813354,-9.692925453186035,1.1767501831054688,-0.0252872034907341,-0.0167694091796875,0.0388624407351017
2454926151162,1.3072341680526733,-9.66539192199707,1.1779472827911377,-0.0258195661008358,-0.015172322280704975,0.0447184219956398
2454927388287,1.3096283674240112,-9.701305389404297,1.194706678390503,-0.0223592109978199,-0.01996358297765255,0.042855154722929
2454928625412,1.3407529592514038,-9.731232643127441,1.1480196714401245,-0.0258195661008358,-0.0173017717897892,0.0449846051633358
2454929862525,1.3215993642807007,-9.712079048156738,1.1779472827911377,-0.02502102218568325,-0.014906140975654125,0.0404595248401165
2454931099650,1.313219666481018,-9.739612579345703,1.1803414821624756,-0.02076212503015995,-0.01783413253724575,0.0369991734623909
2454932336775,1.316810965538025,-9.702502250671387,1.1851298809051514,-0.02182685025036335,-0.015438503585755825,0.0401933453977108
2454933573887,1.2761094570159912,-9.726444244384766,1.1875240802764893,-0.01836649514734745,-0.0173017717897892,0.0396609827876091
2454934811012,1.3323732614517212,-9.690531730651855,1.2042834758758545,-0.02076212503015995,-0.01783413253724575,0.0354020856320858
2454936048137,1.3072341680526733,-9.720458984375,1.1516109704971313,-0.0210283063352108,-0.012776692397892475,0.038063894957304
2454937285262,1.3611036539077759,-9.725247383117676,1.170764684677124,-0.01597086526453495,-0.013309055007994175,0.0346035435795784
2454938522375,1.2880805730819702,-9.712079048156738,1.1432312726974487,-0.02315775491297245,-0.015172322280704975,0.0369991734623909
2454939759500,1.290474772453308,-9.703699111938477,1.1192892789840698,-0.0204959437251091,-0.01889885775744915,0.0385962575674057
2454940996625,1.3084312677383423,-9.728838920593262,1.173158884048462,-0.0173017717897892,-0.01836649514734745,0.0388624407351017
2454942233737,1.3120225667953491,-9.7420072555542,1.137245774269104,-0.02182685025036335,-0.0167694091796875,0.0391286201775074
2454943470850,1.3036428689956665,-9.72165584564209,1.1456254720687866,-0.0186326764523983,-0.02076212503015995,0.0354020856320858
2454944707975,1.292868971824646,-9.724050521850586,1.1647791862487793,-0.01703559048473835,-0.01597086526453495,0.0356682650744915
2454945945087,1.3263877630233765,-9.724050521850586,1.1815385818481445,-0.0196974016726017,-0.0181003138422966,0.0362006276845932
2454947182212,1.2665326595306396,-9.72165584564209,1.2186486721038818,-0.013309055007994175,-0.0162370465695858,0.0401933453977108
2454948419350,1.236605167388916,-9.740809440612793,1.173158884048462,-0.01703559048473835,-0.014373779296875,0.0388624407351017
2454949656462,1.2689268589019775,-9.68933391571045,1.1815385818481445,-0.0173017717897892,-0.014906140975654125,0.0407257080078125
2454950893600,1.2964602708816528,-9.732430458068848,1.1959037780761719,-0.01463996060192585,-0.01463996060192585,0.0372653529047966
2454952130700,1.2749123573303223,-9.724050521850586,1.1671733856201172,-0.01943122036755085,-0.013309055007994175,0.0375315360724926
2454953367812,1.3215993642807007,-9.679757118225098,1.1671733856201172,-0.02076212503015995,-0.01597086526453495,0.038063894957304
2454954604937,1.314416766166687,-9.702502250671387,1.1791443824768066,-0.01756795309484005,-0.01836649514734745,0.0364668108522892
2454955842075,1.2737152576446533,-9.737218856811523,1.2090718746185303,-0.0181003138422966,-0.0119781494140625,0.0375315360724926
2454957079175,1.2785037755966187,-9.736021041870117,1.1971008777618408,-0.0173017717897892,-0.012510511092841625,0.0412580706179142
2454958316300,1.2785037755966187,-9.728838920593262,1.1994950771331787,-0.0186326764523983,-0.01410759799182415,0.038330078125
2454959553425,1.2844892740249634,-9.701305389404297,1.1468225717544556,-0.012510511092841625,-0.0157046839594841,0.0401933453977108
2454960790537,1.315613865852356,-9.720458984375,1.1887211799621582,-0.015172322280704975,-0.0162370465695858,0.038063894957304
2454962027662,1.3012486696243286,-9.72165584564209,1.2078747749328613,-0.0181003138422966,-0.00958251953125,0.038330078125
2454963264787,1.2976573705673218,-9.720458984375,1.2066776752471924,-0.0157046839594841,-0.00931633822619915,0.038063894957304
2454964501900,1.290474772453308,-9.720458984375,1.192312479019165,-0.0138414166867733,-0.0138414166867733,0.0399271659553051
2454965739025,1.2473790645599365,-9.707290649414062,1.1456254720687866,-0.013042873702943325,-0.013042873702943325,0.02981228195130825
2454966976137,1.2629413604736328,-9.68574333190918,1.1563994884490967,-0.0071868896484375,-0.0157046839594841,0.0300784632563591
2454968213250,1.3024457693099976,-9.695320129394531,1.1875240802764893,-0.014373779296875,-0.01597086526453495,0.0351359061896801
2454969450375,1.294066071510315,-9.713275909423828,1.1779472827911377,-0.01597086526453495,-0.012776692397892475,0.033538818359375
2454970687500,1.294066071510315,-9.727641105651855,1.2102689743041992,-0.0173017717897892,-0.012776692397892475,0.0356682650744915
2454971924637,1.3000515699386597,-9.695320129394531,1.1528080701828003,-0.010381062515079975,-0.015172322280704975,0.0295461006462574
2454973161750,1.2952631711959839,-9.696516990661621,1.1336544752120972,-0.015438503585755825,-0.013042873702943325,0.02874755859375
2454974398862,1.294066071510315,-9.6989107131958,1.171961784362793,-0.01889885775744915,-0.013309055007994175,0.0322079136967659
2454975635962,1.2629413604736328,-9.714473724365234,1.2186486721038818,-0.0114457868039608,-0.01889885775744915,0.03087700717151165
2454976873087,1.3180080652236938,-9.758766174316406,1.2114660739898682,-0.00984870083630085,-0.013042873702943325,0.0319417305290699
2454978110237,1.3192051649093628,-9.75397777557373,1.173158884048462,-0.013042873702943325,-0.01410759799182415,0.02901373989880085
2454979347350,1.2964602708816528,-9.700108528137207,1.1647791862487793,-0.0114457868039608,-0.013042873702943325,0.0282151959836483
2454980584487,1.3096283674240112,-9.75158405303955,1.1767501831054688,-0.01224433071911335,-0.008517795242369175,0.02874755859375
2454981821587,1.2653355598449707,-9.769539833068848,1.1659762859344482,-0.008517795242369175,-0.01171196810901165,0.02608574740588665
2454983058700,1.2761094570159912,-9.746795654296875,1.1755530834197998,-0.00692070834338665,-0.013042873702943325,0.0258195661008358
2454984295825,1.2808979749679565,-9.71926212310791,1.1875240802764893,-0.010381062515079975,-0.014906140975654125,0.0300784632563591
2454985532937,1.2844892740249634,-9.713275909423828,1.2078747749328613,-0.010381062515079975,-0.015172322280704975,0.0268842913210392
2454986770062,1.2749123573303223,-9.68574333190918,1.1779472827911377,-0.010114881210029125,-0.012776692397892475,0.02741665206849575
2454988007175,1.2401964664459229,-9.727641105651855,1.1791443824768066,-0.0119781494140625,-0.01224433071911335,0.0282151959836483
2454989244312,1.2425906658172607,-9.708487510681152,1.1456254720687866,-0.00984870083630085,-0.010913425125181675,0.0228915736079216
2454990481425,1.256955862045288,-9.743204116821289,1.169567584991455,-0.00692070834338665,-0.0138414166867733,0.0268842913210392
2454991718537,1.2749123573303223,-9.709685325622559,1.1971008777618408,-0.0037265352439135313,-0.0167694091796875,0.0292799212038517
2454992955662,1.3036428689956665,-9.66419506072998,1.1456254720687866,-0.0066545275039970875,-0.015172322280704975,0.0252872034907341
2454994192787,1.2988544702529907,-9.720458984375,1.1623849868774414,-0.010647243820130825,-0.015172322280704975,0.0223592109978199
2454995429925,1.260547161102295,-9.68574333190918,1.1839327812194824,-0.0071868896484375,-0.00958251953125,0.02315775491297245
2454996667025,1.2844892740249634,-9.690531730651855,1.1755530834197998,-0.0037265352439135313,-0.010381062515079975,0.0258195661008358
2454997904162,1.2749123573303223,-9.691728591918945,1.1659762859344482,-0.0053236219100654125,-0.008251613937318325,0.023956298828125
2454999141262,1.2808979749679565,-9.701305389404297,1.1623849868774414,-0.0026618109550327063,-0.00958251953125,0.0244886614382267
2455000378387,1.2761094570159912,-9.676166534423828,1.1480196714401245,-0.006122165359556675,-0.008783976547420025,0.01783413253724575
2455001615512,1.2689268589019775,-9.720458984375,1.1959037780761719,-0.0031941730994731188,-0.008517795242369175,0.02129448764026165
2455002852625,1.2306196689605713,-9.72165584564209,1.1216834783554077,-0.0015970865497365594,-0.007985432632267475,0.0247548408806324
2455004089737,1.2330138683319092,-9.737218856811523,1.1528080701828003,-0.0018632676219567657,-0.013042873702943325,0.0258195661008358
2455005326862,1.2785037755966187,-9.727641105651855,1.1875240802764893,-0.0005323622026480734,-0.014906140975654125,0.023956298828125
2455006563987,1.2425906658172607,-9.736021041870117,1.1408370733261108,-0.008517795242369175,-0.0138414166867733,0.02262539230287075
2455007801112,1.2617442607879639,-9.770737648010254,1.1468225717544556,-0.005057440605014563,-0.0090501569211483,0.01996358297765255
2455009038225,1.260547161102295,-9.72285270690918,1.1647791862487793,-0.0010647244052961469,-0.01357523538172245,0.02129448764026165
2455010275350,1.2509703636169434,-9.737218856811523,1.1336544752120972,-0.004791259765625,-0.0138414166867733,0.0191650390625
2455011512462,1.237802267074585,-9.764751434326172,1.1803414821624756,-0.007453070487827063,-0.01171196810901165,0.0215606689453125
2455012749575,1.2641384601593018,-9.75278091430664,1.1671733856201172,-0.006122165359556675,-0.00931633822619915,0.01996358297765255
2455013986712,1.2653355598449707,-9.7420072555542,1.139639973640442,0.0029279920272529125,-0.00984870083630085,0.01650322787463665
2455015223825,1.2198457717895508,-9.75158405303955,1.1623849868774414,-0.0007985432748682797,-0.00931633822619915,0.01836649514734745
2455016460950,1.235408067703247,-9.756372451782227,1.1456254720687866,-0.0039927163161337376,-0.008251613937318325,0.0181003138422966
2455017698062,1.2832921743392944,-9.767146110534668,1.1456254720687866,-0.0023956298828125,-0.0063883461989462376,0.01783413253724575
2455018935212,1.292868971824646,-9.737218856811523,1.1228805780410767,-0.0015970865497365594,-0.0090501569211483,0.02129448764026165
2455020172312,1.2533645629882812,-9.773131370544434,1.1492167711257935,-0.0031941730994731188,-0.010381062515079975,0.0167694091796875
2455021409437,1.2198457717895508,-9.744400978088379,1.1755530834197998,-0.0031941730994731188,-0.004791259765625,0.014373779296875
2455022646550,1.2306196689605713,-9.771934509277344,1.1492167711257935,-0.0018632676219567657,-0.0071868896484375,0.014906140975654125
2455023883675,1.2425906658172607,-9.781511306762695,1.1827356815338135,-0.0002661811013240367,-0.0077192517928779125,0.014906140975654125
2455025120800,1.260547161102295,-9.782708168029785,1.1563994884490967,-0.0023956298828125,-0.005057440605014563,0.01357523538172245
2455026357912,1.256955862045288,-9.781511306762695,1.1540051698684692,-0.0015970865497365594,-0.0026618109550327063,0.0090501569211483
2455027595037,1.260547161102295,-9.759963035583496,1.1540051698684692,-0.0007985432748682797,-0.0042588976211845875,0.007985432632267475
2455028832137,1.2880805730819702,-9.77672290802002,1.1516109704971313,-0.007453070487827063,-0.0063883461989462376,0.01224433071911335
2455030069275,1.2749123573303223,-9.77791976928711,1.1348515748977661,-0.0023956298828125,-0.0090501569211483,0.0138414166867733
2455031306400,1.2401964664459229,-9.758766174316406,1.1264718770980835,-0.0002661811013240367,-0.005057440605014563,0.0173017717897892
2455032543512,1.2425906658172607,-9.762357711791992,1.1348515748977661,-0.0023956298828125,-0.005057440605014563,0.01597086526453495
2455033780625,1.260547161102295,-9.770737648010254,1.0893617868423462,-0.005589802749454975,-0.0063883461989462376,0.01357523538172245
2455035017775,1.2437877655029297,-9.824606895446777,1.1204863786697388,-0.0114457868039608,-0.0021294488105922937,0.012510511092841625
2455036254875,1.235408067703247,-9.773131370544434,1.1288660764694214,-0.007985432632267475,-0.0018632676219567657,0.012510511092841625
2455037492012,1.260547161102295,-9.773131370544434,1.1276689767837524,-0.01117960549890995,-0.0039927163161337376,0.012510511092841625
2455038729112,1.2725181579589844,-9.785102844238281,1.1480196714401245,-0.0071868896484375,-0.0053236219100654125,0.00958251953125
2455039966250,1.235408067703247,-9.75278091430664,1.1432312726974487,-0.0007985432748682797,-0.0039927163161337376,0.010381062515079975
2455041203350,1.2413935661315918,-9.78869342803955,1.173158884048462,-0.00692070834338665,0.003460354171693325,0.0077192517928779125
2455042440462,1.2461819648742676,-9.806650161743164,1.1563994884490967,-0.0071868896484375,0.003460354171693325,-0.0007985432748682797
2455043677587,1.2509703636169434,-9.763554573059082,1.1420341730117798,-0.0031941730994731188,-0.0037265352439135313,0.005589802749454975
2455044914725,1.259350061416626,-9.734824180603027,1.1480196714401245,-0.005057440605014563,-0.0018632676219567657,0.005589802749454975
2455046151850,1.2952631711959839,-9.787496566772461,1.1611878871917725,-0.010114881210029125,-0.0013309054775163531,0.00958251953125
2455047388950,1.2413935661315918,-9.747992515563965,1.114500880241394,-0.00931633822619915,-0.0018632676219567657,0.00692070834338665
2455048626087,1.2509703636169434,-9.77791976928711,1.1288660764694214,-0.0023956298828125,0.0005323622026480734,0.005057440605014563
2455049863200,1.2342109680175781,-9.744400978088379,1.1073182821273804,-0.0077192517928779125,0.0002661811013240367,0.00958251953125
2455051100325,1.213860273361206,-9.71926212310791,1.1671733856201172,-0.0063883461989462376,-0.0002661811013240367,0.006122165359556675
2455052337437,1.2521674633026123,-9.706093788146973,1.1432312726974487,-0.0042588976211845875,-0.0039927163161337376,0.005855984054505825
2455053574575,1.1827356815338135,-9.740809440612793,1.1528080701828003,-0.008517795242369175,-0.003460354171693325,0.006122165359556675
2455054811700,1.2413935661315918,-9.709685325622559,1.1468225717544556,-0.004791259765625,-0.0037265352439135313,0.0090501569211483
2455056048812,1.2533645629882812,-9.714473724365234,1.1528080701828003,-0.004791259765625,0.0013309054775163531,0.0071868896484375
2455057285937,1.2533645629882812,-9.716867446899414,1.139639973640442,-0.005855984054505825,0.0015970865497365594,0.0063883461989462376
2455058523050,1.2485761642456055,-9.692925453186035,1.1623849868774414,-0.0005323622026480734,-0.0002661811013240367,0.0023956298828125
2455059760175,1.2437877655029297,-9.678560256958008,1.1504138708114624,-0.0026618109550327063,-0.0002661811013240367,0.0021294488105922937
2455060997300,1.215057373046875,-9.709685325622559,1.137245774269104,-0.008783976547420025,0.004791259765625,0.004791259765625
2455062234412,1.2318167686462402,-9.733627319335938,1.1468225717544556,-0.0042588976211845875,0.0023956298828125,0.010381062515079975
2455063471525,1.2629413604736328,-9.718064308166504,1.1336544752120972,-0.003460354171693325,0.0021294488105922937,0.005855984054505825
2455064708650,1.2198457717895508,-9.6989107131958,1.1755530834197998,0.0007985432748682797,-0.0002661811013240367,0.0063883461989462376
2455065945750,1.2294225692749023,-9.701305389404297,1.1755530834197998,0.0029279920272529125,0.0007985432748682797,0.007453070487827063
2455067182887,1.2198457717895508,-9.68574333190918,1.138442873954773,-0.0023956298828125,0.0018632676219567657,0.010114881210029125
2455068420012,1.2461819648742676,-9.72165584564209,1.1276689767837524,-0.0021294488105922937,0.0071868896484375,0.00692070834338665
2455069657150,1.258152961730957,-9.713275909423828,1.1575965881347656,-0.0031941730994731188,0.0053236219100654125,0.007985432632267475
2455070894250,1.2318167686462402,-9.734824180603027,1.1599907875061035,-0.003460354171693325,0.00452507846057415,0.00931633822619915
2455072131362,1.2509703636169434,-9.750386238098145,1.192312479019165,-0.005589802749454975,0.0066545275039970875,0.00692070834338665
2455073368500,1.2258312702178955,-9.749189376831055,1.1336544752120972,-0.0010647244052961469,0.0031941730994731188,0.0063883461989462376
2455074605612,1.2521674633026123,-9.756372451782227,1.1575965881347656,0.0005323622026480734,0.0039927163161337376,0.010381062515079975
2455075842750,1.2210428714752197,-9.774328231811523,1.1599907875061035,0.006122165359556675,0.005589802749454975,0.0090501569211483
2455077079875,1.237802267074585,-9.77791976928711,1.116895079612732,0.0,0.0063883461989462376,0.0071868896484375
2455078316975,1.2737152576446533,-9.793481826782227,1.137245774269104,-0.0007985432748682797,0.010913425125181675,0.00692070834338665
2455079554112,1.2521674633026123,-9.824606895446777,1.1587936878204346,-0.0031941730994731188,0.007985432632267475,0.005057440605014563
2455080791212,1.2653355598449707,-9.756372451782227,1.137245774269104,-0.0037265352439135313,0.0002661811013240367,0.00452507846057415
2455082028325,1.2425906658172607,-9.786299705505371,1.1516109704971313,-0.0066545275039970875,0.00692070834338665,0.00692070834338665
2455083265462,1.259350061416626,-9.768342971801758,1.1408370733261108,-0.0029279920272529125,0.0063883461989462376,0.0037265352439135313
2455084502587,1.238999366760254,-9.730035781860352,1.1336544752120972,-0.0026618109550327063,0.005057440605014563,0.0023956298828125
2455085739725,1.2557587623596191,-9.769539833068848,1.1599907875061035,-0.0021294488105922937,0.0010647244052961469,0.0053236219100654125
2455086976812,1.2509703636169434,-9.727641105651855,1.1336544752120972,0.0026618109550327063,0.0031941730994731188,0.006122165359556675
2455088213950,1.235408067703247,-9.731232643127441,1.1587936878204346,-0.00692070834338665,0.010647243820130825,0.0002661811013240367
2455089451062,1.2749123573303223,-9.762357711791992,1.137245774269104,-0.0071868896484375,0.0071868896484375,-0.0015970865497365594
2455090688187,1.2832921743392944,-9.761160850524902,1.1659762859344482,-0.0010647244052961469,0.00931633822619915,0.00452507846057415
2455091925300,1.2557587623596191,-9.767146110534668,1.1456254720687866,-0.0037265352439135313,0.00958251953125,0.0021294488105922937
2455093162425,1.216254472732544,-9.744400978088379,1.1755530834197998,-0.0042588976211845875,0.008783976547420025,-0.0010647244052961469
2455094399550,1.216254472732544,-9.746795654296875,1.170764684677124,-0.0037265352439135313,0.010381062515079975,-0.0007985432748682797
2455095636675,1.2653355598449707,-9.7420072555542,1.2198457717895508,-0.003460354171693325,0.00958251953125,0.0018632676219567657
2455096873800,1.2509703636169434,-9.77552604675293,1.1587936878204346,-0.007453070487827063,0.007453070487827063,0.0007985432748682797
2455098110937,1.2749123573303223,-9.758766174316406,1.1683704853057861,-0.006122165359556675,0.0063883461989462376,0.0063883461989462376
2455099348025,1.2449848651885986,-9.756372451782227,1.1480196714401245,-0.0042588976211845875,0.005855984054505825,0.0077192517928779125
2455100585137,1.2306196689605713,-9.75397777557373,1.1563994884490967,-0.0039927163161337376,0.0071868896484375,0.0
2455101822275,1.2306196689605713,-9.737218856811523,1.1635820865631104,-0.005057440605014563,0.008783976547420025,0.0005323622026480734
2455103059400,1.2557587623596191,-9.744400978088379,1.1109095811843872,-0.0026618109550327063,0.0114457868039608,0.0077192517928779125
2455104296525,1.2629413604736328,-9.758766174316406,1.1288660764694214,-0.0053236219100654125,0.010381062515079975,0.0013309054775163531
2455105533650,1.2473790645599365,-9.761160850524902,1.1288660764694214,-0.0066545275039970875,0.00931633822619915,0.0013309054775163531
2455106770762,1.2545616626739502,-9.758766174316406,1.1599907875061035,-0.007985432632267475,0.00931633822619915,0.005855984054505825
2455108007887,1.2306196689605713,-9.75278091430664,1.1563994884490967,-0.00692070834338665,0.00984870083630085,0.0037265352439135313
2455109245012,1.2701239585876465,-9.739612579345703,1.1659762859344482,-0.0042588976211845875,0.013042873702943325,-0.0002661811013240367
2455110482112,1.2449848651885986,-9.768342971801758,1.1504138708114624,-0.0039927163161337376,0.012510511092841625,-0.0023956298828125
2455111719250,1.256955862045288,-9.763554573059082,1.1540051698684692,-0.0029279920272529125,0.004791259765625,-0.0021294488105922937
2455112956362,1.2473790645599365,-9.77791976928711,1.1552022695541382,-0.0031941730994731188,0.013042873702943325,-0.0018632676219567657
2455114193475,1.2449848651885986,-9.75397777557373,1.1803414821624756,-0.0071868896484375,0.0071868896484375,-0.0026618109550327063
2455115430600,1.2246341705322266,-9.762357711791992,1.1815385818481445,-0.007453070487827063,0.013042873702943325,0.0002661811013240367
2455116667712,1.2557587623596191,-9.783905029296875,1.1587936878204346,-0.00452507846057415,0.015172322280704975,0.0005323622026480734
2455117904850,1.2294225692749023,-9.803058624267578,1.1468225717544556,-0.005855984054505825,0.01357523538172245,-0.0018632676219567657
2455119141962,1.2533645629882812,-9.773131370544434,1.1432312726974487,-0.0031941730994731188,0.01650322787463665,0.0021294488105922937
2455120379087,1.2629413604736328,-9.794679641723633,1.1779472827911377,-0.005057440605014563,0.013042873702943325,0.0026618109550327063
2455121616212,1.2725181579589844,-9.80904483795166,1.1552022695541382,-0.00931633822619915,0.0114457868039608,-0.0010647244052961469
2455122853325,1.2497732639312744,-9.81263542175293,1.1671733856201172,-0.00931633822619915,0.01996358297765255,-0.0042588976211845875
2455124090450,1.2677297592163086,-9.806650161743164,1.1528080701828003,-0.010114881210029125,0.0162370465695858,-0.0063883461989462376
2455125327575,1.2701239585876465,-9.806650161743164,1.1252747774124146,-0.00931633822619915,0.013042873702943325,-0.0026618109550327063
2455126564700,1.2437877655029297,-9.795876502990723,1.137245774269104,-0.007453070487827063,0.01224433071911335,-0.0042588976211845875
2455127801812,1.2425906658172607,-9.804256439208984,1.1336544752120972,-0.0007985432748682797,0.012510511092841625,-0.0010647244052961469
2455129038937,1.2234370708465576,-9.781511306762695,1.1492167711257935,-0.005855984054505825,0.0223592109978199,-0.0023956298828125
2455130276050,1.2617442607879639,-9.80904483795166,1.0977414846420288,-0.00958251953125,0.0181003138422966,-0.0018632676219567657
2455131513175,1.2701239585876465,-9.798270225524902,1.1240776777267456,-0.0090501569211483,0.0173017717897892,-0.00958251953125
2455132750300,1.2545616626739502,-9.78869342803955,1.1240776777267456,-0.0138414166867733,0.01597086526453495,-0.0063883461989462376
2455133987400,1.2737152576446533,-9.77672290802002,1.1049240827560425,-0.013309055007994175,0.01889885775744915,-0.007985432632267475
2455135224537,1.238999366760254,-9.789891242980957,1.1575965881347656,-0.010913425125181675,0.02262539230287075,-0.007985432632267475
2455136461662,1.2749123573303223,-9.828198432922363,1.1516109704971313,-0.013042873702943325,0.01996358297765255,-0.0053236219100654125
2455137698787,1.2509703636169434,-9.785102844238281,1.1659762859344482,-0.01357523538172245,0.0210283063352108,-0.0053236219100654125
2455138935912,1.2617442607879639,-9.763554573059082,1.1348515748977661,-0.0114457868039608,0.01783413253724575,-0.004791259765625
2455140173012,1.2617442607879639,-9.733627319335938,1.1288660764694214,-0.014906140975654125,0.0247548408806324,-0.00692070834338665
2455141410162,1.2653355598449707,-9.817423820495605,1.115697979927063,-0.0138414166867733,0.02182685025036335,-0.00931633822619915
2455142647275,1.260547161102295,-9.794679641723633,1.1563994884490967,-0.0191650390625,0.01756795309484005,-0.0071868896484375
2455143884375,1.2952631711959839,-9.77552604675293,1.170764684677124,-0.01889885775744915,0.01943122036755085,-0.00958251953125
2455145121500,1.2725181579589844,-9.782708168029785,1.0642226934432983,-0.014373779296875,0.02129448764026165,-0.012510511092841625
2455146358600,1.294066071510315,-9.806650161743164,1.1659762859344482,-0.014373779296875,0.01943122036755085,-0.0119781494140625
2455147595750,1.2318167686462402,-9.792284965515137,1.1480196714401245,-0.0157046839594841,0.0181003138422966,-0.01357523538172245
2455148832875,1.2677297592163086,-9.786299705505371,1.1456254720687866,-0.0196974016726017,0.0191650390625,-0.010381062515079975
2455150069987,1.2425906658172607,-9.765949249267578,1.1348515748977661,-0.00984870083630085,0.02315775491297245,-0.01171196810901165
2455151307100,1.2449848651885986,-9.764751434326172,1.2078747749328613,-0.012776692397892475,0.0215606689453125,-0.012510511092841625
2455152544225,1.2713210582733154,-9.780314445495605,1.1743559837341309,-0.01463996060192585,0.02369011752307415,-0.010913425125181675
2455153781362,1.3084312677383423,-9.81263542175293,1.1815385818481445,-0.02076212503015995,0.02422248013317585,-0.0114457868039608
2455155018475,1.2497732639312744,-9.780314445495605,1.169567584991455,-0.0210283063352108,0.02182685025036335,-0.01836649514734745
2455156255587,1.2868834733963013,-9.774328231811523,1.1336544752120972,-0.01410759799182415,0.01996358297765255,-0.01224433071911335
2455157492712,1.3096283674240112,-9.761160850524902,1.1815385818481445,-0.015172322280704975,0.0210283063352108,-0.00931633822619915
2455158729837,1.291671872138977,-9.789891242980957,1.1599907875061035,-0.0196974016726017,0.02422248013317585,-0.015438503585755825
2455159966962,1.2689268589019775,-9.743204116821289,1.1563994884490967,-0.0157046839594841,0.02369011752307415,-0.01783413253724575
2455161204087,1.3000515699386597,-9.709685325622559,1.1516109704971313,-0.01703559048473835,0.02741665206849575,-0.01756795309484005
2455162441212,1.2892776727676392,-9.745597839355469,1.1540051698684692,-0.01783413253724575,0.02262539230287075,-0.01463996060192585
2455163678325,1.313219666481018,-9.761160850524902,1.1540051698684692,-0.01650322787463665,0.02182685025036335,-0.01410759799182415
2455164915437,1.313219666481018,-9.715670585632324,1.1671733856201172,-0.01943122036755085,0.0196974016726017,-0.0162370465695858
2455166152537,1.294066071510315,-9.744400978088379,1.1683704853057861,-0.01463996060192585,0.02022976242005825,-0.01703559048473835
2455167389687,1.2964602708816528,-9.774328231811523,1.1815385818481445,-0.01224433071911335,0.0204959437251091,-0.014906140975654125
2455168626812,1.2737152576446533,-9.71926212310791,1.1815385818481445,-0.012776692397892475,0.0247548408806324,-0.008783976547420025
2455169863937,1.2725181579589844,-9.712079048156738,1.1587936878204346,-0.014373779296875,0.02555338479578495,-0.00984870083630085
2455171101062,1.3108254671096802,-9.75517463684082,1.1779472827911377,-0.0119781494140625,0.02369011752307415,-0.013042873702943325
2455172338162,1.3060370683670044,-9.787496566772461,1.1480196714401245,-0.01171196810901165,0.0234239362180233,-0.0114457868039608
2455173575287,1.335964560508728,-9.743204116821289,1.1468225717544556,-0.0138414166867733,0.0276828333735466,-0.01117960549890995
2455174812425,1.3455413579940796,-9.727641105651855,1.1540051698684692,-0.01650322787463665,0.023956298828125,-0.012510511092841625
2455176049525,1.3108254671096802,-9.713275909423828,1.1192892789840698,-0.01357523538172245,0.02262539230287075,-0.010381062515079975
2455177286662,1.2832921743392944,-9.733627319335938,1.1540051698684692,-0.0077192517928779125,0.0215606689453125,-0.0071868896484375
2455178523775,1.315613865852356,-9.7420072555542,1.1827356815338135,-0.0138414166867733,0.02794901467859745,-0.008517795242369175
2455179760900,1.2892776727676392,-9.747992515563965,1.138442873954773,-0.015438503585755825,0.02608574740588665,-0.00958251953125
2455180998025,1.3563152551651,-9.71926212310791,1.170764684677124,-0.0114457868039608,0.023956298828125,-0.013309055007994175
2455182235150,1.3323732614517212,-9.716867446899414,1.1623849868774414,-0.01357523538172245,0.023956298828125,-0.0077192517928779125
2455183472275,1.3204022645950317,-9.72285270690918,1.137245774269104,-0.014373779296875,0.0268842913210392,-0.0114457868039608
2455184709375,1.294066071510315,-9.734824180603027,1.1228805780410767,-0.0077192517928779125,0.02901373989880085,-0.01117960549890995
2455185946487,1.338358759880066,-9.71926212310791,1.1192892789840698,-0.0066545275039970875,0.02262539230287075,-0.01117960549890995
2455187183637,1.3634978532791138,-9.75517463684082,1.1587936878204346,-0.007985432632267475,0.02422248013317585,-0.008251613937318325
2455188420737,1.3192051649093628,-9.709685325622559,1.116895079612732,-0.0013309054775163531,0.0234239362180233,-0.007985432632267475
2455189657862,1.3084312677383423,-9.739612579345703,1.1779472827911377,-0.0071868896484375,0.02502102218568325,-0.0090501569211483
2455190894987,1.338358759880066,-9.72285270690918,1.1587936878204346,-0.0090501569211483,0.02848137728869915,-0.005589802749454975
2455192132100,1.3527239561080933,-9.727641105651855,1.094150185585022,-0.00984870083630085,0.02741665206849575,-0.0066545275039970875
2455193369237,1.3611036539077759,-9.727641105651855,1.1492167711257935,-0.008783976547420025,0.02422248013317585,-0.00452507846057415
2455194606337,1.382651448249817,-9.700108528137207,1.1432312726974487,-0.007453070487827063,0.02022976242005825,-0.0037265352439135313
2455195843462,1.3431471586227417,-9.692925453186035,1.169567584991455,-0.005057440605014563,0.0204959437251091,0.003460354171693325
2455197080600,1.3335703611373901,-9.75278091430664,1.171961784362793,-0.0071868896484375,0.02422248013317585,0.0015970865497365594
2455198317700,1.3012486696243286,-9.744400978088379,1.1324573755264282,-0.00692070834338665,0.0252872034907341,-0.005855984054505825
2455199554837,1.3395558595657349,-9.738415718078613,1.1061211824417114,-0.005589802749454975,0.02741665206849575,-0.0026618109550327063
2455200791950,1.3443442583084106,-9.75158405303955,1.1121066808700562,-0.0066545275039970875,0.02555338479578495,-0.0002661811013240367
2455202029075,1.3180080652236938,-9.724050521850586,1.116895079612732,-0.0042588976211845875,0.0204959437251091,-0.0007985432748682797
2455203266200,1.358709454536438,-9.738415718078613,1.1121066808700562,0.0010647244052961469,0.0223592109978199,0.0010647244052961469
2455204503325,1.3539210557937622,-9.770737648010254,1.1623849868774414,-0.0015970865497365594,0.0220930315554142,0.0018632676219567657
2455205740450,1.313219666481018,-9.740809440612793,1.092953085899353,-0.00452507846057415,0.02422248013317585,0.0042588976211845875
2455206977575,1.359906554222107,-9.765949249267578,1.1025298833847046,-0.0042588976211845875,0.0247548408806324,0.00931633822619915
2455208214675,1.3467384576797485,-9.75517463684082,1.1240776777267456,-0.005855984054505825,0.0204959437251091,0.0053236219100654125
2455209451812,1.3467384576797485,-9.712079048156738,1.1671733856201172,-0.0037265352439135313,0.0258195661008358,0.0063883461989462376
2455210688925,1.3539210557937622,-9.740809440612793,1.116895079612732,0.0029279920272529125,0.02129448764026165,0.00692070834338665
2455211926037,1.335964560508728,-9.757569313049316,1.1252747774124146,-0.003460354171693325,0.0186326764523983,0.00958251953125
2455213163150,1.3898340463638306,-9.75517463684082,1.1468225717544556,-0.0013309054775163531,0.01783413253724575,0.01117960549890995
2455214400275,1.3611036539077759,-9.749189376831055,1.1779472827911377,-0.0026618109550327063,0.013309055007994175,0.006122165359556675
2455215637375,1.4089877605438232,-9.728838920593262,1.1336544752120972,-0.0015970865497365594,0.02076212503015995,0.008517795242369175
2455216874525,1.358709454536438,-9.759963035583496,1.1599907875061035,-0.003460354171693325,0.02262539230287075,0.005057440605014563
2455218111650,1.3431471586227417,-9.732430458068848,1.1683704853057861,-0.0031941730994731188,0.01943122036755085,0.008783976547420025
2455219348787,1.3778630495071411,-9.771934509277344,1.1516109704971313,-0.0018632676219567657,0.0191650390625,0.012510511092841625
2455220585900,1.3766659498214722,-9.768342971801758,1.139639973640442,-0.0002661811013240367,0.0204959437251091,0.00984870083630085
2455221823012,1.3479355573654175,-9.72285270690918,1.191115379333496,0.0037265352439135313,0.02422248013317585,0.008783976547420025
2455223060137,1.3395558595657349,-9.750386238098145,1.1480196714401245,0.0026618109550327063,0.0220930315554142,0.0119781494140625
2455224297250,1.3910311460494995,-9.747992515563965,1.1635820865631104,-0.003460354171693325,0.01943122036755085,0.0138414166867733
2455225534362,1.3551181554794312,-9.745597839355469,1.1647791862487793,-0.0029279920272529125,0.01650322787463665,0.012776692397892475
2455226771487,1.3886369466781616,-9.743204116821289,1.1647791862487793,0.0007985432748682797,0.0181003138422966,0.013309055007994175
2455228008625,1.381454348564148,-9.770737648010254,1.139639973640442,0.0,0.01836649514734745,0.01117960549890995
2455229245750,1.3958195447921753,-9.758766174316406,1.169567584991455,0.0013309054775163531,0.0167694091796875,0.014906140975654125
2455230482862,1.3766659498214722,-9.736021041870117,1.136048674583435,0.005057440605014563,0.014373779296875,0.01703559048473835
2455231719987,1.3766659498214722,-9.744400978088379,1.1312602758407593,0.0023956298828125,0.013309055007994175,0.014906140975654125
2455232957100,1.3563152551651,-9.767146110534668,1.139639973640442,0.0029279920272529125,0.0114457868039608,0.0196974016726017
2455234194212,1.3922282457351685,-9.774328231811523,1.1492167711257935,0.0010647244052961469,0.010114881210029125,0.01996358297765255
2455235431325,1.3754688501358032,-9.759963035583496,1.1348515748977661,-0.0010647244052961469,0.010381062515079975,0.01943122036755085
2455236668450,1.3682862520217896,-9.746795654296875,1.1420341730117798,-0.0021294488105922937,0.014906140975654125,0.02129448764026165
2455237905562,1.3479355573654175,-9.771934509277344,1.1444283723831177,-0.0026618109550327063,0.012510511092841625,0.01943122036755085
2455239142700,1.4006080627441406,-9.724050521850586,1.1420341730117798,0.0,0.010381062515079975,0.02076212503015995
2455240379825,1.358709454536438,-9.737218856811523,1.1121066808700562,0.0002661811013240367,0.0138414166867733,0.0186326764523983
2455241616937,1.3431471586227417,-9.762357711791992,1.1336544752120972,-0.0039927163161337376,0.00931633822619915,0.0223592109978199
2455242854062,1.3994109630584717,-9.734824180603027,1.1456254720687866,-0.0005323622026480734,0.005589802749454975,0.01996358297765255
2455244091187,1.3682862520217896,-9.701305389404297,1.1444283723831177,-0.0002661811013240367,0.007985432632267475,0.02076212503015995
2455245328300,1.3299790620803833,-9.745597839355469,1.2054805755615234,-0.0015970865497365594,0.008517795242369175,0.02661811001598835
2455246565412,1.37906014919281,-9.746795654296875,1.1587936878204346,-0.0031941730994731188,0.005057440605014563,0.0271504707634449
2455247802537,1.3946224451065063,-9.761160850524902,1.138442873954773,-0.0013309054775163531,0.006122165359556675,0.02369011752307415
2455249039662,1.3838485479354858,-9.75158405303955,1.136048674583435,0.0021294488105922937,0.0063883461989462376,0.0247548408806324
2455250276787,1.3670891523361206,-9.743204116821289,1.1348515748977661,0.0007985432748682797,0.00452507846057415,0.02901373989880085
2455251513925,1.3766659498214722,-9.690531730651855,1.1994950771331787,0.0007985432748682797,0.005855984054505825,0.033272635191679
2455252751037,1.3946224451065063,-9.758766174316406,1.1671733856201172,-0.0021294488105922937,0.005057440605014563,0.02741665206849575
2455253988137,1.4257471561431885,-9.75517463684082,1.170764684677124,-0.00452507846057415,-0.0005323622026480734,0.02794901467859745
2455255225275,1.41257905960083,-9.75158405303955,1.1552022695541382,-0.0002661811013240367,-0.0023956298828125,0.0330064557492733
2455256462387,1.3754688501358032,-9.718064308166504,1.1288660764694214,-0.00692070834338665,0.0031941730994731188,0.0314093679189682
2455257699525,1.3730746507644653,-9.745597839355469,1.192312479019165,-0.0037265352439135313,0.0026618109550327063,0.03087700717151165
2455258936637,1.380257248878479,-9.730035781860352,1.1587936878204346,-0.0018632676219567657,0.0018632676219567657,0.0327402763068676
2455260173750,1.3850456476211548,-9.739612579345703,1.1803414821624756,-0.0037265352439135313,0.0007985432748682797,0.0324740931391716
2455261410875,1.3862427473068237,-9.749189376831055,1.169567584991455,-0.00931633822619915,-0.0015970865497365594,0.0295461006462574
2455262647987,1.3994109630584717,-9.747992515563965,1.1959037780761719,-0.0026618109550327063,0.0026618109550327063,0.0356682650744915
2455263885137,1.3658920526504517,-9.759963035583496,1.1480196714401245,-0.0015970865497365594,-0.0007985432748682797,0.0367329902946949
2455265122225,1.3886369466781616,-9.745597839355469,1.1444283723831177,-0.0031941730994731188,-0.0066545275039970875,0.0322079136967659
2455266359362,1.3742717504501343,-9.75397777557373,1.192312479019165,-0.0066545275039970875,-0.00692070834338665,0.0319417305290699
2455267596487,1.3730746507644653,-9.740809440612793,1.1252747774124146,-0.0021294488105922937,-0.005057440605014563,0.0362006276845932
2455268833600,1.3527239561080933,-9.725247383117676,1.138442873954773,-0.0015970865497365594,-0.00958251953125,0.0391286201775074
2455270070725,1.3706804513931274,-9.746795654296875,1.193509578704834,-0.005057440605014563,-0.010114881210029125,0.0385962575674057
2455271307837,1.3838485479354858,-9.746795654296875,1.1959037780761719,-0.0066545275039970875,-0.0071868896484375,0.0372653529047966
2455272544962,1.338358759880066,-9.690531730651855,1.193509578704834,-0.0066545275039970875,-0.008783976547420025,0.0324740931391716
2455273782087,1.3706804513931274,-9.740809440612793,1.136048674583435,-0.00692070834338665,-0.006122165359556675,0.0362006276845932
2455275019187,1.3551181554794312,-9.765949249267578,1.1456254720687866,-0.0039927163161337376,-0.01117960549890995,0.0393948033452034
2455276256325,1.3994109630584717,-9.782708168029785,1.1647791862487793,-0.0015970865497365594,-0.01463996060192585,0.0420566126704216
2455277493450,1.3646949529647827,-9.739612579345703,1.194706678390503,-0.0053236219100654125,-0.0119781494140625,0.0436537005007267
2455278730575,1.3563152551651,-9.780314445495605,1.170764684677124,-0.0063883461989462376,-0.01597086526453495,0.0385962575674057
2455279967700,1.338358759880066,-9.787496566772461,1.1875240802764893,-0.0039927163161337376,-0.01357523538172245,0.042855154722929
2455281204812,1.3706804513931274,-9.794679641723633,1.1994950771331787,-0.008517795242369175,-0.00958251953125,0.038330078125
2455282441937,1.3611036539077759,-9.80904483795166,1.1264718770980835,-0.0071868896484375,-0.012776692397892475,0.0348697230219841
2455283679062,1.381454348564148,-9.757569313049316,1.1216834783554077,-0.0018632676219567657,-0.0215606689453125,0.038063894957304
2455284916187,1.3611036539077759,-9.718064308166504,1.191115379333496,0.0013309054775163531,-0.02076212503015995,0.0399271659553051
2455286153312,1.3706804513931274,-9.743204116821289,1.1683704853057861,-0.0029279920272529125,-0.01756795309484005,0.0415242500603199
2455287390437,1.3694833517074585,-9.75158405303955,1.2030863761901855,-0.00931633822619915,-0.015438503585755825,0.0404595248401165
2455288627550,1.3491326570510864,-9.736021041870117,1.1528080701828003,-0.0053236219100654125,-0.01783413253724575,0.0423227921128273
2455289864662,1.3395558595657349,-9.724050521850586,1.1599907875061035,-0.0005323622026480734,-0.0220930315554142,0.043121337890625
2455291101775,1.3395558595657349,-9.762357711791992,1.1540051698684692,-0.0015970865497365594,-0.0252872034907341,0.0447184219956398
2455292338900,1.3646949529647827,-9.750386238098145,1.1659762859344482,-0.0053236219100654125,-0.02262539230287075,0.0407257080078125
2455293576025,1.3730746507644653,-9.738415718078613,1.2330138683319092,-0.0021294488105922937,-0.02502102218568325,0.0369991734623909
2455294813162,1.3898340463638306,-9.759963035583496,1.1575965881347656,-0.0042588976211845875,-0.02182685025036335,0.0385962575674057
2455296050275,1.3431471586227417,-9.736021041870117,1.1587936878204346,-0.005057440605014563,-0.02182685025036335,0.043121337890625
2455297287375,1.3646949529647827,-9.77791976928711,1.1456254720687866,-0.005855984054505825,-0.0247548408806324,0.0407257080078125
2455298524500,1.3623007535934448,-9.782708168029785,1.1659762859344482,-0.00692070834338665,-0.0244886614382267,0.0401933453977108
2455299761650,1.3527239561080933,-9.756372451782227,1.1563994884490967,-0.0029279920272529125,-0.02555338479578495,0.0417904332280159
2455300998750,1.334767460823059,-9.7791166305542,1.171961784362793,-0.003460354171693325,-0.02555338479578495,0.0463155098259449
2455302235875,1.357512354850769,-9.756372451782227,1.1779472827911377,-0.0026618109550327063,-0.02502102218568325,0.0399271659553051
2455303473000,1.3503297567367554,-9.734824180603027,1.2258312702178955,0.0010647244052961469,-0.0338049978017807,0.0423227921128273
2455304710125,1.3263877630233765,-9.7420072555542,1.169567584991455,-0.0037265352439135313,-0.0311431884765625,0.0404595248401165
2455305947237,1.3527239561080933,-9.740809440612793,1.1420341730117798,0.0,-0.02741665206849575,0.0399271659553051
2455307184362,1.3084312677383423,-9.731232643127441,1.1635820865631104,-0.0042588976211845875,-0.02741665206849575,0.0391286201775074
2455308421475,1.3419500589370728,-9.737218856811523,1.1791443824768066,-0.005057440605014563,-0.0356682650744915,0.0412580706179142
2455309658587,1.3682862520217896,-9.716867446899414,1.1959037780761719,-0.0013309054775163531,-0.0362006276845932,0.0348697230219841
2455310895737,1.3658920526504517,-9.749189376831055,1.1492167711257935,-0.0005323622026480734,-0.0322079136967659,0.0375315360724926
2455312132850,1.3072341680526733,-9.734824180603027,1.173158884048462,-0.0018632676219567657,-0.02901373989880085,0.0420566126704216
2455313369962,1.3263877630233765,-9.712079048156738,1.1659762859344482,-0.003460354171693325,-0.0295461006462574,0.0444522425532341
2455314607087,1.3335703611373901,-9.692925453186035,1.138442873954773,0.0,-0.033538818359375,0.0391286201775074
2455315844212,1.316810965538025,-9.763554573059082,1.1803414821624756,-0.0005323622026480734,-0.0322079136967659,0.0377977155148983
2455317081312,1.313219666481018,-9.732430458068848,1.1683704853057861,-0.0023956298828125,-0.0340711809694767,0.0377977155148983
2455318318462,1.3239935636520386,-9.744400978088379,1.1635820865631104,0.0015970865497365594,-0.033272635191679,0.0375315360724926
2455319555587,1.3204022645950317,-9.702502250671387,1.1635820865631104,-0.0018632676219567657,-0.033272635191679,0.038063894957304
2455320792687,1.3108254671096802,-9.713275909423828,1.1563994884490967,-0.004791259765625,-0.0311431884765625,0.0340711809694767
2455322029825,1.3024457693099976,-9.708487510681152,1.1803414821624756,-0.0015970865497365594,-0.0268842913210392,0.0316755510866642
2455323266950,1.3215993642807007,-9.713275909423828,1.1504138708114624,0.0005323622026480734,-0.0330064557492733,0.0340711809694767
2455324504062,1.3060370683670044,-9.707290649414062,1.1611878871917725,0.0007985432748682797,-0.0354020856320858,0.0375315360724926
2455325741175,1.338358759880066,-9.720458984375,1.2018892765045166,0.0026618109550327063,-0.0324740931391716,0.0343373604118824
2455326978300,1.3395558595657349,-9.716867446899414,1.1971008777618408,0.0021294488105922937,-0.033538818359375,0.0364668108522892
2455328215425,1.2725181579589844,-9.75517463684082,1.1504138708114624,0.0015970865497365594,-0.0369991734623909,0.0354020856320858
2455329452562,1.2880805730819702,-9.704896926879883,1.1540051698684692,0.0021294488105922937,-0.0327402763068676,0.0369991734623909
2455330689650,1.313219666481018,-9.709685325622559,1.1528080701828003,0.004791259765625,-0.0354020856320858,0.0407257080078125
2455331926787,1.3096283674240112,-9.697713851928711,1.1971008777618408,0.003460354171693325,-0.0399271659553051,0.033272635191679
2455333163912,1.3395558595657349,-9.71926212310791,1.1791443824768066,0.0007985432748682797,-0.0340711809694767,0.033272635191679
2455334401037,1.3251906633377075,-9.71926212310791,1.1623849868774414,0.0053236219100654125,-0.0351359061896801,0.0364668108522892
2455335638137,1.2701239585876465,-9.731232643127441,1.169567584991455,0.0066545275039970875,-0.033538818359375,0.033538818359375
2455336875275,1.3108254671096802,-9.737218856811523,1.1971008777618408,0.0066545275039970875,-0.0306108258664608,0.0351359061896801
2455338112400,1.2797008752822876,-9.736021041870117,1.1994950771331787,0.0077192517928779125,-0.0351359061896801,0.0354020856320858
2455339349512,1.3120225667953491,-9.728838920593262,1.212663173675537,0.003460354171693325,-0.0367329902946949,0.0367329902946949
2455340586637,1.290474772453308,-9.732430458068848,1.1982979774475098,0.003460354171693325,-0.0354020856320858,0.0327402763068676
2455341823762,1.2617442607879639,-9.72285270690918,1.171961784362793,0.0037265352439135313,-0.0362006276845932,0.0340711809694767
2455343060887,1.315613865852356,-9.744400978088379,1.1779472827911377,0.008517795242369175,-0.0372653529047966,0.0330064557492733
2455344298012,1.2868834733963013,-9.71926212310791,1.1324573755264282,0.008251613937318325,-0.0354020856320858,0.0348697230219841
2455345535125,1.291671872138977,-9.72285270690918,1.1959037780761719,0.0039927163161337376,-0.0359344482421875,0.0343373604118824
2455346772250,1.2473790645599365,-9.724050521850586,1.216254472732544,0.003460354171693325,-0.0364668108522892,0.0324740931391716
2455348009362,1.2725181579589844,-9.750386238098145,1.212663173675537,0.005589802749454975,-0.0314093679189682,0.0359344482421875
2455349246475,1.215057373046875,-9.749189376831055,1.1755530834197998,0.004791259765625,-0.0343373604118824,0.0324740931391716
2455350483612,1.256955862045288,-9.726444244384766,1.2030863761901855,0.005057440605014563,-0.0364668108522892,0.02661811001598835
2455351720725,1.2473790645599365,-9.747992515563965,1.1791443824768066,0.010114881210029125,-0.0343373604118824,0.0327402763068676
2455352957862,1.3048399686813354,-9.710882186889648,1.1887211799621582,0.0077192517928779125,-0.0306108258664608,0.0338049978017807
2455354194962,1.2689268589019775,-9.728838920593262,1.2282254695892334,0.0029279920272529125,-0.033538818359375,0.0322079136967659
2455355432112,1.2449848651885986,-9.757569313049316,1.2018892765045166,0.005057440605014563,-0.0354020856320858,0.0300784632563591
2455356669225,1.2485761642456055,-9.730035781860352,1.1743559837341309,0.007453070487827063,-0.0343373604118824,0.02901373989880085
2455357906325,1.256955862045288,-9.725247383117676,1.1444283723831177,0.0037265352439135313,-0.0295461006462574,0.02874755859375
2455359143462,1.236605167388916,-9.724050521850586,1.1743559837341309,0.0071868896484375,-0.02608574740588665,0.0292799212038517
2455360380575,1.2713210582733154,-9.744400978088379,1.1611878871917725,0.010381062515079975,-0.0324740931391716,0.0282151959836483
2455361617700,1.2976573705673218,-9.750386238098145,1.193509578704834,0.0119781494140625,-0.0330064557492733,0.0300784632563591
2455362854825,1.2030863761901855,-9.720458984375,1.2066776752471924,0.014906140975654125,-0.0340711809694767,0.02874755859375
2455364091937,1.2210428714752197,-9.714473724365234,1.1312602758407593,0.0077192517928779125,-0.03034464456140995,0.02502102218568325
2455365329075,1.260547161102295,-9.694122314453125,1.1659762859344482,0.010381062515079975,-0.02741665206849575,0.02608574740588665
2455366566175,1.2868834733963013,-9.701305389404297,1.1779472827911377,0.010913425125181675,-0.0330064557492733,0.0271504707634449
2455367803300,1.2330138683319092,-9.704896926879883,1.1659762859344482,0.01117960549890995,-0.033272635191679,0.0252872034907341
2455369040437,1.2737152576446533,-9.75517463684082,1.1456254720687866,0.00692070834338665,-0.0330064557492733,0.02369011752307415
2455370277537,1.256955862045288,-9.716867446899414,1.2018892765045166,0.010913425125181675,-0.033272635191679,0.03034464456140995
2455371514662,1.2222399711608887,-9.759963035583496,1.1623849868774414,0.0119781494140625,-0.02874755859375,0.0234239362180233
2455372751800,1.2485761642456055,-9.803058624267578,1.1288660764694214,0.010647243820130825,-0.0330064557492733,0.02129448764026165
2455373988912,1.2342109680175781,-9.770737648010254,1.1899182796478271,0.01650322787463665,-0.033538818359375,0.0186326764523983
2455375226037,1.2090718746185303,-9.761160850524902,1.171961784362793,0.01357523538172245,-0.0258195661008358,0.01996358297765255
2455376463137,1.216254472732544,-9.764751434326172,1.191115379333496,0.01171196810901165,-0.0228915736079216,0.0215606689453125
2455377700300,1.2401964664459229,-9.75397777557373,1.1887211799621582,0.00931633822619915,-0.02981228195130825,0.0228915736079216
2455378937400,1.2342109680175781,-9.75517463684082,1.2054805755615234,0.01117960549890995,-0.0258195661008358,0.0196974016726017
2455380174525,1.2198457717895508,-9.759963035583496,1.192312479019165,0.010913425125181675,-0.02262539230287075,0.02129448764026165
2455381411650,1.2006921768188477,-9.780314445495605,1.1827356815338135,0.007985432632267475,-0.02262539230287075,0.0244886614382267
2455382648762,1.2258312702178955,-9.782708168029785,1.1611878871917725,0.01357523538172245,-0.0223592109978199,0.0162370465695858
2455383885887,1.1863269805908203,-9.744400978088379,1.1540051698684692,0.01463996060192585,-0.0196974016726017,0.015438503585755825
2455385123025,1.1839327812194824,-9.733627319335938,1.1982979774475098,0.01171196810901165,-0.0252872034907341,0.0167694091796875
2455386360125,1.2282254695892334,-9.694122314453125,1.1767501831054688,0.010114881210029125,-0.0316755510866642,0.01996358297765255
2455387597275,1.217451572418213,-9.700108528137207,1.1683704853057861,0.0114457868039608,-0.0252872034907341,0.01996358297765255
2455388834375,1.1671733856201172,-9.744400978088379,1.1899182796478271,0.0114457868039608,-0.0196974016726017,0.0204959437251091
2455390071500,1.2342109680175781,-9.72285270690918,1.169567584991455,0.015438503585755825,-0.0247548408806324,0.0181003138422966
2455391308612,1.213860273361206,-9.697713851928711,1.1863269805908203,0.0167694091796875,-0.0271504707634449,0.0138414166867733
2455392545737,1.2030863761901855,-9.71926212310791,1.1456254720687866,0.0119781494140625,-0.0247548408806324,0.014906140975654125
2455393782862,1.1971008777618408,-9.724050521850586,1.1994950771331787,0.01224433071911335,-0.0196974016726017,0.0196974016726017
2455395019975,1.2006921768188477,-9.707290649414062,1.1971008777618408,0.01117960549890995,-0.0204959437251091,0.01463996060192585
2455396257112,1.1827356815338135,-9.7420072555542,1.1839327812194824,0.00958251953125,-0.015438503585755825,0.01171196810901165
2455397494225,1.2078747749328613,-9.745597839355469,1.1659762859344482,0.013042873702943325,-0.01836649514734745,0.01703559048473835
2455398731362,1.2210428714752197,-9.728838920593262,1.193509578704834,0.0138414166867733,-0.014906140975654125,0.0138414166867733
2455399968462,1.2210428714752197,-9.738415718078613,1.1971008777618408,0.01224433071911335,-0.01836649514734745,0.014373779296875
2455401205575,1.2102689743041992,-9.710882186889648,1.1827356815338135,0.01117960549890995,-0.01410759799182415,0.01463996060192585
2455402442712,1.2509703636169434,-9.749189376831055,1.1863269805908203,0.008783976547420025,-0.013309055007994175,0.0157046839594841
2455403679825,1.2449848651885986,-9.792284965515137,1.1516109704971313,0.0077192517928779125,-0.008517795242369175,0.012510511092841625
2455404916950,1.2306196689605713,-9.797073364257812,1.212663173675537,0.010647243820130825,-0.00931633822619915,0.01117960549890995
2455406154075,1.2030863761901855,-9.75278091430664,1.1815385818481445,0.0114457868039608,-0.014373779296875,0.01756795309484005
2455407391200,1.1863269805908203,-9.797073364257812,1.1982979774475098,0.0167694091796875,-0.01357523538172245,0.01597086526453495
2455408628312,1.191115379333496,-9.785102844238281,1.213860273361206,0.010913425125181675,-0.01597086526453495,0.015438503585755825
2455409865425,1.2485761642456055,-9.770737648010254,1.1767501831054688,0.010913425125181675,-0.012776692397892475,0.02369011752307415
2455411102562,1.1815385818481445,-9.743204116821289,1.2222399711608887,0.0090501569211483,-0.0114457868039608,0.0204959437251091
2455412339687,1.2246341705322266,-9.769539833068848,1.216254472732544,0.0114457868039608,-0.008783976547420025,0.01410759799182415
2455413576800,1.2186486721038818,-9.77791976928711,1.194706678390503,0.012510511092841625,-0.0053236219100654125,0.0191650390625
2455414813925,1.237802267074585,-9.782708168029785,1.194706678390503,0.010114881210029125,-0.00692070834338665,0.02129448764026165
2455416051037,1.2054805755615234,-9.801861763000488,1.2102689743041992,0.01117960549890995,-0.01357523538172245,0.0234239362180233
2455417288162,1.1599907875061035,-9.77552604675293,1.1851298809051514,0.00984870083630085,-0.01171196810901165,0.0157046839594841
2455418525287,1.213860273361206,-9.805453300476074,1.1875240802764893,0.00931633822619915,-0.0063883461989462376,0.01889885775744915
2455419762412,1.2773066759109497,-9.783905029296875,1.2234370708465576,0.007985432632267475,-0.0071868896484375,0.02182685025036335
2455420999537,1.238999366760254,-9.81263542175293,1.171961784362793,0.008783976547420025,-0.005855984054505825,0.01836649514734745
2455422236650,1.215057373046875,-9.771934509277344,1.1839327812194824,0.01597086526453495,-0.010647243820130825,0.02315775491297245
2455423473775,1.215057373046875,-9.7791166305542,1.1791443824768066,0.007453070487827063,-0.0071868896484375,0.01943122036755085
2455424710912,1.2677297592163086,-9.807847023010254,1.1875240802764893,0.007453070487827063,-0.0039927163161337376,0.01996358297765255
2455425948012,1.2222399711608887,-9.77791976928711,1.1635820865631104,0.01117960549890995,-0.003460354171693325,0.0186326764523983
2455427185125,1.2497732639312744,-9.813833236694336,1.194706678390503,0.012510511092841625,-0.005057440605014563,0.0181003138422966
2455428422262,1.2270283699035645,-9.756372451782227,1.1480196714401245,0.00984870083630085,-0.0002661811013240367,0.0167694091796875
2455429659387,1.217451572418213,-9.792284965515137,1.1851298809051514,0.012510511092841625,-0.00452507846057415,0.0220930315554142
2455430896487,1.2497732639312744,-9.815030097961426,1.212663173675537,0.0114457868039608,-0.0015970865497365594,0.015172322280704975
2455432133625,1.215057373046875,-9.767146110534668,1.2186486721038818,0.0042588976211845875,0.0015970865497365594,0.015438503585755825
2455433370737,1.2401964664459229,-9.80904483795166,1.139639973640442,0.005589802749454975,-0.0021294488105922937,0.01889885775744915
2455434607862,1.2330138683319092,-9.817423820495605,1.1982979774475098,0.010381062515079975,0.0013309054775163531,0.0181003138422966
2455435844962,1.2090718746185303,-9.786299705505371,1.1432312726974487,0.0071868896484375,0.0029279920272529125,0.01703559048473835
2455437082112,1.2090718746185303,-9.782708168029785,1.1671733856201172,0.0077192517928779125,0.0018632676219567657,0.0191650390625
2455438319237,1.2042834758758545,-9.765949249267578,1.1587936878204346,0.007453070487827063,0.0053236219100654125,0.013309055007994175
2455439556350,1.2042834758758545,-9.770737648010254,1.1468225717544556,0.0037265352439135313,0.0015970865497365594,0.0186326764523983
2455440793487,1.2090718746185303,-9.791088104248047,1.1803414821624756,0.0023956298828125,0.0013309054775163531,0.02129448764026165
2455442030600,1.2473790645599365,-9.785102844238281,1.194706678390503,0.0021294488105922937,0.0039927163161337376,0.013309055007994175
2455443267712,1.215057373046875,-9.783905029296875,1.1791443824768066,-0.0007985432748682797,0.0018632676219567657,0.01463996060192585
2455444504837,1.1863269805908203,-9.821015357971191,1.1671733856201172,0.0023956298828125,0.0013309054775163531,0.0167694091796875
2455445741950,1.2222399711608887,-9.791088104248047,1.1755530834197998,0.0063883461989462376,0.0029279920272529125,0.0186326764523983
2455446979075,1.2102689743041992,-9.745597839355469,1.1743559837341309,0.0007985432748682797,0.003460354171693325,0.014373779296875
2455448216200,1.2186486721038818,-9.782708168029785,1.1312602758407593,0.0015970865497365594,0.0026618109550327063,0.014906140975654125
2455449453312,1.235408067703247,-9.793481826782227,1.1563994884490967,-0.0013309054775163531,0.00692070834338665,0.01597086526453495
2455450690462,1.2425906658172607,-9.836577415466309,1.2006921768188477,-0.0021294488105922937,0.004791259765625,0.01703559048473835
2455451927562,1.2318167686462402,-9.801861763000488,1.1587936878204346,-0.0066545275039970875,0.0090501569211483,0.012510511092841625
2455453164700,1.2114660739898682,-9.794679641723633,1.1432312726974487,-0.005057440605014563,0.00931633822619915,0.014906140975654125
2455454401812,1.213860273361206,-9.830592155456543,1.1516109704971313,-0.0015970865497365594,0.0031941730994731188,0.01996358297765255
