timestamp_ns,accel_x,accel_y,accel_z,gyro_x,gyro_y,gyro_z
18236402135075,-1.337161660194397,-9.677363395690918,-0.21308395266532898,0.0700056254863739,0.010647243820130825,-0.0063883461989462376
18236403372562,-1.3443442583084106,-9.676166534423828,-0.21547815203666687,0.0734659805893898,0.0077192517928779125,-0.010114881210029125
18236404610050,-1.3527239561080933,-9.702502250671387,-0.1735796183347702,0.0692070871591568,0.0039927163161337376,-0.00692070834338665
18236405847550,-1.337161660194397,-9.6989107131958,-0.23104046285152435,0.0697394460439682,0.008783976547420025,-0.004791259765625
18236407085025,-1.290474772453308,-9.75278091430664,-0.20470423996448517,0.0697394460439682,0.0071868896484375,-0.0042588976211845875
18236408322537,-1.3407529592514038,-9.72165584564209,-0.2346317619085312,0.0657467320561409,0.005057440605014563,-0.0066545275039970875
18236409560025,-1.3443442583084106,-9.734824180603027,-0.1867477297782898,0.066545270383358,0.007985432632267475,-0.0063883461989462376
18236410797525,-1.3563152551651,-9.739612579345703,-0.21428105235099792,0.0657467320561409,0.010114881210029125,-0.004791259765625
18236412035012,-1.3215993642807007,-9.731232643127441,-0.20350714027881622,0.0734659805893898,0.005057440605014563,-0.0031941730994731188
18236413272500,-1.3180080652236938,-9.746795654296875,-0.17956513166427612,0.0686747208237648,0.008783976547420025,-0.0023956298828125
18236414509987,-1.3503297567367554,-9.739612579345703,-0.1867477297782898,0.0657467320561409,0.01117960549890995,-0.005855984054505825
18236415747487,-1.3227964639663696,-9.77672290802002,-0.2059013545513153,0.0662790909409523,0.01224433071911335,-0.005057440605014563
18236416984975,-1.3491326570510864,-9.739612579345703,-0.19153614342212677,0.0692070871591568,0.015172322280704975,-0.00931633822619915
18236418222475,-1.3754688501358032,-9.771934509277344,-0.18794482946395874,0.0731998011469841,0.0119781494140625,-0.010381062515079975
18236419459962,-1.3515268564224243,-9.743204116821289,-0.16879121959209442,0.0700056254863739,0.01117960549890995,-0.0090501569211483
18236420697437,-1.3227964639663696,-9.761160850524902,-0.21787235140800476,0.0652143657207489,0.01224433071911335,-0.0063883461989462376
18236421934950,-1.3611036539077759,-9.798270225524902,-0.2106897532939911,0.0633511021733284,0.01117960549890995,-0.006122165359556675
18236423172425,-1.3527239561080933,-9.758766174316406,-0.1975216418504715,0.0590922012925148,0.007985432632267475,-0.007985432632267475
18236424409912,-1.3419500589370728,-9.737218856811523,-0.18914192914962769,0.0604231096804142,0.01224433071911335,-0.005057440605014563
18236425647425,-1.334767460823059,-9.7791166305542,-0.20350714027881622,0.0598907470703125,0.01224433071911335,-0.00452507846057415
18236426884900,-1.3180080652236938,-9.770737648010254,-0.1759738326072693,0.0630849227309227,0.0157046839594841,-0.00692070834338665
18236428122400,-1.3239935636520386,-9.806650161743164,-0.20949265360832214,0.0598907470703125,0.0173017717897892,-0.005855984054505825
18236429359900,-1.3299790620803833,-9.807847023010254,-0.2214636653661728,0.0564303919672966,0.0210283063352108,-0.0042588976211845875
18236430597387,-1.3036428689956665,-9.77552604675293,-0.21188685297966003,0.0558980293571949,0.0220930315554142,-0.006122165359556675
18236431834875,-1.3108254671096802,-9.769539833068848,-0.15801730751991272,0.0564303919672966,0.01756795309484005,-0.008517795242369175
18236433072387,-1.3048399686813354,-9.768342971801758,-0.21188685297966003,0.0548333041369915,0.0157046839594841,-0.0071868896484375
18236434309850,-1.3455413579940796,-9.80904483795166,-0.19033904373645782,0.0561642125248909,0.0186326764523983,-0.01410759799182415
18236435547350,-1.3335703611373901,-9.761160850524902,-0.14604631066322327,0.0561642125248909,0.023956298828125,-0.0157046839594841
18236436784850,-1.3120225667953491,-9.77672290802002,-0.1496376097202301,0.0577612966299057,0.01597086526453495,-0.00984870083630085
18236438022350,-1.3215993642807007,-9.7791166305542,-0.16519992053508759,0.0537685826420784,0.0196974016726017,-0.013309055007994175
18236439259825,-1.3275848627090454,-9.75397777557373,-0.16639702022075653,0.0495096817612648,0.02369011752307415,-0.00984870083630085
18236440497300,-1.2952631711959839,-9.750386238098145,-0.181959331035614,0.0513729527592659,0.02076212503015995,-0.0114457868039608
18236441734800,-1.292868971824646,-9.764751434326172,-0.1364694982767105,0.0513729527592659,0.0196974016726017,-0.008251613937318325
18236442972300,-1.290474772453308,-9.75278091430664,-0.14844051003456116,0.0497758649289608,0.01996358297765255,-0.0077192517928779125
18236444209800,-1.2737152576446533,-9.750386238098145,-0.13287819921970367,0.0516391322016716,0.0316755510866642,-0.008517795242369175
18236445447275,-1.3084312677383423,-9.75158405303955,-0.1364694982767105,0.0489773228764534,0.02076212503015995,-0.010381062515079975
18236446684762,-1.2689268589019775,-9.758766174316406,-0.1604115217924118,0.0537685826420784,0.01650322787463665,-0.008517795242369175
18236447922262,-1.256955862045288,-9.745597839355469,-0.1711854189634323,0.047646414488554,0.02262539230287075,-0.007453070487827063
18236449159762,-1.2665326595306396,-9.716867446899414,-0.1951274424791336,0.0471140518784523,0.0220930315554142,-0.0037265352439135313
18236450397250,-1.2473790645599365,-9.714473724365234,-0.1951274424791336,0.0473802350461483,0.01836649514734745,-0.0002661811013240367
18236451634725,-1.2665326595306396,-9.774328231811523,-0.1496376097202301,0.047646414488554,0.01410759799182415,-0.0021294488105922937
18236452872225,-1.2030863761901855,-9.737218856811523,-0.1472434103488922,0.04791259765625,0.0215606689453125,-0.0042588976211845875
18236454109725,-1.2318167686462402,-9.714473724365234,-0.16759411990642548,0.0489773228764534,0.02555338479578495,0.0
18236455347237,-1.236605167388916,-9.680954933166504,-0.21667525172233582,0.0484449602663517,0.0244886614382267,-0.005057440605014563
18236456584700,-1.2557587623596191,-9.68813705444336,-0.15322890877723694,0.04791259765625,0.02369011752307415,-0.0031941730994731188
18236457822187,-1.2737152576446533,-9.732430458068848,-0.19273324310779572,0.0455169677734375,0.02262539230287075,0.0005323622026480734
18236459059700,-1.291671872138977,-9.733627319335938,-0.1604115217924118,0.0436537005007267,0.0228915736079216,-0.0005323622026480734
18236460297187,-1.259350061416626,-9.695320129394531,-0.16879121959209442,0.0492435023188591,0.0228915736079216,-0.005855984054505825
18236461534687,-1.294066071510315,-9.730035781860352,-0.1711854189634323,0.0460493303835392,0.0234239362180233,-0.0063883461989462376
18236462772175,-1.294066071510315,-9.707290649414062,-0.1364694982767105,0.0471140518784523,0.02502102218568325,-0.0042588976211845875
18236464009650,-1.2413935661315918,-9.759963035583496,-0.17477671802043915,0.0436537005007267,0.0258195661008358,-0.005855984054505825
18236465247150,-1.236605167388916,-9.716867446899414,-0.181959331035614,0.0484449602663517,0.02608574740588665,-0.0007985432748682797
18236466484650,-1.192312479019165,-9.768342971801758,-0.14365209639072418,0.0468478724360466,0.02661811001598835,0.0039927163161337376
18236467722137,-1.2497732639312744,-9.77672290802002,-0.12449848651885986,0.0441860631108284,0.02848137728869915,0.0042588976211845875
18236468959625,-1.2545616626739502,-9.761160850524902,-0.1388636976480484,0.0489773228764534,0.023956298828125,0.0029279920272529125
18236470197100,-1.2234370708465576,-9.770737648010254,-0.20231004059314728,0.0468478724360466,0.0228915736079216,0.008251613937318325
18236471434600,-1.2665326595306396,-9.780314445495605,-0.15083470940589905,0.0471140518784523,0.023956298828125,-0.0015970865497365594
18236472672112,-1.2557587623596191,-9.770737648010254,-0.17477671802043915,0.043121337890625,0.023956298828125,-0.0039927163161337376
18236473909600,-1.2713210582733154,-9.77672290802002,-0.1388636976480484,0.0420566126704216,0.0228915736079216,-0.0021294488105922937
18236475147075,-1.2737152576446533,-9.77672290802002,-0.15562310814857483,0.0436537005007267,0.0223592109978199,0.0
18236476384587,-1.2342109680175781,-9.793481826782227,-0.15682020783424377,0.0420566126704216,0.02182685025036335,0.0021294488105922937
18236477622062,-1.2066776752471924,-9.763554573059082,-0.181959331035614,0.0497758649289608,0.0210283063352108,0.0042588976211845875
18236478859562,-1.2413935661315918,-9.783905029296875,-0.17836803197860718,0.0452507846057415,0.0228915736079216,0.0042588976211845875
18236480097050,-1.2521674633026123,-9.791088104248047,-0.1388636976480484,0.0412580706179142,0.0215606689453125,-0.0010647244052961469
18236481334550,-1.2258312702178955,-9.75158405303955,-0.15921440720558167,0.0444522425532341,0.0196974016726017,0.0039927163161337376
18236482572037,-1.2401964664459229,-9.763554573059082,-0.15083470940589905,0.0457831472158432,0.01943122036755085,0.010647243820130825
18236483809525,-1.2342109680175781,-9.771934509277344,-0.14365209639072418,0.0449846051633358,0.02076212503015995,0.008251613937318325
18236485047012,-1.2258312702178955,-9.77552604675293,-0.16160862147808075,0.038330078125,0.02741665206849575,0.0063883461989462376
18236486284525,-1.2425906658172607,-9.734824180603027,-0.15562310814857483,0.0388624407351017,0.02502102218568325,0.0053236219100654125
18236487522000,-1.2629413604736328,-9.734824180603027,-0.14245499670505524,0.0425889752805233,0.0223592109978199,0.0063883461989462376
18236488759475,-1.2485761642456055,-9.77791976928711,-0.13048399984836578,0.043121337890625,0.02422248013317585,0.0066545275039970875
18236489996975,-1.2808979749679565,-9.77552604675293,-0.1173158809542656,0.038330078125,0.0234239362180233,0.0063883461989462376
18236491234487,-1.2808979749679565,-9.740809440612793,-0.13287819921970367,0.0409918874502182,0.02422248013317585,0.0053236219100654125
18236492471962,-1.2270283699035645,-9.761160850524902,-0.13407529890537262,0.0404595248401165,0.0252872034907341,0.00931633822619915
18236493709450,-1.2342109680175781,-9.75158405303955,-0.15442600846290588,0.0372653529047966,0.02262539230287075,0.00958251953125
18236494946950,-1.235408067703247,-9.763554573059082,-0.152031809091568,0.0439198799431324,0.0228915736079216,0.007985432632267475
18236496184437,-1.2425906658172607,-9.823410034179688,-0.11971008777618408,0.0447184219956398,0.02608574740588665,0.005855984054505825
18236497421937,-1.2497732639312744,-9.77552604675293,-0.1256955862045288,0.0399271659553051,0.02608574740588665,0.00931633822619915
18236498659425,-1.256955862045288,-9.773131370544434,-0.13287819921970367,0.0375315360724926,0.0162370465695858,0.00931633822619915
18236499896925,-1.2234370708465576,-9.838972091674805,-0.14844051003456116,0.0354020856320858,0.02182685025036335,0.008783976547420025
18236501134425,-1.2270283699035645,-9.815030097961426,-0.11851298809051514,0.0367329902946949,0.01996358297765255,0.008251613937318325
18236502371912,-1.2258312702178955,-9.793481826782227,-0.12449848651885986,0.0356682650744915,0.01889885775744915,0.0042588976211845875
18236503609387,-1.258152961730957,-9.804256439208984,-0.10295067727565765,0.0340711809694767,0.02422248013317585,0.007985432632267475
18236504846887,-1.2342109680175781,-9.792284965515137,-0.11372458189725876,0.0316755510866642,0.0252872034907341,0.01410759799182415
18236506084387,-1.2198457717895508,-9.770737648010254,-0.12449848651885986,0.0324740931391716,0.01597086526453495,0.0119781494140625
18236507321875,-1.2282254695892334,-9.759963035583496,-0.15322890877723694,0.0343373604118824,0.023956298828125,0.0090501569211483
18236508559362,-1.2198457717895508,-9.761160850524902,-0.1472434103488922,0.0327402763068676,0.0234239362180233,0.0077192517928779125
18236509796850,-1.2641384601593018,-9.763554573059082,-0.09576807171106339,0.0338049978017807,0.023956298828125,0.013042873702943325
18236511034350,-1.2629413604736328,-9.740809440612793,-0.07781155407428741,0.0292799212038517,0.0196974016726017,0.007985432632267475
18236512271837,-1.2318167686462402,-9.728838920593262,-0.090979665517807,0.0300784632563591,0.01783413253724575,0.008517795242369175
18236513509325,-1.2042834758758545,-9.75158405303955,-0.06464345008134842,0.0300784632563591,0.02315775491297245,0.008517795242369175
18236514746800,-1.192312479019165,-9.761160850524902,-0.10055647045373917,0.0322079136967659,0.0228915736079216,0.008251613937318325
18236515984300,-1.2449848651885986,-9.740809440612793,-0.13766659796237946,0.033272635191679,0.0223592109978199,0.0063883461989462376
18236517221787,-1.2342109680175781,-9.762357711791992,-0.12928690016269684,0.0322079136967659,0.01889885775744915,0.0077192517928779125
18236518459300,-1.2785037755966187,-9.762357711791992,-0.0933738648891449,0.0300784632563591,0.01357523538172245,0.005855984054505825
18236519696787,-1.2102689743041992,-9.785102844238281,-0.09576807171106339,0.0314093679189682,0.015172322280704975,0.00931633822619915
18236520934287,-1.2545616626739502,-9.756372451782227,-0.11971008777618408,0.0377977155148983,0.01410759799182415,0.010913425125181675
18236522171775,-1.259350061416626,-9.81024169921875,-0.1496376097202301,0.0330064557492733,0.01410759799182415,0.007453070487827063
18236523409262,-1.2198457717895508,-9.830592155456543,-0.09816227108240128,0.02901373989880085,0.0157046839594841,0.00984870083630085
18236524646762,-1.213860273361206,-9.816226959228516,-0.09935937076807022,0.0330064557492733,0.0119781494140625,0.0138414166867733
18236525884237,-1.2306196689605713,-9.770737648010254,-0.12090718746185303,0.0346035435795784,0.015172322280704975,0.007985432632267475
18236527121737,-1.2186486721038818,-9.75278091430664,-0.09457096457481384,0.0324740931391716,0.01597086526453495,0.00984870083630085
18236528359237,-1.258152961730957,-9.771934509277344,-0.1280897855758667,0.0324740931391716,0.0157046839594841,0.010647243820130825
18236529596712,-1.2222399711608887,-9.80904483795166,-0.10534487664699554,0.0282151959836483,0.01357523538172245,0.0066545275039970875
18236530834212,-1.1815385818481445,-9.757569313049316,-0.09217676520347595,0.03034464456140995,0.010381062515079975,0.0077192517928779125
18236532071700,-1.2066776752471924,-9.759963035583496,-0.09696517139673233,0.02794901467859745,0.010647243820130825,0.0071868896484375
18236533309187,-1.2306196689605713,-9.813833236694336,-0.10773907601833344,0.0276828333735466,0.0037265352439135313,0.008517795242369175
18236534546687,-1.2617442607879639,-9.782708168029785,-0.05386953800916672,0.0311431884765625,0.014373779296875,0.0015970865497365594
18236535784175,-1.2186486721038818,-9.773131370544434,-0.08499415963888168,0.0292799212038517,0.015172322280704975,0.00984870083630085
18236537021675,-1.2473790645599365,-9.726444244384766,-0.13407529890537262,0.0316755510866642,0.012776692397892475,0.006122165359556675
18236538259137,-1.217451572418213,-9.746795654296875,-0.1041477769613266,0.0330064557492733,0.008251613937318325,0.0037265352439135313
18236539496662,-1.2318167686462402,-9.749189376831055,-0.152031809091568,0.0330064557492733,0.008251613937318325,0.0053236219100654125
18236540734150,-1.2270283699035645,-9.746795654296875,-0.07422025501728058,0.0271504707634449,0.00931633822619915,0.0053236219100654125
18236541971650,-1.191115379333496,-9.768342971801758,-0.08259996026754379,0.0268842913210392,0.0119781494140625,0.003460354171693325
18236543209125,-1.2701239585876465,-9.782708168029785,-0.0694318488240242,0.0314093679189682,0.005057440605014563,0.0039927163161337376
18236544446612,-1.2533645629882812,-9.756372451782227,-0.10055647045373917,0.0324740931391716,0.0023956298828125,0.008783976547420025
18236545684137,-1.2282254695892334,-9.785102844238281,-0.06823474913835526,0.03087700717151165,0.0002661811013240367,0.005855984054505825
18236546921600,-1.2641384601593018,-9.806650161743164,-0.07422025501728058,0.0268842913210392,0.0015970865497365594,-0.0002661811013240367
18236548159100,-1.2545616626739502,-9.768342971801758,-0.10534487664699554,0.02608574740588665,0.0018632676219567657,0.0066545275039970875
18236549396575,-1.2533645629882812,-9.81143856048584,-0.08259996026754379,0.02608574740588665,0.0042588976211845875,0.005855984054505825
18236550634075,-1.2509703636169434,-9.800664901733398,-0.08738835901021957,0.02874755859375,0.00452507846057415,0.0018632676219567657
18236551871562,-1.2449848651885986,-9.827000617980957,-0.13407529890537262,0.03087700717151165,-0.0021294488105922937,0.0026618109550327063
18236553109062,-1.2641384601593018,-9.841365814208984,-0.10893617570400238,0.02502102218568325,-0.003460354171693325,0.0018632676219567657
18236554346550,-1.2318167686462402,-9.816226959228516,-0.14006079733371735,0.0234239362180233,0.0021294488105922937,0.003460354171693325
18236555584062,-1.2449848651885986,-9.822212219238281,-0.12449848651885986,0.0210283063352108,0.0053236219100654125,0.0039927163161337376
18236556821525,-1.256955862045288,-9.781511306762695,-0.07781155407428741,0.02422248013317585,0.0023956298828125,0.0114457868039608
18236558059025,-1.256955862045288,-9.828198432922363,-0.13527239859104156,0.0263519287109375,-0.0010647244052961469,0.013309055007994175
18236559296512,-1.2557587623596191,-9.827000617980957,-0.11133038252592087,0.01650322787463665,0.00692070834338665,0.005057440605014563
18236560534000,-1.292868971824646,-9.84376049041748,-0.06584054976701736,0.0173017717897892,-0.0013309054775163531,0.007985432632267475
18236561771500,-1.2808979749679565,-9.816226959228516,-0.10175357013940811,0.0181003138422966,-0.0023956298828125,0.00958251953125
18236563009000,-1.2785037755966187,-9.855731010437012,-0.11971008777618408,0.01756795309484005,0.0005323622026480734,0.0053236219100654125
18236564246475,-1.3000515699386597,-9.84495735168457,-0.08858546614646912,0.0186326764523983,-0.008783976547420025,0.0029279920272529125
18236565483975,-1.2761094570159912,-9.837775230407715,-0.09457096457481384,0.015438503585755825,-0.006122165359556675,0.004791259765625
18236566721462,-1.2976573705673218,-9.853337287902832,-0.1280897855758667,0.01171196810901165,0.0026618109550327063,0.00452507846057415
18236567958962,-1.2677297592163086,-9.822212219238281,-0.1412578970193863,0.008783976547420025,-0.0002661811013240367,0.0039927163161337376
18236569196437,-1.2677297592163086,-9.838972091674805,-0.090979665517807,0.015172322280704975,-0.0039927163161337376,0.0063883461989462376
18236570433962,-1.2892776727676392,-9.86770248413086,-0.11971008777618408,0.01357523538172245,-0.0039927163161337376,0.00984870083630085
18236571671437,-1.260547161102295,-9.84256362915039,-0.10055647045373917,0.008783976547420025,-0.00452507846057415,0.006122165359556675
18236572908937,-1.2533645629882812,-9.831789016723633,-0.13766659796237946,0.01117960549890995,-0.0023956298828125,0.00984870083630085
18236574146412,-1.357512354850769,-9.818621635437012,-0.06703764945268631,0.0063883461989462376,-0.0039927163161337376,0.0090501569211483
18236575383900,-1.3239935636520386,-9.861717224121094,-0.11133038252592087,0.0077192517928779125,-0.0066545275039970875,0.008251613937318325
18236576621412,-1.3036428689956665,-9.840168952941895,-0.10773907601833344,0.008517795242369175,-0.006122165359556675,0.005589802749454975
18236577858887,-1.292868971824646,-9.832986831665039,-0.11013327538967133,0.0010647244052961469,-0.005057440605014563,0.0042588976211845875
18236579096387,-1.2856863737106323,-9.832986831665039,-0.10773907601833344,0.0007985432748682797,-0.0039927163161337376,0.01117960549890995
18236580333862,-1.3275848627090454,-9.849745750427246,-0.11971008777618408,0.0015970865497365594,-0.0053236219100654125,0.012510511092841625
18236581571387,-1.3263877630233765,-9.81263542175293,-0.13407529890537262,0.0039927163161337376,-0.0037265352439135313,0.00931633822619915
18236582808850,-1.2964602708816528,-9.792284965515137,-0.07062894850969315,0.005057440605014563,-0.0039927163161337376,0.013309055007994175
18236584046350,-1.337161660194397,-9.746795654296875,-0.0802057608962059,0.005589802749454975,-0.010647243820130825,0.00931633822619915
18236585283850,-1.3287819623947144,-9.77791976928711,-0.12330138683319092,-0.00452507846057415,-0.0031941730994731188,0.003460354171693325
18236586521325,-1.3275848627090454,-9.798270225524902,-0.08499415963888168,-0.0021294488105922937,-0.0013309054775163531,0.0063883461989462376
18236587758825,-1.3658920526504517,-9.75158405303955,-0.11611878126859665,0.0013309054775163531,-0.0023956298828125,0.0077192517928779125
18236588996325,-1.3192051649093628,-9.78869342803955,-0.1041477769613266,0.0015970865497365594,-0.0039927163161337376,0.008517795242369175
18236590233800,-1.3611036539077759,-9.801861763000488,-0.08619125932455063,-0.005855984054505825,-0.0037265352439135313,0.006122165359556675
18236591471337,-1.3658920526504517,-9.756372451782227,-0.09457096457481384,-0.0053236219100654125,-0.0021294488105922937,0.005589802749454975
18236592708787,-1.3515268564224243,-9.734824180603027,-0.11013327538967133,-0.0037265352439135313,-0.0018632676219567657,0.0077192517928779125
18236593946300,-1.3874398469924927,-9.765949249267578,-0.10654197633266449,-0.003460354171693325,-0.0037265352439135313,0.0013309054775163531
18236595183775,-1.3730746507644653,-9.804256439208984,-0.13168109953403473,-0.0066545275039970875,-0.0021294488105922937,0.0013309054775163531
18236596421275,-1.3563152551651,-9.770737648010254,-0.10654197633266449,-0.005589802749454975,-0.004791259765625,0.0005323622026480734
18236597658775,-1.3311761617660522,-9.750386238098145,-0.09457096457481384,-0.008783976547420025,-0.003460354171693325,0.0018632676219567657
18236598896250,-1.3443442583084106,-9.744400978088379,-0.0802057608962059,-0.00958251953125,0.0013309054775163531,0.0021294488105922937
18236600133737,-1.359906554222107,-9.78869342803955,-0.12928690016269684,-0.012510511092841625,-0.0005323622026480734,-0.0023956298828125
18236601371237,-1.3611036539077759,-9.761160850524902,-0.12449848651885986,-0.0090501569211483,0.0,0.0010647244052961469
18236602608737,-1.3946224451065063,-9.781511306762695,-0.12210428714752197,-0.008251613937318325,0.003460354171693325,0.0023956298828125
18236603846225,-1.3515268564224243,-9.734824180603027,-0.1041477769613266,-0.0114457868039608,0.0029279920272529125,-0.0015970865497365594
18236605083712,-1.3515268564224243,-9.75397777557373,-0.1041477769613266,-0.01597086526453495,0.0023956298828125,-0.003460354171693325
18236606321212,-1.3455413579940796,-9.75278091430664,-0.08499415963888168,-0.01410759799182415,0.004791259765625,-0.005057440605014563
18236607558712,-1.3551181554794312,-9.736021041870117,-0.10893617570400238,-0.010647243820130825,0.005057440605014563,-0.007985432632267475
18236608796200,-1.358709454536438,-9.75397777557373,-0.06344634294509888,-0.01117960549890995,-0.0002661811013240367,-0.005855984054505825
18236610033687,-1.3670891523361206,-9.758766174316406,-0.11971008777618408,-0.01410759799182415,0.0015970865497365594,-0.0042588976211845875
18236611271187,-1.3611036539077759,-9.767146110534668,-0.10175357013940811,-0.010381062515079975,0.0023956298828125,-0.005589802749454975
18236612508650,-1.3778630495071411,-9.71926212310791,-0.0802057608962059,-0.00958251953125,0.0037265352439135313,-0.0090501569211483
18236613746150,-1.3527239561080933,-9.713275909423828,-0.08738835901021957,-0.015172322280704975,0.0071868896484375,-0.0071868896484375
18236614983650,-1.3850456476211548,-9.758766174316406,-0.13168109953403473,-0.0138414166867733,0.010913425125181675,-0.013042873702943325
18236616221137,-1.3682862520217896,-9.728838920593262,-0.08140286058187485,-0.0138414166867733,0.007985432632267475,-0.01171196810901165
18236617458637,-1.3551181554794312,-9.759963035583496,-0.10295067727565765,-0.013042873702943325,0.01117960549890995,-0.008517795242369175
18236618696137,-1.315613865852356,-9.737218856811523,-0.1041477769613266,-0.0173017717897892,0.00984870083630085,-0.010114881210029125
18236619933612,-1.3646949529647827,-9.738415718078613,-0.09457096457481384,-0.014906140975654125,0.01117960549890995,-0.0077192517928779125
18236621171112,-1.3419500589370728,-9.7420072555542,-0.08140286058187485,-0.01463996060192585,0.008783976547420025,-0.00984870083630085
18236622408612,-1.2964602708816528,-9.714473724365234,-0.1280897855758667,-0.0114457868039608,0.0186326764523983,-0.0119781494140625
18236623646100,-1.3311761617660522,-9.704896926879883,-0.1280897855758667,-0.005057440605014563,0.01171196810901165,-0.010381062515079975
18236624883587,-1.3239935636520386,-9.725247383117676,-0.12330138683319092,-0.01224433071911335,0.008517795242369175,-0.0037265352439135313
18236626121087,-1.3323732614517212,-9.726444244384766,-0.08978256583213806,-0.012776692397892475,0.010647243820130825,-0.012510511092841625
18236627358575,-1.3251906633377075,-9.670180320739746,-0.12210428714752197,-0.010647243820130825,0.01117960549890995,-0.0114457868039608
18236628596062,-1.3515268564224243,-9.63187313079834,-0.15682020783424377,-0.007985432632267475,0.01117960549890995,-0.0066545275039970875
18236629833550,-1.3311761617660522,-9.66539192199707,-0.13527239859104156,-0.005855984054505825,0.013309055007994175,-0.01650322787463665
18236631071050,-1.3287819623947144,-9.690531730651855,-0.13407529890537262,-0.0053236219100654125,0.0162370465695858,-0.0090501569211483
18236632308537,-1.3706804513931274,-9.660603523254395,-0.1149216815829277,-0.0026618109550327063,0.0157046839594841,-0.008517795242369175
18236633546050,-1.3563152551651,-9.697713851928711,-0.14365209639072418,-0.0023956298828125,0.01117960549890995,-0.0114457868039608
18236634783525,-1.3491326570510864,-9.671378135681152,-0.1280897855758667,-0.012776692397892475,0.013042873702943325,-0.01117960549890995
18236636021012,-1.3120225667953491,-9.623494148254395,-0.10654197633266449,-0.0018632676219567657,0.0157046839594841,-0.005057440605014563
18236637258512,-1.3491326570510864,-9.66299819946289,-0.1364694982767105,0.0007985432748682797,0.010381062515079975,-0.006122165359556675
18236638496000,-1.3335703611373901,-9.646238327026367,-0.14245499670505524,-0.003460354171693325,0.01357523538172245,-0.0119781494140625
18236639733487,-1.3407529592514038,-9.68694019317627,-0.1173158809542656,-0.0002661811013240367,0.01783413253724575,-0.01357523538172245
18236640970987,-1.3467384576797485,-9.703699111938477,-0.1364694982767105,0.0005323622026480734,0.015172322280704975,-0.012510511092841625
18236642208475,-1.3060370683670044,-9.673771858215332,-0.15083470940589905,0.00452507846057415,0.0162370465695858,-0.007453070487827063
18236643445975,-1.3491326570510864,-9.678560256958008,-0.1364694982767105,0.0039927163161337376,0.01597086526453495,-0.008783976547420025
18236644683437,-1.236605167388916,-9.645041465759277,-0.10773907601833344,0.003460354171693325,0.0181003138422966,-0.0063883461989462376
18236645920950,-1.2844892740249634,-9.676166534423828,-0.12330138683319092,0.0026618109550327063,0.0186326764523983,-0.0114457868039608
18236647158462,-1.3072341680526733,-9.712079048156738,-0.10295067727565765,0.005589802749454975,0.0191650390625,-0.00984870083630085
18236648395937,-1.2832921743392944,-9.700108528137207,-0.12689268589019775,0.005589802749454975,0.0210283063352108,-0.010647243820130825
18236649633437,-1.2689268589019775,-9.714473724365234,-0.11252748221158981,0.010381062515079975,0.0196974016726017,-0.005855984054505825
18236650870925,-1.3096283674240112,-9.71926212310791,-0.09576807171106339,0.0090501569211483,0.0167694091796875,-0.007453070487827063
18236652108412,-1.291671872138977,-9.72165584564209,-0.12449848651885986,0.007985432632267475,0.0186326764523983,-0.005589802749454975
18236653345912,-1.2641384601593018,-9.75517463684082,-0.10773907601833344,0.010114881210029125,0.02262539230287075,-0.00958251953125
18236654583425,-1.2437877655029297,-9.695320129394531,-0.14604631066322327,0.01224433071911335,0.0204959437251091,-0.0173017717897892
18236655820900,-1.2497732639312744,-9.709685325622559,-0.1364694982767105,0.00984870083630085,0.01410759799182415,-0.0119781494140625
18236657058375,-1.2497732639312744,-9.756372451782227,-0.14006079733371735,0.00958251953125,0.02315775491297245,-0.010114881210029125
18236658295875,-1.2964602708816528,-9.764751434326172,-0.10055647045373917,0.008783976547420025,0.0228915736079216,-0.0077192517928779125
18236659533362,-1.2725181579589844,-9.72285270690918,-0.13048399984836578,0.0114457868039608,0.0210283063352108,-0.00931633822619915
18236660770862,-1.2473790645599365,-9.75158405303955,-0.15562310814857483,0.00452507846057415,0.01650322787463665,-0.0090501569211483
18236662008350,-1.2677297592163086,-9.737218856811523,-0.06823474913835526,0.0005323622026480734,0.0220930315554142,-0.007985432632267475
18236663245837,-1.2844892740249634,-9.773131370544434,-0.04429273307323456,0.008251613937318325,0.02315775491297245,-0.005589802749454975
18236664483325,-1.290474772453308,-9.757569313049316,-0.10295067727565765,0.0114457868039608,0.02076212503015995,-0.01357523538172245
18236665720837,-1.3192051649093628,-9.761160850524902,-0.08978256583213806,0.01171196810901165,0.0204959437251091,-0.010913425125181675
18236666958325,-1.3012486696243286,-9.747992515563965,-0.12330138683319092,0.008517795242369175,0.0196974016726017,-0.008251613937318325
18236668195812,-1.2868834733963013,-9.75158405303955,-0.08738835901021957,0.008783976547420025,0.02262539230287075,-0.003460354171693325
18236669433312,-1.291671872138977,-9.768342971801758,-0.10654197633266449,0.010913425125181675,0.0228915736079216,-0.012510511092841625
18236670670800,-1.3311761617660522,-9.762357711791992,-0.16759411990642548,0.0053236219100654125,0.0220930315554142,-0.010381062515079975
18236671908300,-1.2797008752822876,-9.805453300476074,-0.12689268589019775,0.004791259765625,0.0244886614382267,-0.00984870083630085
18236673145762,-1.2820950746536255,-9.749189376831055,-0.1149216815829277,0.005855984054505825,0.0234239362180233,-0.010913425125181675
18236674383287,-1.2545616626739502,-9.763554573059082,-0.19033904373645782,0.007453070487827063,0.02076212503015995,-0.0119781494140625
18236675620762,-1.2797008752822876,-9.767146110534668,-0.11133038252592087,0.0029279920272529125,0.0292799212038517,-0.015172322280704975
18236676858275,-1.315613865852356,-9.759963035583496,-0.1628057211637497,0.005589802749454975,0.02741665206849575,-0.0186326764523983
18236678095750,-1.3024457693099976,-9.771934509277344,-0.16879121959209442,0.0042588976211845875,0.02555338479578495,-0.0181003138422966
18236679333250,-1.3108254671096802,-9.716867446899414,-0.16639702022075653,0.0071868896484375,0.0282151959836483,-0.0119781494140625
18236680570750,-1.3060370683670044,-9.697713851928711,-0.1628057211637497,0.005855984054505825,0.0258195661008358,-0.015172322280704975
18236681808212,-1.2509703636169434,-9.714473724365234,-0.15682020783424377,0.0066545275039970875,0.02369011752307415,-0.01943122036755085
18236683045725,-1.2306196689605713,-9.75517463684082,-0.12689268589019775,0.0063883461989462376,0.02262539230287075,-0.01463996060192585
18236684283212,-1.2449848651885986,-9.737218856811523,-0.1472434103488922,0.007453070487827063,0.02315775491297245,-0.01410759799182415
18236685520700,-1.2222399711608887,-9.720458984375,-0.1472434103488922,0.0026618109550327063,0.0252872034907341,-0.01836649514734745
18236686758200,-1.260547161102295,-9.678560256958008,-0.1628057211637497,0.003460354171693325,0.0220930315554142,-0.015438503585755825
18236687995700,-1.2641384601593018,-9.683348655700684,-0.10295067727565765,0.004791259765625,0.02422248013317585,-0.0204959437251091
18236689233187,-1.236605167388916,-9.672574996948242,-0.12210428714752197,0.01410759799182415,0.0223592109978199,-0.0173017717897892
18236690470662,-1.215057373046875,-9.684545516967773,-0.12330138683319092,0.008783976547420025,0.0220930315554142,-0.0181003138422966
18236691708175,-1.2066776752471924,-9.703699111938477,-0.12449848651885986,0.005855984054505825,0.02555338479578495,-0.0173017717897892
18236692945675,-1.2413935661315918,-9.712079048156738,-0.15083470940589905,0.00452507846057415,0.02315775491297245,-0.01836649514734745
18236694183150,-1.2330138683319092,-9.683348655700684,-0.10773907601833344,0.004791259765625,0.0191650390625,-0.01703559048473835
18236695420637,-1.212663173675537,-9.704896926879883,-0.1280897855758667,0.004791259765625,0.02022976242005825,-0.012776692397892475
18236696658150,-1.213860273361206,-9.72165584564209,-0.10773907601833344,0.0023956298828125,0.0204959437251091,-0.010381062515079975
18236697895625,-1.2114660739898682,-9.709685325622559,-0.13407529890537262,0.00984870083630085,0.0244886614382267,-0.00984870083630085
18236699133100,-1.2342109680175781,-9.710882186889648,-0.16639702022075653,0.014373779296875,0.01836649514734745,-0.00958251953125
18236700370612,-1.2485761642456055,-9.739612579345703,-0.16400282084941864,0.00958251953125,0.0191650390625,-0.012510511092841625
18236701608112,-1.2509703636169434,-9.728838920593262,-0.13407529890537262,0.010913425125181675,0.0196974016726017,-0.0167694091796875
18236702845612,-1.2401964664459229,-9.715670585632324,-0.1412578970193863,0.012510511092841625,0.01650322787463665,-0.01703559048473835
18236704083087,-1.2342109680175781,-9.763554573059082,-0.1759738326072693,0.01171196810901165,0.013042873702943325,-0.0090501569211483
18236705320600,-1.2102689743041992,-9.781511306762695,-0.1280897855758667,0.012510511092841625,0.0191650390625,-0.00984870083630085
18236706558087,-1.236605167388916,-9.78869342803955,-0.17238251864910126,0.012510511092841625,0.01756795309484005,-0.01117960549890995
18236707795575,-1.2210428714752197,-9.773131370544434,-0.1867477297782898,0.01224433071911335,0.01650322787463665,-0.014373779296875
18236709033075,-1.1994950771331787,-9.774328231811523,-0.17238251864910126,0.0114457868039608,0.01703559048473835,-0.01224433071911335
18236710270550,-1.2042834758758545,-9.789891242980957,-0.16400282084941864,0.01224433071911335,0.012510511092841625,-0.00984870083630085
18236711508037,-1.217451572418213,-9.743204116821289,-0.19632454216480255,0.014906140975654125,0.01756795309484005,-0.008251613937318325
18236712745537,-1.2114660739898682,-9.761160850524902,-0.1867477297782898,0.01463996060192585,0.0162370465695858,-0.0090501569211483
18236713983025,-1.216254472732544,-9.765949249267578,-0.11851298809051514,0.012510511092841625,0.01650322787463665,-0.008783976547420025
18236715220512,-1.1791443824768066,-9.81143856048584,-0.14006079733371735,0.01171196810901165,0.015438503585755825,-0.01224433071911335
18236716458025,-1.2473790645599365,-9.75517463684082,-0.19273324310779572,0.010114881210029125,0.0162370465695858,-0.012776692397892475
18236717695512,-1.2078747749328613,-9.739612579345703,-0.1041477769613266,0.0114457868039608,0.00931633822619915,-0.01171196810901165
18236718933012,-1.1959037780761719,-9.731232643127441,-0.1388636976480484,0.008517795242369175,0.0157046839594841,-0.012510511092841625
18236720170512,-1.2090718746185303,-9.724050521850586,-0.11611878126859665,0.012510511092841625,0.0114457868039608,-0.010647243820130825
18236721407987,-1.2198457717895508,-9.690531730651855,-0.11971008777618408,0.00958251953125,0.0090501569211483,-0.007985432632267475
18236722645487,-1.192312479019165,-9.666589736938477,-0.15083470940589905,0.010114881210029125,0.010381062515079975,-0.005589802749454975
18236723882975,-1.2186486721038818,-9.710882186889648,-0.14484921097755432,0.00931633822619915,0.013042873702943325,-0.010913425125181675
18236725120475,-1.1587936878204346,-9.68813705444336,-0.11611878126859665,0.0138414166867733,0.008783976547420025,-0.010381062515079975
18236726357950,-1.1528080701828003,-9.68933391571045,-0.1388636976480484,0.0138414166867733,0.006122165359556675,-0.00958251953125
18236727595462,-1.216254472732544,-9.690531730651855,-0.13048399984836578,0.00984870083630085,0.005057440605014563,-0.008783976547420025
18236728832950,-1.2258312702178955,-9.6989107131958,-0.17238251864910126,0.013042873702943325,0.0042588976211845875,-0.007985432632267475
18236730070437,-1.1994950771331787,-9.684545516967773,-0.1843535304069519,0.0119781494140625,0.00692070834338665,-0.006122165359556675
18236731307937,-1.1887211799621582,-9.708487510681152,-0.21547815203666687,0.01410759799182415,0.003460354171693325,-0.0090501569211483
18236732545412,-1.173158884048462,-9.712079048156738,-0.1604115217924118,0.01410759799182415,0.0005323622026480734,-0.0039927163161337376
18236733782912,-1.215057373046875,-9.720458984375,-0.22864626348018646,0.014373779296875,0.006122165359556675,0.0005323622026480734
18236735020400,-1.2066776752471924,-9.724050521850586,-0.18076223134994507,0.0138414166867733,0.0021294488105922937,-0.00452507846057415
18236736257875,-1.2078747749328613,-9.770737648010254,-0.20709845423698425,0.0173017717897892,0.0010647244052961469,-0.0023956298828125
18236737495375,-1.173158884048462,-9.763554573059082,-0.2082955539226532,0.0162370465695858,0.003460354171693325,-0.0018632676219567657
18236738732887,-1.235408067703247,-9.801861763000488,-0.23582887649536133,0.01836649514734745,-0.00452507846057415,-0.0031941730994731188
18236739970362,-1.2342109680175781,-9.870096206665039,-0.16998831927776337,0.012510511092841625,-0.0023956298828125,0.0013309054775163531
18236741207850,-1.2485761642456055,-9.849745750427246,-0.12090718746185303,0.0173017717897892,-0.0021294488105922937,-0.0023956298828125
18236742445362,-1.2258312702178955,-9.804256439208984,-0.13168109953403473,0.01836649514734745,-0.005057440605014563,-0.0002661811013240367
18236743682850,-1.2114660739898682,-9.847352027893066,-0.12449848651885986,0.02076212503015995,-0.005855984054505825,0.0031941730994731188
18236744920350,-1.2485761642456055,-9.815030097961426,-0.15801730751991272,0.015172322280704975,0.0005323622026480734,0.0037265352439135313
18236746157825,-1.2330138683319092,-9.815030097961426,-0.15682020783424377,0.01650322787463665,-0.0015970865497365594,0.0031941730994731188
18236747395325,-1.2282254695892334,-9.816226959228516,-0.15322890877723694,0.01410759799182415,-0.003460354171693325,0.0023956298828125
18236748632825,-1.1994950771331787,-9.789891242980957,-0.14484921097755432,0.01597086526453495,-0.004791259765625,0.004791259765625
18236749870325,-1.193509578704834,-9.799468040466309,-0.12330138683319092,0.013309055007994175,-0.0029279920272529125,0.007453070487827063
18236751107800,-1.2246341705322266,-9.769539833068848,-0.11372458189725876,0.00452507846057415,-0.0031941730994731188,0.010647243820130825
18236752345287,-1.1971008777618408,-9.732430458068848,-0.13168109953403473,0.00692070834338665,-0.00931633822619915,0.012510511092841625
18236753582787,-1.1743559837341309,-9.714473724365234,-0.15562310814857483,0.01117960549890995,-0.010913425125181675,0.012776692397892475
18236754820275,-1.2222399711608887,-9.746795654296875,-0.16160862147808075,0.010381062515079975,-0.00692070834338665,0.008517795242369175
18236756057775,-1.1767501831054688,-9.728838920593262,-0.17956513166427612,0.00692070834338665,-0.00452507846057415,0.00931633822619915
18236757295275,-1.171961784362793,-9.7420072555542,-0.15322890877723694,0.006122165359556675,-0.0090501569211483,0.010647243820130825
18236758532750,-1.2509703636169434,-9.75158405303955,-0.18315643072128296,0.007453070487827063,-0.01117960549890995,0.010913425125181675
18236759770237,-1.2318167686462402,-9.758766174316406,-0.18555063009262085,0.0114457868039608,-0.01756795309484005,0.01224433071911335
18236761007737,-1.2210428714752197,-9.804256439208984,-0.16160862147808075,0.0090501569211483,-0.01943122036755085,0.015438503585755825
18236762245237,-1.2533645629882812,-9.829395294189453,-0.1975216418504715,0.0071868896484375,-0.013309055007994175,0.01889885775744915
18236763482725,-1.2832921743392944,-9.769539833068848,-0.23104046285152435,0.005057440605014563,-0.0114457868039608,0.01224433071911335
18236764720225,-1.2952631711959839,-9.830592155456543,-0.19632454216480255,0.0015970865497365594,-0.015172322280704975,0.012510511092841625
18236765957700,-1.2820950746536255,-9.798270225524902,-0.19632454216480255,-0.0023956298828125,-0.015172322280704975,0.010913425125181675
18236767195200,-1.258152961730957,-9.831789016723633,-0.19632454216480255,0.003460354171693325,-0.0173017717897892,0.013309055007994175
18236768432675,-1.2689268589019775,-9.804256439208984,-0.14844051003456116,0.0013309054775163531,-0.01836649514734745,0.01171196810901165
18236769670175,-1.2808979749679565,-9.824606895446777,-0.18914192914962769,-0.0039927163161337376,-0.01650322787463665,0.01597086526453495
18236770907675,-1.313219666481018,-9.856928825378418,-0.17836803197860718,-0.0005323622026480734,-0.0196974016726017,0.0228915736079216
18236772145175,-1.258152961730957,-9.855731010437012,-0.18315643072128296,-0.0039927163161337376,-0.01597086526453495,0.01703559048473835
18236773382675,-1.260547161102295,-9.861717224121094,-0.18076223134994507,-0.005855984054505825,-0.0173017717897892,0.0114457868039608
18236774620150,-1.2653355598449707,-9.8784761428833,-0.18914192914962769,-0.0026618109550327063,-0.0173017717897892,0.012510511092841625
18236775857650,-1.2473790645599365,-9.852140426635742,-0.19871874153614044,-0.0039927163161337376,-0.0173017717897892,0.015438503585755825
18236777095150,-1.2497732639312744,-9.840168952941895,-0.19632454216480255,-0.010647243820130825,-0.0167694091796875,0.0186326764523983
18236778332637,-1.258152961730957,-9.852140426635742,-0.22505496442317963,-0.01703559048473835,-0.02022976242005825,0.015438503585755825
18236779570125,-1.2832921743392944,-9.847352027893066,-0.14365209639072418,-0.01650322787463665,-0.02182685025036335,0.01597086526453495
18236780807637,-1.2808979749679565,-9.828198432922363,-0.1364694982767105,-0.01650322787463665,-0.02076212503015995,0.0157046839594841
18236782045125,-1.2413935661315918,-9.817423820495605,-0.1604115217924118,-0.0157046839594841,-0.0215606689453125,0.01463996060192585
18236783282600,-1.3000515699386597,-9.78869342803955,-0.14245499670505524,-0.0196974016726017,-0.0220930315554142,0.015438503585755825
18236784520100,-1.2844892740249634,-9.756372451782227,-0.20231004059314728,-0.01597086526453495,-0.02262539230287075,0.01889885775744915
18236785757587,-1.2737152576446533,-9.81143856048584,-0.20709845423698425,-0.010114881210029125,-0.0268842913210392,0.01756795309484005
18236786995075,-1.2294225692749023,-9.77672290802002,-0.19033904373645782,-0.0191650390625,-0.023956298828125,0.02422248013317585
18236788232575,-1.2808979749679565,-9.797073364257812,-0.2346317619085312,-0.0228915736079216,-0.0196974016726017,0.0157046839594841
18236789470062,-1.2844892740249634,-9.806650161743164,-0.19273324310779572,-0.023956298828125,-0.01889885775744915,0.013309055007994175
18236790707550,-1.2629413604736328,-9.799468040466309,-0.18794482946395874,-0.02502102218568325,-0.02369011752307415,0.02262539230287075
18236791945062,-1.3060370683670044,-9.747992515563965,-0.18555063009262085,-0.0228915736079216,-0.0258195661008358,0.0271504707634449
18236793182537,-1.2976573705673218,-9.824606895446777,-0.1843535304069519,-0.02661811001598835,-0.0306108258664608,0.0204959437251091
18236794420050,-1.2641384601593018,-9.769539833068848,-0.21428105235099792,-0.0271504707634449,-0.0295461006462574,0.0181003138422966
18236795657525,-1.2725181579589844,-9.770737648010254,-0.16639702022075653,-0.0268842913210392,-0.0263519287109375,0.0220930315554142
18236796895037,-1.2521674633026123,-9.806650161743164,-0.15682020783424377,-0.02661811001598835,-0.0322079136967659,0.0258195661008358
18236798132525,-1.2617442607879639,-9.804256439208984,-0.2561795711517334,-0.0252872034907341,-0.03034464456140995,0.02182685025036335
18236799370000,-1.291671872138977,-9.765949249267578,-0.21308395266532898,-0.0314093679189682,-0.0314093679189682,0.02369011752307415
18236800607500,-1.3192051649093628,-9.743204116821289,-0.2059013545513153,-0.0324740931391716,-0.0322079136967659,0.02262539230287075
18236801845012,-1.3239935636520386,-9.785102844238281,-0.22026655077934265,-0.02874755859375,-0.0300784632563591,0.0210283063352108
18236803082512,-1.3263877630233765,-9.77672290802002,-0.1951274424791336,-0.0316755510866642,-0.0338049978017807,0.0204959437251091
18236804319975,-1.2773066759109497,-9.77791976928711,-0.181959331035614,-0.0359344482421875,-0.0338049978017807,0.0181003138422966
18236805557475,-1.3263877630233765,-9.734824180603027,-0.21308395266532898,-0.0306108258664608,-0.0282151959836483,0.0191650390625
18236806794962,-1.3036428689956665,-9.724050521850586,-0.20111294090747833,-0.0311431884765625,-0.02848137728869915,0.0210283063352108
18236808032462,-1.3311761617660522,-9.71926212310791,-0.23822307586669922,-0.0346035435795784,-0.0314093679189682,0.02076212503015995
18236809269962,-1.3455413579940796,-9.690531730651855,-0.21428105235099792,-0.0330064557492733,-0.0338049978017807,0.02422248013317585
18236810507437,-1.3311761617660522,-9.666589736938477,-0.20470423996448517,-0.0354020856320858,-0.0356682650744915,0.02182685025036335
18236811744937,-1.3192051649093628,-9.674968719482422,-0.17477671802043915,-0.0330064557492733,-0.0311431884765625,0.01410759799182415
18236812982437,-1.3096283674240112,-9.692925453186035,-0.20350714027881622,-0.0324740931391716,-0.02901373989880085,0.01650322787463665
18236814219912,-1.3239935636520386,-9.659406661987305,-0.2106897532939911,-0.0367329902946949,-0.0351359061896801,0.0196974016726017
18236815457400,-1.3491326570510864,-9.660603523254395,-0.21308395266532898,-0.0377977155148983,-0.0338049978017807,0.01783413253724575
18236816694900,-1.3694833517074585,-9.659406661987305,-0.2346317619085312,-0.03087700717151165,-0.0364668108522892,0.01597086526453495
18236817932387,-1.3204022645950317,-9.62947940826416,-0.22385786473751068,-0.0292799212038517,-0.0362006276845932,0.014906140975654125
18236819169900,-1.3323732614517212,-9.673771858215332,-0.28131869435310364,-0.0306108258664608,-0.0409918874502182,0.0215606689453125
18236820407387,-1.3443442583084106,-9.658209800720215,-0.19273324310779572,-0.0300784632563591,-0.0367329902946949,0.0220930315554142
18236821644875,-1.3551181554794312,-9.641449928283691,-0.22385786473751068,-0.0372653529047966,-0.0282151959836483,0.013309055007994175
18236822882362,-1.3718775510787964,-9.627084732055664,-0.19871874153614044,-0.0324740931391716,-0.0316755510866642,0.01783413253724575
18236824119862,-1.3491326570510864,-9.63187313079834,-0.18076223134994507,-0.0356682650744915,-0.0348697230219841,0.02182685025036335
18236825357350,-1.3120225667953491,-9.619902610778809,-0.27054479718208313,-0.0348697230219841,-0.0348697230219841,0.0196974016726017
18236826594850,-1.335964560508728,-9.655815124511719,-0.27653029561042786,-0.0268842913210392,-0.038063894957304,0.01650322787463665
18236827832337,-1.3527239561080933,-9.682151794433594,-0.2190694510936737,-0.0292799212038517,-0.0354020856320858,0.01463996060192585
18236829069812,-1.3694833517074585,-9.643844604492188,-0.20949265360832214,-0.0324740931391716,-0.0375315360724926,0.0138414166867733
18236830307337,-1.3323732614517212,-9.668983459472656,-0.2190694510936737,-0.0322079136967659,-0.0377977155148983,0.01171196810901165
18236831544812,-1.338358759880066,-9.68694019317627,-0.2322375625371933,-0.0311431884765625,-0.0375315360724926,0.01171196810901165
18236832782312,-1.382651448249817,-9.68694019317627,-0.2717418968677521,-0.0276828333735466,-0.038063894957304,0.0119781494140625
18236834019812,-1.3682862520217896,-9.676166534423828,-0.30047231912612915,-0.0263519287109375,-0.0367329902946949,0.012776692397892475
18236835257300,-1.3694833517074585,-9.68813705444336,-0.21188685297966003,-0.0327402763068676,-0.033272635191679,0.0071868896484375
18236836494787,-1.3946224451065063,-9.701305389404297,-0.2645592987537384,-0.0282151959836483,-0.0319417305290699,0.008517795242369175
18236837732287,-1.3239935636520386,-9.725247383117676,-0.27892449498176575,-0.0295461006462574,-0.0359344482421875,0.0119781494140625
18236838969775,-1.3455413579940796,-9.66539192199707,-0.22864626348018646,-0.02794901467859745,-0.0372653529047966,0.014373779296875
18236840207262,-1.3527239561080933,-9.683348655700684,-0.2298433631658554,-0.02555338479578495,-0.0327402763068676,0.01410759799182415
18236841444750,-1.3718775510787964,-9.68813705444336,-0.23702597618103027,-0.0247548408806324,-0.0362006276845932,0.008251613937318325
18236842682250,-1.3718775510787964,-9.673771858215332,-0.24660277366638184,-0.0268842913210392,-0.0369991734623909,0.005855984054505825
18236843919762,-1.4065935611724854,-9.691728591918945,-0.19033904373645782,-0.0282151959836483,-0.0359344482421875,0.0039927163161337376
18236845157237,-1.4018051624298096,-9.725247383117676,-0.23822307586669922,-0.02369011752307415,-0.0343373604118824,0.00452507846057415
18236846394737,-1.4065935611724854,-9.7420072555542,-0.24899697303771973,-0.02262539230287075,-0.0348697230219841,0.0015970865497365594
18236847632225,-1.3946224451065063,-9.66299819946289,-0.23343466222286224,-0.023956298828125,-0.038063894957304,0.0037265352439135313
18236848869712,-1.3970166444778442,-9.694122314453125,-0.24779987335205078,-0.02182685025036335,-0.033272635191679,0.0063883461989462376
18236850107200,-1.357512354850769,-9.708487510681152,-0.2885012924671173,-0.0204959437251091,-0.0311431884765625,0.00452507846057415
18236851344712,-1.3982137441635132,-9.677363395690918,-0.25019407272338867,-0.0252872034907341,-0.0276828333735466,0.0013309054775163531
18236852582175,-1.3958195447921753,-9.676166534423828,-0.2801215946674347,-0.0247548408806324,-0.0292799212038517,-0.0021294488105922937
18236853819675,-1.335964560508728,-9.680954933166504,-0.2908955216407776,-0.0292799212038517,-0.0282151959836483,0.0005323622026480734
18236855057175,-1.382651448249817,-9.718064308166504,-0.2849099934101105,-0.0223592109978199,-0.0252872034907341,-0.0002661811013240367
18236856294675,-1.3694833517074585,-9.703699111938477,-0.2825157940387726,-0.02076212503015995,-0.02874755859375,-0.0013309054775163531
18236857532175,-1.3611036539077759,-9.715670585632324,-0.2777273952960968,-0.01650322787463665,-0.0322079136967659,0.0021294488105922937
18236858769662,-1.3694833517074585,-9.731232643127441,-0.2585738003253937,-0.0196974016726017,-0.02794901467859745,0.0015970865497365594
18236860007150,-1.3850456476211548,-9.659406661987305,-0.24181437492370605,-0.02129448764026165,-0.03087700717151165,-0.0002661811013240367
18236861244650,-1.3611036539077759,-9.68574333190918,-0.28730419278144836,-0.0186326764523983,-0.0338049978017807,0.0
18236862482125,-1.3251906633377075,-9.668983459472656,-0.24779987335205078,-0.0186326764523983,-0.0340711809694767,0.0015970865497365594
18236863719612,-1.335964560508728,-9.684545516967773,-0.2717418968677521,-0.01756795309484005,-0.0223592109978199,0.0005323622026480734
18236864957112,-1.4185645580291748,-9.666589736938477,-0.2561795711517334,-0.01703559048473835,-0.0252872034907341,0.0
18236866194600,-1.3646949529647827,-9.636661529541016,-0.23343466222286224,-0.01703559048473835,-0.02901373989880085,-0.0023956298828125
18236867432100,-1.3730746507644653,-9.648633003234863,-0.25737667083740234,-0.0167694091796875,-0.02901373989880085,-0.0026618109550327063
18236868669600,-1.3922282457351685,-9.667786598205566,-0.23582887649536133,-0.01756795309484005,-0.0306108258664608,-0.0015970865497365594
18236869907087,-1.3694833517074585,-9.670180320739746,-0.25019407272338867,-0.01703559048473835,-0.0322079136967659,-0.0037265352439135313
18236871144575,-1.357512354850769,-9.68574333190918,-0.19273324310779572,-0.015172322280704975,-0.0295461006462574,-0.0042588976211845875
18236872382075,-1.3778630495071411,-9.646238327026367,-0.19632454216480255,-0.0114457868039608,-0.02661811001598835,0.0021294488105922937
18236873619575,-1.3838485479354858,-9.6618013381958,-0.2322375625371933,-0.008251613937318325,-0.02608574740588665,-0.0007985432748682797
18236874857062,-1.3706804513931274,-9.651026725769043,-0.25019407272338867,-0.00931633822619915,-0.02661811001598835,-0.0031941730994731188
18236876094550,-1.3766659498214722,-9.657012939453125,-0.24181437492370605,-0.010647243820130825,-0.0215606689453125,-0.0077192517928779125
18236877332062,-1.4209587574005127,-9.682151794433594,-0.2932897210121155,-0.01171196810901165,-0.02422248013317585,-0.005057440605014563
18236878569525,-1.3754688501358032,-9.666589736938477,-0.2645592987537384,-0.013309055007994175,-0.02369011752307415,-0.0053236219100654125
18236879807037,-1.3970166444778442,-9.6989107131958,-0.2454056739807129,-0.005057440605014563,-0.0234239362180233,-0.0039927163161337376
18236881044525,-1.436521053314209,-9.674968719482422,-0.24660277366638184,-0.0021294488105922937,-0.0244886614382267,-0.0066545275039970875
18236882282000,-1.4257471561431885,-9.667786598205566,-0.2669534981250763,-0.0029279920272529125,-0.02262539230287075,-0.00984870083630085
18236883519512,-1.4293384552001953,-9.694122314453125,-0.26096799969673157,-0.010114881210029125,-0.02129448764026165,-0.005589802749454975
18236884757012,-1.4772224426269531,-9.702502250671387,-0.21428105235099792,-0.010647243820130825,-0.01943122036755085,-0.0010647244052961469
18236885994487,-1.4437036514282227,-9.703699111938477,-0.23942017555236816,-0.0039927163161337376,-0.0223592109978199,0.0015970865497365594
18236887231987,-1.4329297542572021,-9.680954933166504,-0.2346317619085312,-0.0053236219100654125,-0.014373779296875,-0.00452507846057415
18236888469462,-1.3670891523361206,-9.68813705444336,-0.2621650993824005,-0.0071868896484375,-0.01650322787463665,-0.010647243820130825
18236889706962,-1.437718152999878,-9.731232643127441,-0.272938996553421,-0.010913425125181675,-0.01836649514734745,-0.007985432632267475
18236890944475,-1.3766659498214722,-9.708487510681152,-0.23582887649536133,-0.0063883461989462376,-0.0223592109978199,-0.0042588976211845875
18236892181950,-1.4257471561431885,-9.68694019317627,-0.27413609623908997,-0.0037265352439135313,-0.0210283063352108,-0.008251613937318325
18236893419450,-1.459265947341919,-9.654618263244629,-0.23822307586669922,-0.0031941730994731188,-0.0138414166867733,-0.0063883461989462376
18236894656950,-1.414973258972168,-9.66299819946289,-0.24181437492370605,-0.0063883461989462376,-0.014373779296875,-0.00984870083630085
18236895894437,-1.3658920526504517,-9.676166534423828,-0.24420857429504395,-0.00452507846057415,-0.01703559048473835,-0.00931633822619915
18236897131925,-1.3754688501358032,-9.659406661987305,-0.2346317619085312,-0.0007985432748682797,-0.0173017717897892,-0.0077192517928779125
18236898369425,-1.3646949529647827,-9.615114212036133,-0.2693476974964142,-0.0029279920272529125,-0.0167694091796875,-0.00984870083630085
18236899606912,-1.3778630495071411,-9.640253067016602,-0.24779987335205078,0.0,-0.010381062515079975,-0.004791259765625
18236900844412,-1.3946224451065063,-9.651026725769043,-0.1843535304069519,-0.0021294488105922937,-0.010913425125181675,-0.0071868896484375
18236902081887,-1.3658920526504517,-9.660603523254395,-0.23942017555236816,-0.0026618109550327063,-0.010114881210029125,-0.008517795242369175
18236903319400,-1.3563152551651,-9.654618263244629,-0.2561795711517334,0.0029279920272529125,-0.0114457868039608,-0.004791259765625
18236904556862,-1.338358759880066,-9.62947940826416,-0.23942017555236816,0.0023956298828125,-0.0114457868039608,-0.012510511092841625
18236905794375,-1.3766659498214722,-9.653421401977539,-0.26815059781074524,0.0,-0.0077192517928779125,-0.0119781494140625
18236907031875,-1.3467384576797485,-9.674968719482422,-0.2585738003253937,0.0039927163161337376,-0.0090501569211483,-0.005057440605014563
18236908269350,-1.359906554222107,-9.640253067016602,-0.26096799969673157,0.0037265352439135313,-0.01171196810901165,-0.00931633822619915
18236909506850,-1.3754688501358032,-9.68694019317627,-0.2645592987537384,0.00692070834338665,-0.008517795242369175,-0.013042873702943325
18236910744337,-1.3934253454208374,-9.718064308166504,-0.28131869435310364,0.0037265352439135313,-0.0090501569211483,-0.01171196810901165
18236911981825,-1.3503297567367554,-9.72285270690918,-0.26096799969673157,0.00452507846057415,-0.007453070487827063,-0.010114881210029125
18236913219325,-1.3467384576797485,-9.701305389404297,-0.24420857429504395,0.008783976547420025,-0.00692070834338665,-0.0031941730994731188
18236914456800,-1.3922282457351685,-9.746795654296875,-0.23343466222286224,0.0090501569211483,-0.008783976547420025,-0.00692070834338665
18236915694300,-1.3742717504501343,-9.739612579345703,-0.2753331959247589,0.007453070487827063,-0.00692070834338665,-0.00931633822619915
18236916931800,-1.359906554222107,-9.732430458068848,-0.24779987335205078,0.008517795242369175,-0.0037265352439135313,-0.00958251953125
18236918169300,-1.3898340463638306,-9.728838920593262,-0.2454056739807129,0.008783976547420025,-0.0031941730994731188,-0.008517795242369175
18236919406775,-1.3742717504501343,-9.732430458068848,-0.23942017555236816,0.005855984054505825,-0.008517795242369175,-0.008517795242369175
18236920644287,-1.3634978532791138,-9.732430458068848,-0.2537853717803955,0.0053236219100654125,-0.010647243820130825,-0.0114457868039608
18236921881775,-1.3335703611373901,-9.716867446899414,-0.23104046285152435,0.00692070834338665,-0.0090501569211483,-0.008251613937318325
18236923119275,-1.3323732614517212,-9.7420072555542,-0.2561795711517334,0.0071868896484375,-0.0015970865497365594,-0.010381062515079975
18236924356762,-1.3718775510787964,-9.714473724365234,-0.2585738003253937,0.0066545275039970875,-0.003460354171693325,-0.0077192517928779125
18236925594250,-1.3287819623947144,-9.733627319335938,-0.21667525172233582,0.0077192517928779125,-0.0053236219100654125,-0.0090501569211483
18236926831750,-1.2677297592163086,-9.750386238098145,-0.24779987335205078,0.008517795242369175,-0.0053236219100654125,-0.010114881210029125
18236928069237,-1.3036428689956665,-9.6989107131958,-0.23343466222286224,0.0066545275039970875,-0.0063883461989462376,-0.01224433071911335
18236929306737,-1.3527239561080933,-9.736021041870117,-0.23702597618103027,0.0039927163161337376,-0.005589802749454975,-0.008517795242369175
18236930544212,-1.3443442583084106,-9.746795654296875,-0.2513911724090576,0.0063883461989462376,-0.0021294488105922937,-0.010114881210029125
18236931781712,-1.3251906633377075,-9.703699111938477,-0.1999158412218094,0.0039927163161337376,-0.00452507846057415,-0.010913425125181675
18236933019212,-1.315613865852356,-9.708487510681152,-0.24420857429504395,0.0090501569211483,-0.003460354171693325,-0.006122165359556675
18236934256700,-1.3443442583084106,-9.68933391571045,-0.21547815203666687,0.0077192517928779125,-0.0039927163161337376,-0.0114457868039608
18236935494200,-1.3239935636520386,-9.691728591918945,-0.23104046285152435,0.003460354171693325,-0.0023956298828125,-0.01224433071911335
18236936731687,-1.3096283674240112,-9.733627319335938,-0.21428105235099792,0.0077192517928779125,-0.0031941730994731188,-0.00984870083630085
18236937969175,-1.3419500589370728,-9.734824180603027,-0.23942017555236816,0.00692070834338665,-0.0010647244052961469,-0.0157046839594841
18236939206675,-1.3036428689956665,-9.677363395690918,-0.2298433631658554,0.0077192517928779125,0.0007985432748682797,-0.01703559048473835
18236940444162,-1.2952631711959839,-9.68574333190918,-0.243011474609375,0.00958251953125,-0.0029279920272529125,-0.01410759799182415
18236941681662,-1.3000515699386597,-9.680954933166504,-0.19632454216480255,0.0066545275039970875,-0.006122165359556675,-0.014906140975654125
18236942919150,-1.3215993642807007,-9.678560256958008,-0.2849099934101105,0.0063883461989462376,-0.0077192517928779125,-0.015172322280704975
18236944156650,-1.290474772453308,-9.702502250671387,-0.243011474609375,0.00984870083630085,-0.0010647244052961469,-0.01171196810901165
18236945394125,-1.2856863737106323,-9.68694019317627,-0.2669534981250763,0.00692070834338665,-0.0021294488105922937,-0.01357523538172245
18236946631637,-1.259350061416626,-9.672574996948242,-0.19393034279346466,0.007985432632267475,-0.006122165359556675,-0.0114457868039608
18236947869112,-1.2952631711959839,-9.643844604492188,-0.23582887649536133,0.0077192517928779125,-0.003460354171693325,-0.010913425125181675
18236949106600,-1.2102689743041992,-9.718064308166504,-0.23343466222286224,0.0077192517928779125,-0.0071868896484375,-0.01836649514734745
18236950344100,-1.2521674633026123,-9.668983459472656,-0.24779987335205078,0.0119781494140625,-0.00692070834338665,-0.013309055007994175
18236951581587,-1.235408067703247,-9.690531730651855,-0.24181437492370605,0.01410759799182415,-0.00692070834338665,-0.01171196810901165
18236952819087,-1.2545616626739502,-9.712079048156738,-0.2214636653661728,0.014906140975654125,-0.00931633822619915,-0.010913425125181675
18236954056600,-1.2222399711608887,-9.691728591918945,-0.23343466222286224,0.00958251953125,-0.0077192517928779125,-0.013042873702943325
18236955294087,-1.259350061416626,-9.695320129394531,-0.17956513166427612,0.01224433071911335,-0.005855984054505825,-0.01357523538172245
18236956531550,-1.2258312702178955,-9.730035781860352,-0.23702597618103027,0.0173017717897892,-0.007985432632267475,-0.01410759799182415
18236957769050,-1.2653355598449707,-9.701305389404297,-0.26575639843940735,0.01703559048473835,-0.007985432632267475,-0.01463996060192585
18236959006550,-1.256955862045288,-9.66419506072998,-0.2346317619085312,0.0138414166867733,-0.004791259765625,-0.013309055007994175
18236960244037,-1.238999366760254,-9.667786598205566,-0.1951274424791336,0.0186326764523983,-0.00692070834338665,-0.010381062515079975
18236961481550,-1.2653355598449707,-9.715670585632324,-0.17717093229293823,0.01783413253724575,-0.008251613937318325,-0.01224433071911335
18236962719025,-1.2749123573303223,-9.712079048156738,-0.181959331035614,0.01756795309484005,-0.010647243820130825,-0.0162370465695858
18236963956537,-1.2318167686462402,-9.700108528137207,-0.20350714027881622,0.01650322787463665,-0.007985432632267475,-0.00931633822619915
18236965194025,-1.2461819648742676,-9.66539192199707,-0.1711854189634323,0.01836649514734745,-0.013042873702943325,-0.006122165359556675
18236966431500,-1.2282254695892334,-9.702502250671387,-0.2082955539226532,0.01889885775744915,-0.010913425125181675,-0.008517795242369175
18236967669012,-1.2521674633026123,-9.714473724365234,-0.21188685297966003,0.0173017717897892,-0.00984870083630085,-0.014906140975654125
18236968906512,-1.259350061416626,-9.68694019317627,-0.2298433631658554,0.0167694091796875,-0.008251613937318325,-0.01410759799182415
18236970143987,-1.2198457717895508,-9.713275909423828,-0.23104046285152435,0.0138414166867733,-0.00984870083630085,-0.0119781494140625
18236971381475,-1.171961784362793,-9.690531730651855,-0.1951274424791336,0.0223592109978199,-0.014373779296875,-0.01224433071911335
18236972618987,-1.2258312702178955,-9.676166534423828,-0.243011474609375,0.0223592109978199,-0.013042873702943325,-0.007453070487827063
18236973856487,-1.2521674633026123,-9.71926212310791,-0.2597709000110626,0.01889885775744915,-0.01650322787463665,-0.006122165359556675
18236975093962,-1.2473790645599365,-9.708487510681152,-0.22744916379451752,0.014906140975654125,-0.01463996060192585,-0.0090501569211483
18236976331462,-1.2198457717895508,-9.692925453186035,-0.22625206410884857,0.02555338479578495,-0.0173017717897892,-0.0090501569211483
18236977568950,-1.216254472732544,-9.691728591918945,-0.18914192914962769,0.0220930315554142,-0.01224433071911335,-0.0066545275039970875
18236978806437,-1.2653355598449707,-9.68694019317627,-0.20470423996448517,0.0157046839594841,-0.0138414166867733,-0.010114881210029125
18236980043950,-1.2282254695892334,-9.684545516967773,-0.18076223134994507,0.01650322787463665,-0.01756795309484005,-0.013042873702943325
18236981281425,-1.235408067703247,-9.694122314453125,-0.22385786473751068,0.0186326764523983,-0.01836649514734745,-0.01410759799182415
18236982518912,-1.2461819648742676,-9.671378135681152,-0.22864626348018646,0.0196974016726017,-0.01889885775744915,-0.014906140975654125
18236983756412,-1.237802267074585,-9.65222454071045,-0.19871874153614044,0.01836649514734745,-0.02022976242005825,-0.00692070834338665
18236984993900,-1.2401964664459229,-9.683348655700684,-0.22864626348018646,0.0186326764523983,-0.01889885775744915,-0.007985432632267475
18236986231400,-1.2306196689605713,-9.653421401977539,-0.19033904373645782,0.0252872034907341,-0.0204959437251091,-0.005057440605014563
18236987468887,-1.2102689743041992,-9.683348655700684,-0.19871874153614044,0.01943122036755085,-0.02022976242005825,-0.0029279920272529125
18236988706400,-1.2246341705322266,-9.677363395690918,-0.18794482946395874,0.02262539230287075,-0.0223592109978199,-0.0090501569211483
18236989943887,-1.3060370683670044,-9.682151794433594,-0.2106897532939911,0.0210283063352108,-0.0204959437251091,-0.0090501569211483
18236991181362,-1.2844892740249634,-9.710882186889648,-0.2082955539226532,0.02262539230287075,-0.01703559048473835,-0.0063883461989462376
18236992418862,-1.2725181579589844,-9.682151794433594,-0.19871874153614044,0.02262539230287075,-0.01650322787463665,-0.00692070834338665
18236993656362,-1.237802267074585,-9.697713851928711,-0.1867477297782898,0.02129448764026165,-0.02315775491297245,-0.008783976547420025
18236994893850,-1.2473790645599365,-9.674968719482422,-0.17717093229293823,0.0215606689453125,-0.0223592109978199,-0.0077192517928779125
18236996131337,-1.2533645629882812,-9.655815124511719,-0.2561795711517334,0.0252872034907341,-0.0210283063352108,-0.013309055007994175
18236997368837,-1.235408067703247,-9.673771858215332,-0.22026655077934265,0.02182685025036335,-0.01943122036755085,-0.01224433071911335
18236998606325,-1.2342109680175781,-9.645041465759277,-0.2106897532939911,0.02661811001598835,-0.02182685025036335,-0.0090501569211483
18236999843825,-1.260547161102295,-9.673771858215332,-0.20350714027881622,0.0204959437251091,-0.0210283063352108,-0.00958251953125
18237001081325,-1.237802267074585,-9.697713851928711,-0.2106897532939911,0.02182685025036335,-0.01836649514734745,-0.010913425125181675
18237002318812,-1.292868971824646,-9.691728591918945,-0.1999158412218094,0.0204959437251091,-0.0138414166867733,-0.01410759799182415
18237003556287,-1.2785037755966187,-9.68694019317627,-0.16998831927776337,0.0258195661008358,-0.0173017717897892,-0.0119781494140625
18237004793787,-1.259350061416626,-9.6989107131958,-0.15442600846290588,0.02129448764026165,-0.0173017717897892,-0.015172322280704975
18237006031287,-1.235408067703247,-9.696516990661621,-0.16400282084941864,0.02076212503015995,-0.0173017717897892,-0.0119781494140625
18237007268787,-1.3084312677383423,-9.710882186889648,-0.21547815203666687,0.02369011752307415,-0.0186326764523983,-0.014906140975654125
18237008506275,-1.2749123573303223,-9.716867446899414,-0.20350714027881622,0.023956298828125,-0.0191650390625,-0.0119781494140625
18237009743762,-1.2533645629882812,-9.732430458068848,-0.23104046285152435,0.0196974016726017,-0.0220930315554142,-0.015438503585755825
18237010981250,-1.2737152576446533,-9.738415718078613,-0.20949265360832214,0.0210283063352108,-0.0220930315554142,-0.01996358297765255
18237012218762,-1.2665326595306396,-9.720458984375,-0.2298433631658554,0.0271504707634449,-0.0234239362180233,-0.014373779296875
18237013456250,-1.2892776727676392,-9.715670585632324,-0.20709845423698425,0.02182685025036335,-0.0191650390625,-0.00958251953125
18237014693750,-1.2437877655029297,-9.718064308166504,-0.18794482946395874,0.0210283063352108,-0.0181003138422966,-0.013309055007994175
18237015931225,-1.2306196689605713,-9.733627319335938,-0.20709845423698425,0.023956298828125,-0.02076212503015995,-0.0162370465695858
18237017168737,-1.2713210582733154,-9.739612579345703,-0.19871874153614044,0.02661811001598835,-0.0204959437251091,-0.0157046839594841
18237018406212,-1.236605167388916,-9.72285270690918,-0.18076223134994507,0.02262539230287075,-0.0204959437251091,-0.01650322787463665
18237019643712,-1.2006921768188477,-9.744400978088379,-0.20111294090747833,0.0258195661008358,-0.02502102218568325,-0.0157046839594841
18237020881212,-1.2509703636169434,-9.791088104248047,-0.1843535304069519,0.02741665206849575,-0.0234239362180233,-0.015172322280704975
18237022118700,-1.258152961730957,-9.75397777557373,-0.1628057211637497,0.0263519287109375,-0.01836649514734745,-0.012510511092841625
18237023356187,-1.2330138683319092,-9.7420072555542,-0.17956513166427612,0.02901373989880085,-0.0234239362180233,-0.010913425125181675
18237024593675,-1.2617442607879639,-9.767146110534668,-0.19632454216480255,0.02555338479578495,-0.02422248013317585,-0.00958251953125
18237025831175,-1.2629413604736328,-9.740809440612793,-0.14604631066322327,0.0263519287109375,-0.0204959437251091,-0.01171196810901165
18237027068675,-1.2485761642456055,-9.715670585632324,-0.16639702022075653,0.03034464456140995,-0.0252872034907341,-0.0119781494140625
18237028306175,-1.216254472732544,-9.713275909423828,-0.15801730751991272,0.02794901467859745,-0.02502102218568325,-0.015438503585755825
18237029543650,-1.2114660739898682,-9.678560256958008,-0.1472434103488922,0.02661811001598835,-0.0223592109978199,-0.0114457868039608
18237030781162,-1.2413935661315918,-9.68813705444336,-0.11133038252592087,0.0300784632563591,-0.02661811001598835,-0.008783976547420025
18237032018637,-1.215057373046875,-9.684545516967773,-0.11851298809051514,0.0322079136967659,-0.0247548408806324,-0.0119781494140625
18237033256150,-1.2018892765045166,-9.677363395690918,-0.1759738326072693,0.03087700717151165,-0.0215606689453125,-0.01943122036755085
18237034493625,-1.212663173675537,-9.676166534423828,-0.1364694982767105,0.033272635191679,-0.0223592109978199,-0.01756795309484005
18237035731125,-1.2258312702178955,-9.666589736938477,-0.18794482946395874,0.033538818359375,-0.02661811001598835,-0.01703559048473835
18237036968625,-1.237802267074585,-9.654618263244629,-0.12928690016269684,0.0327402763068676,-0.0247548408806324,-0.01117960549890995
18237038206125,-1.237802267074585,-9.68574333190918,-0.13287819921970367,0.0367329902946949,-0.0228915736079216,-0.00958251953125
18237039443600,-1.2186486721038818,-9.667786598205566,-0.1412578970193863,0.02741665206849575,-0.0204959437251091,-0.01463996060192585
18237040681100,-1.236605167388916,-9.738415718078613,-0.14365209639072418,0.02848137728869915,-0.02369011752307415,-0.014373779296875
18237041918587,-1.2449848651885986,-9.713275909423828,-0.15801730751991272,0.0351359061896801,-0.0252872034907341,-0.01756795309484005
18237043156075,-1.2856863737106323,-9.6989107131958,-0.17477671802043915,0.0356682650744915,-0.0204959437251091,-0.0157046839594841
18237044393562,-1.216254472732544,-9.720458984375,-0.1999158412218094,0.0322079136967659,-0.0220930315554142,-0.015172322280704975
18237045631075,-1.2246341705322266,-9.745597839355469,-0.1867477297782898,0.0346035435795784,-0.0247548408806324,-0.01410759799182415
18237046868550,-1.2102689743041992,-9.7420072555542,-0.19033904373645782,0.038330078125,-0.02182685025036335,-0.0119781494140625
18237048106050,-1.2318167686462402,-9.77552604675293,-0.18555063009262085,0.0343373604118824,-0.0311431884765625,-0.010114881210029125
18237049343537,-1.2342109680175781,-9.769539833068848,-0.1843535304069519,0.033538818359375,-0.0306108258664608,-0.013309055007994175
18237050581037,-1.2713210582733154,-9.746795654296875,-0.19033904373645782,0.033272635191679,-0.02369011752307415,-0.01756795309484005
18237051818537,-1.2270283699035645,-9.738415718078613,-0.15801730751991272,0.0268842913210392,-0.02555338479578495,-0.01410759799182415
18237053056025,-1.2258312702178955,-9.786299705505371,-0.20231004059314728,0.0319417305290699,-0.0271504707634449,-0.0157046839594841
18237054293525,-1.2677297592163086,-9.764751434326172,-0.16998831927776337,0.0292799212038517,-0.02608574740588665,-0.015438503585755825
18237055531000,-1.2844892740249634,-9.7791166305542,-0.15921440720558167,0.03034464456140995,-0.0300784632563591,-0.00984870083630085
18237056768512,-1.2066776752471924,-9.78869342803955,-0.1364694982767105,0.02981228195130825,-0.02661811001598835,-0.012776692397892475
18237058006000,-1.237802267074585,-9.764751434326172,-0.14365209639072418,0.02262539230287075,-0.02369011752307415,-0.014373779296875
18237059243462,-1.2186486721038818,-9.806650161743164,-0.16998831927776337,0.0252872034907341,-0.0234239362180233,-0.01117960549890995
18237060480950,-1.1971008777618408,-9.828198432922363,-0.1472434103488922,0.03034464456140995,-0.0263519287109375,-0.0066545275039970875
18237061718475,-1.2725181579589844,-9.77791976928711,-0.14006079733371735,0.02848137728869915,-0.02555338479578495,-0.010913425125181675
18237062955975,-1.236605167388916,-9.81143856048584,-0.13287819921970367,0.0292799212038517,-0.0276828333735466,-0.0114457868039608
18237064193475,-1.2689268589019775,-9.827000617980957,-0.14844051003456116,0.02369011752307415,-0.0234239362180233,-0.0077192517928779125
18237065430950,-1.256955862045288,-9.815030097961426,-0.1472434103488922,0.02369011752307415,-0.02555338479578495,-0.0138414166867733
18237066668437,-1.2521674633026123,-9.818621635437012,-0.1364694982767105,0.02555338479578495,-0.02315775491297245,-0.01117960549890995
18237067905912,-1.2677297592163086,-9.840168952941895,-0.1388636976480484,0.0263519287109375,-0.02315775491297245,-0.008783976547420025
18237069143425,-1.2641384601593018,-9.789891242980957,-0.10534487664699554,0.01836649514734745,-0.01943122036755085,-0.0066545275039970875
18237070380925,-1.2856863737106323,-9.825803756713867,-0.16519992053508759,0.01597086526453495,-0.0173017717897892,-0.00958251953125
18237071618412,-1.2725181579589844,-9.807847023010254,-0.16519992053508759,0.01889885775744915,-0.01783413253724575,-0.008251613937318325
18237072855912,-1.2856863737106323,-9.837775230407715,-0.16160862147808075,0.02076212503015995,-0.0181003138422966,-0.005057440605014563
18237074093400,-1.2844892740249634,-9.817423820495605,-0.15801730751991272,0.01703559048473835,-0.0210283063352108,-0.005057440605014563
18237075330900,-1.2306196689605713,-9.821015357971191,-0.16519992053508759,0.012510511092841625,-0.01756795309484005,-0.008783976547420025
18237076568400,-1.2545616626739502,-9.77552604675293,-0.13168109953403473,0.01703559048473835,-0.0186326764523983,-0.00452507846057415
18237077805887,-1.2868834733963013,-9.81143856048584,-0.1472434103488922,0.014906140975654125,-0.02555338479578495,0.0015970865497365594
18237079043387,-1.258152961730957,-9.853337287902832,-0.12090718746185303,0.0157046839594841,-0.02262539230287075,-0.0015970865497365594
18237080280875,-1.2832921743392944,-9.791088104248047,-0.11851298809051514,0.01357523538172245,-0.02022976242005825,-0.005589802749454975
18237081518375,-1.2689268589019775,-9.770737648010254,-0.14844051003456116,0.010913425125181675,-0.02022976242005825,-0.006122165359556675
18237082755862,-1.2545616626739502,-9.773131370544434,-0.1412578970193863,0.015172322280704975,-0.0223592109978199,-0.0039927163161337376
18237083993350,-1.2689268589019775,-9.763554573059082,-0.1628057211637497,0.01597086526453495,-0.0204959437251091,-0.005057440605014563
18237085230862,-1.2461819648742676,-9.78869342803955,-0.12928690016269684,0.015438503585755825,-0.01996358297765255,-0.0015970865497365594
18237086468337,-1.2545616626739502,-9.763554573059082,-0.12210428714752197,0.01756795309484005,-0.0173017717897892,0.003460354171693325
18237087705837,-1.2749123573303223,-9.720458984375,-0.10773907601833344,0.015438503585755825,-0.02076212503015995,0.0026618109550327063
18237088943312,-1.2952631711959839,-9.7420072555542,-0.09696517139673233,0.0138414166867733,-0.01783413253724575,-0.0053236219100654125
18237090180825,-1.292868971824646,-9.732430458068848,-0.12090718746185303,0.014906140975654125,-0.01943122036755085,-0.0029279920272529125
18237091418312,-1.258152961730957,-9.769539833068848,-0.13766659796237946,0.0114457868039608,-0.01783413253724575,-0.0018632676219567657
18237092655787,-1.256955862045288,-9.734824180603027,-0.08619125932455063,0.00984870083630085,-0.0090501569211483,-0.008783976547420025
18237093893287,-1.2820950746536255,-9.749189376831055,-0.10893617570400238,0.0138414166867733,-0.01117960549890995,-0.0066545275039970875
18237095130787,-1.258152961730957,-9.734824180603027,-0.11133038252592087,0.01410759799182415,-0.014373779296875,-0.004791259765625
18237096368262,-1.236605167388916,-9.756372451782227,-0.13766659796237946,0.01410759799182415,-0.01703559048473835,-0.0023956298828125
18237097605775,-1.2306196689605713,-9.758766174316406,-0.07062894850969315,0.014373779296875,-0.0162370465695858,-0.003460354171693325
18237098843275,-1.2222399711608887,-9.734824180603027,-0.11133038252592087,0.01171196810901165,-0.01410759799182415,-0.0077192517928779125
18237100080762,-1.2282254695892334,-9.712079048156738,-0.12928690016269684,0.0173017717897892,-0.012776692397892475,-0.0063883461989462376
18237101318250,-1.2342109680175781,-9.737218856811523,-0.1280897855758667,0.02022976242005825,-0.0157046839594841,-0.005589802749454975
18237102555750,-1.238999366760254,-9.744400978088379,-0.12210428714752197,0.01756795309484005,-0.014906140975654125,-0.010381062515079975
18237103793237,-1.291671872138977,-9.745597839355469,-0.1149216815829277,0.0191650390625,-0.01597086526453495,-0.010913425125181675
18237105030712,-1.236605167388916,-9.75158405303955,-0.11013327538967133,0.01703559048473835,-0.0157046839594841,-0.007985432632267475
18237106268212,-1.235408067703247,-9.757569313049316,-0.1472434103488922,0.0157046839594841,-0.01410759799182415,-0.0114457868039608
18237107505700,-1.2114660739898682,-9.764751434326172,-0.1149216815829277,0.01463996060192585,-0.013309055007994175,-0.0114457868039608
18237108743212,-1.2198457717895508,-9.731232643127441,-0.10654197633266449,0.01836649514734745,-0.00958251953125,-0.013042873702943325
18237109980687,-1.215057373046875,-9.75158405303955,-0.09457096457481384,0.02182685025036335,-0.00931633822619915,-0.010647243820130825
18237111218187,-1.2449848651885986,-9.740809440612793,-0.10175357013940811,0.0186326764523983,-0.012510511092841625,-0.0162370465695858
18237112455687,-1.2773066759109497,-9.739612579345703,-0.09696517139673233,0.01996358297765255,-0.015438503585755825,-0.0157046839594841
18237113693187,-1.2449848651885986,-9.728838920593262,-0.08978256583213806,0.0196974016726017,-0.01703559048473835,-0.0173017717897892
18237114930675,-1.2725181579589844,-9.718064308166504,-0.05746084079146385,0.0204959437251091,-0.010381062515079975,-0.0191650390625
18237116168150,-1.215057373046875,-9.756372451782227,-0.04908113554120064,0.0244886614382267,-0.008517795242369175,-0.01597086526453495
18237117405650,-1.2401964664459229,-9.744400978088379,-0.07661445438861847,0.0228915736079216,-0.01357523538172245,-0.0157046839594841
18237118643162,-1.216254472732544,-9.731232643127441,-0.11133038252592087,0.0215606689453125,-0.013042873702943325,-0.01650322787463665
18237119880650,-1.2042834758758545,-9.736021041870117,-0.1041477769613266,0.02369011752307415,-0.010913425125181675,-0.015438503585755825
18237121118137,-1.2258312702178955,-9.745597839355469,-0.0802057608962059,0.02315775491297245,-0.01171196810901165,-0.0196974016726017
18237122355662,-1.238999366760254,-9.728838920593262,-0.09935937076807022,0.02315775491297245,-0.010913425125181675,-0.02262539230287075
18237123593112,-1.215057373046875,-9.763554573059082,-0.11971008777618408,0.0228915736079216,-0.007985432632267475,-0.0258195661008358
18237124830612,-1.259350061416626,-9.816226959228516,-0.13048399984836578,0.02848137728869915,-0.00958251953125,-0.0204959437251091
18237126068112,-1.215057373046875,-9.771934509277344,-0.13407529890537262,0.0234239362180233,-0.00958251953125,-0.01836649514734745
18237127305612,-1.2318167686462402,-9.747992515563965,-0.13407529890537262,0.0282151959836483,-0.0071868896484375,-0.0191650390625
18237128543100,-1.235408067703247,-9.75517463684082,-0.08379705995321274,0.03087700717151165,-0.004791259765625,-0.01410759799182415
18237129780587,-1.216254472732544,-9.749189376831055,-0.07182604819536209,0.0282151959836483,-0.012510511092841625,-0.0210283063352108
18237131018075,-1.1839327812194824,-9.703699111938477,-0.12090718746185303,0.02874755859375,-0.0071868896484375,-0.0210283063352108
18237132255575,-1.2521674633026123,-9.761160850524902,-0.090979665517807,0.0354020856320858,-0.004791259765625,-0.01597086526453495
18237133493075,-1.2485761642456055,-9.743204116821289,-0.1173158809542656,0.0338049978017807,-0.0053236219100654125,-0.0228915736079216
18237134730550,-1.213860273361206,-9.725247383117676,-0.08259996026754379,0.03087700717151165,-0.0066545275039970875,-0.02369011752307415
18237135968050,-1.1683704853057861,-9.758766174316406,-0.11252748221158981,0.0324740931391716,-0.0042588976211845875,-0.01996358297765255
18237137205562,-1.1599907875061035,-9.736021041870117,-0.07302315533161163,0.0330064557492733,-0.0023956298828125,-0.01783413253724575
18237138443025,-1.1803414821624756,-9.736021041870117,-0.09576807171106339,0.0340711809694767,-0.0053236219100654125,-0.0173017717897892
18237139680537,-1.2090718746185303,-9.743204116821289,-0.13168109953403473,0.0292799212038517,-0.0066545275039970875,-0.0186326764523983
18237140918012,-1.1851298809051514,-9.763554573059082,-0.06584054976701736,0.0316755510866642,-0.008517795242369175,-0.0138414166867733
18237142155525,-1.192312479019165,-9.75278091430664,-0.08140286058187485,0.0330064557492733,-0.006122165359556675,-0.01756795309484005
18237143393012,-1.2102689743041992,-9.738415718078613,-0.03711012750864029,0.0282151959836483,-0.0039927163161337376,-0.02129448764026165
18237144630500,-1.1887211799621582,-9.732430458068848,-0.0933738648891449,0.02901373989880085,-0.0077192517928779125,-0.0181003138422966
18237145868025,-1.1444283723831177,-9.71926212310791,-0.11851298809051514,0.0343373604118824,-0.0002661811013240367,-0.01943122036755085
18237147105512,-1.237802267074585,-9.718064308166504,-0.07661445438861847,0.0359344482421875,-0.0039927163161337376,-0.01836649514734745
18237148343000,-1.171961784362793,-9.696516990661621,-0.07900865375995636,0.0375315360724926,-0.005057440605014563,-0.02076212503015995
18237149580487,-1.169567584991455,-9.732430458068848,-0.12689268589019775,0.0359344482421875,-0.005589802749454975,-0.012510511092841625
18237150817975,-1.1851298809051514,-9.759963035583496,-0.09457096457481384,0.02422248013317585,0.0010647244052961469,-0.0119781494140625
18237152055475,-1.1899182796478271,-9.736021041870117,-0.1256955862045288,0.0314093679189682,-0.004791259765625,-0.0157046839594841
18237153292962,-1.1635820865631104,-9.743204116821289,-0.11611878126859665,0.0362006276845932,-0.0066545275039970875,-0.0138414166867733
18237154530462,-1.1444283723831177,-9.763554573059082,-0.06584054976701736,0.0306108258664608,-0.0029279920272529125,-0.00931633822619915
18237155767950,-1.191115379333496,-9.761160850524902,-0.11372458189725876,0.02874755859375,-0.005589802749454975,-0.00984870083630085
18237157005437,-1.1803414821624756,-9.7420072555542,-0.1041477769613266,0.03087700717151165,-0.0026618109550327063,-0.008517795242369175
18237158242937,-1.1683704853057861,-9.783905029296875,-0.1149216815829277,0.02981228195130825,0.0021294488105922937,-0.014373779296875
18237159480425,-1.1815385818481445,-9.758766174316406,-0.11372458189725876,0.0311431884765625,-0.0005323622026480734,-0.0114457868039608
18237160717925,-1.1982979774475098,-9.744400978088379,-0.061052143573760986,0.033272635191679,-0.0015970865497365594,-0.0090501569211483
18237161955425,-1.2449848651885986,-9.756372451782227,-0.06464345008134842,0.0292799212038517,-0.0002661811013240367,-0.008517795242369175
18237163192937,-1.2054805755615234,-9.768342971801758,-0.10534487664699554,0.02794901467859745,-0.0023956298828125,-0.007453070487827063
18237164430400,-1.1971008777618408,-9.715670585632324,-0.10654197633266449,0.0263519287109375,-0.0018632676219567657,-0.0077192517928779125
18237165667900,-1.1803414821624756,-9.72165584564209,-0.09696517139673233,0.0263519287109375,-0.00452507846057415,-0.008251613937318325
18237166905387,-1.1791443824768066,-9.708487510681152,-0.08858546614646912,0.0244886614382267,-0.0005323622026480734,-0.0031941730994731188
18237168142875,-1.1815385818481445,-9.746795654296875,-0.090979665517807,0.0276828333735466,0.0007985432748682797,-0.007453070487827063
18237169380387,-1.1899182796478271,-9.75158405303955,-0.10295067727565765,0.0215606689453125,-0.0031941730994731188,-0.0013309054775163531
18237170617875,-1.1647791862487793,-9.81143856048584,-0.12090718746185303,0.02182685025036335,0.0,0.005057440605014563
18237171855362,-1.1348515748977661,-9.81263542175293,-0.11372458189725876,0.02369011752307415,-0.0010647244052961469,-0.0002661811013240367
18237173092862,-1.2006921768188477,-9.77552604675293,-0.12330138683319092,0.01836649514734745,-0.0002661811013240367,-0.0007985432748682797
18237174330350,-1.1815385818481445,-9.756372451782227,-0.10534487664699554,0.0167694091796875,0.0031941730994731188,-0.0037265352439135313
18237175567850,-1.2018892765045166,-9.807847023010254,-0.08379705995321274,0.015438503585755825,0.0021294488105922937,-0.0013309054775163531
18237176805350,-1.2198457717895508,-9.849745750427246,-0.10893617570400238,0.0186326764523983,0.0015970865497365594,0.0005323622026480734
18237178042850,-1.1899182796478271,-9.836577415466309,-0.09696517139673233,0.0196974016726017,0.0018632676219567657,0.0
18237179280312,-1.236605167388916,-9.828198432922363,-0.12330138683319092,0.0191650390625,0.003460354171693325,0.0039927163161337376
18237180517800,-1.1899182796478271,-9.855731010437012,-0.090979665517807,0.013042873702943325,0.0007985432748682797,0.0042588976211845875
18237181755300,-1.1803414821624756,-9.77672290802002,-0.07661445438861847,0.012510511092841625,0.007985432632267475,0.0005323622026480734
18237182992812,-1.1827356815338135,-9.816226959228516,-0.09457096457481384,0.01463996060192585,0.005057440605014563,0.006122165359556675
18237184230287,-1.2090718746185303,-9.819818496704102,-0.0694318488240242,0.01463996060192585,0.0023956298828125,0.0037265352439135313
18237185467800,-1.1444283723831177,-9.806650161743164,-0.10534487664699554,0.012776692397892475,0.005589802749454975,0.00452507846057415
18237186705300,-1.173158884048462,-9.852140426635742,-0.10534487664699554,0.01171196810901165,0.004791259765625,0.005057440605014563
18237187942775,-1.194706678390503,-9.807847023010254,-0.061052143573760986,0.00958251953125,0.006122165359556675,0.0029279920272529125
18237189180275,-1.173158884048462,-9.782708168029785,-0.07541735470294952,0.00958251953125,0.0053236219100654125,0.0029279920272529125
18237190417775,-1.216254472732544,-9.786299705505371,-0.09816227108240128,0.0066545275039970875,0.005589802749454975,0.0042588976211845875
18237191655250,-1.1791443824768066,-9.78869342803955,-0.14365209639072418,0.007453070487827063,0.010381062515079975,0.006122165359556675
18237192892762,-1.1635820865631104,-9.804256439208984,-0.10175357013940811,0.0053236219100654125,0.007985432632267475,0.007453070487827063
18237194130237,-1.1563994884490967,-9.806650161743164,-0.08379705995321274,0.0066545275039970875,0.0071868896484375,0.007985432632267475
18237195367750,-1.1683704853057861,-9.804256439208984,-0.10175357013940811,0.0021294488105922937,0.00958251953125,0.010114881210029125
18237196605225,-1.1839327812194824,-9.799468040466309,-0.08379705995321274,0.0002661811013240367,0.010913425125181675,0.005589802749454975
18237197842737,-1.2042834758758545,-9.830592155456543,-0.06703764945268631,0.0018632676219567657,0.00958251953125,0.0090501569211483
18237199080225,-1.2186486721038818,-9.794679641723633,-0.10773907601833344,0.0026618109550327063,0.0063883461989462376,0.008783976547420025
18237200317700,-1.2078747749328613,-9.806650161743164,-0.11013327538967133,-0.0018632676219567657,0.008517795242369175,0.01224433071911335
18237201555200,-1.1971008777618408,-9.80904483795166,-0.07062894850969315,0.0007985432748682797,0.010913425125181675,0.01224433071911335
18237202792712,-1.2210428714752197,-9.818621635437012,-0.07062894850969315,0.0015970865497365594,0.006122165359556675,0.010647243820130825
18237204030200,-1.1887211799621582,-9.807847023010254,-0.1388636976480484,0.0037265352439135313,0.005589802749454975,0.01224433071911335
18237205267687,-1.1647791862487793,-9.818621635437012,-0.07900865375995636,0.0005323622026480734,0.0077192517928779125,0.010647243820130825
18237206505175,-1.1492167711257935,-9.797073364257812,-0.05386953800916672,-0.0029279920272529125,0.008251613937318325,0.013309055007994175
18237207742687,-1.170764684677124,-9.774328231811523,-0.05386953800916672,-0.006122165359556675,0.010381062515079975,0.01171196810901165
18237208980187,-1.1959037780761719,-9.803058624267578,-0.03711012750864029,0.0013309054775163531,0.008783976547420025,0.01597086526453495
18237210217650,-1.1683704853057861,-9.791088104248047,-0.08738835901021957,0.0037265352439135313,0.00984870083630085,0.02022976242005825
18237211455150,-1.1851298809051514,-9.738415718078613,-0.07062894850969315,-0.0005323622026480734,0.0042588976211845875,0.015172322280704975
18237212692650,-1.1815385818481445,-9.764751434326172,-0.10055647045373917,0.0010647244052961469,0.008783976547420025,0.01410759799182415
18237213930125,-1.1959037780761719,-9.762357711791992,-0.061052143573760986,0.0007985432748682797,0.006122165359556675,0.014373779296875
18237215167625,-1.1803414821624756,-9.739612579345703,-0.08140286058187485,0.0021294488105922937,0.0039927163161337376,0.013309055007994175
18237216405125,-1.1635820865631104,-9.720458984375,-0.06584054976701736,0.0,0.004791259765625,0.01756795309484005
18237217642625,-1.192312479019165,-9.706093788146973,-0.04788403585553169,0.0018632676219567657,0.007985432632267475,0.01650322787463665
18237218880125,-1.1623849868774414,-9.714473724365234,-0.08140286058187485,0.0010647244052961469,0.0071868896484375,0.012510511092841625
18237220117600,-1.191115379333496,-9.684545516967773,-0.10175357013940811,0.0010647244052961469,0.00692070834338665,0.01357523538172245
18237221355100,-1.1540051698684692,-9.690531730651855,-0.04668693244457245,0.0010647244052961469,0.0053236219100654125,0.01463996060192585
18237222592600,-1.1336544752120972,-9.671378135681152,-0.04668693244457245,0.0015970865497365594,0.007453070487827063,0.01357523538172245
18237223830087,-1.1611878871917725,-9.660603523254395,-0.08619125932455063,0.0021294488105922937,0.008251613937318325,0.015172322280704975
18237225067587,-1.1887211799621582,-9.724050521850586,-0.08619125932455063,-0.0005323622026480734,0.00958251953125,0.01783413253724575
18237226305087,-1.1516109704971313,-9.666589736938477,-0.05027823522686958,-0.0013309054775163531,0.008517795242369175,0.0173017717897892
18237227542562,-1.194706678390503,-9.649829864501953,-0.1041477769613266,-0.0010647244052961469,0.010913425125181675,0.01703559048473835
18237228780075,-1.2066776752471924,-9.676166534423828,-0.12689268589019775,0.0010647244052961469,0.0119781494140625,0.01943122036755085
18237230017550,-1.2090718746185303,-9.655815124511719,-0.07541735470294952,0.0037265352439135313,0.0071868896484375,0.01597086526453495
18237231255037,-1.192312479019165,-9.726444244384766,-0.09217676520347595,0.0005323622026480734,0.006122165359556675,0.014906140975654125
18237232492550,-1.1803414821624756,-9.718064308166504,-0.08858546614646912,0.0023956298828125,0.007985432632267475,0.01943122036755085
18237233730050,-1.194706678390503,-9.738415718078613,-0.11971008777618408,0.0026618109550327063,0.008517795242369175,0.0220930315554142
18237234967537,-1.192312479019165,-9.746795654296875,-0.13527239859104156,0.0031941730994731188,0.0071868896484375,0.01783413253724575
18237236205025,-1.1755530834197998,-9.795876502990723,-0.14245499670505524,0.0018632676219567657,0.007985432632267475,0.01996358297765255
18237237442525,-1.2330138683319092,-9.824606895446777,-0.1256955862045288,0.00692070834338665,0.0053236219100654125,0.0252872034907341
18237238680037,-1.2186486721038818,-9.847352027893066,-0.09935937076807022,0.005057440605014563,0.0039927163161337376,0.0252872034907341
18237239917525,-1.1971008777618408,-9.895236015319824,-0.10773907601833344,0.0029279920272529125,0.0157046839594841,0.02608574740588665
18237241155000,-1.2282254695892334,-9.84495735168457,-0.1041477769613266,0.0023956298828125,0.01357523538172245,0.02741665206849575
18237242392487,-1.2318167686462402,-9.87967300415039,-0.08379705995321274,0.0007985432748682797,0.0071868896484375,0.0228915736079216
18237243630012,-1.215057373046875,-9.861717224121094,-0.06344634294509888,0.0029279920272529125,0.007985432632267475,0.0268842913210392
18237244867475,-1.1767501831054688,-9.888052940368652,-0.07781155407428741,0.003460354171693325,0.004791259765625,0.03034464456140995
18237246104975,-1.171961784362793,-9.836577415466309,-0.11013327538967133,0.0063883461989462376,0.0031941730994731188,0.02794901467859745
18237247342475,-1.1587936878204346,-9.81143856048584,-0.05027823522686958,0.0039927163161337376,0.005589802749454975,0.0324740931391716
18237248579962,-1.238999366760254,-9.792284965515137,-0.0802057608962059,0.0021294488105922937,0.0071868896484375,0.0316755510866642
18237249817450,-1.1767501831054688,-9.78869342803955,-0.04668693244457245,-0.0037265352439135313,0.005589802749454975,0.0354020856320858
18237251054962,-1.171961784362793,-9.765949249267578,-0.05267243832349777,0.0,0.005855984054505825,0.0340711809694767
18237252292450,-1.1516109704971313,-9.765949249267578,-0.05267243832349777,-0.0021294488105922937,0.005589802749454975,0.0338049978017807
18237253529937,-1.1671733856201172,-9.716867446899414,-0.04908113554120064,-0.0013309054775163531,-0.0015970865497365594,0.0369991734623909
18237254767437,-1.1432312726974487,-9.697713851928711,-0.031124621629714966,0.0029279920272529125,-0.0007985432748682797,0.0300784632563591
18237256004925,-1.193509578704834,-9.725247383117676,-0.08259996026754379,0.0026618109550327063,-0.0002661811013240367,0.033538818359375
18237257242412,-1.1563994884490967,-9.740809440612793,-0.11611878126859665,0.0013309054775163531,0.0005323622026480734,0.03087700717151165
18237258479912,-1.1647791862487793,-9.731232643127441,-0.10175357013940811,0.003460354171693325,-0.0002661811013240367,0.0340711809694767
18237259717412,-1.2186486721038818,-9.673771858215332,-0.07781155407428741,0.0090501569211483,-0.0010647244052961469,0.0356682650744915
18237260954912,-1.137245774269104,-9.765949249267578,-0.0802057608962059,0.0037265352439135313,0.0031941730994731188,0.0295461006462574
18237262192400,-1.1863269805908203,-9.761160850524902,-0.10175357013940811,0.0039927163161337376,0.0018632676219567657,0.0244886614382267
18237263429900,-1.2114660739898682,-9.747992515563965,-0.07781155407428741,-0.0023956298828125,-0.0010647244052961469,0.0292799212038517
18237264667387,-1.1971008777618408,-9.759963035583496,-0.07541735470294952,0.0023956298828125,-0.0023956298828125,0.0367329902946949
18237265904887,-1.260547161102295,-9.764751434326172,-0.11252748221158981,0.0029279920272529125,-0.0005323622026480734,0.0377977155148983
18237267142350,-1.2856863737106323,-9.813833236694336,-0.07182604819536209,0.007985432632267475,0.0015970865497365594,0.0359344482421875
18237268379862,-1.216254472732544,-9.805453300476074,-0.12210428714752197,0.005589802749454975,-0.0002661811013240367,0.0372653529047966
18237269617350,-1.2485761642456055,-9.81143856048584,-0.13527239859104156,0.0015970865497365594,-0.0021294488105922937,0.0319417305290699
18237270854837,-1.2485761642456055,-9.797073364257812,-0.11013327538967133,0.005057440605014563,-0.0029279920272529125,0.02981228195130825
18237272092350,-1.2677297592163086,-9.840168952941895,-0.13287819921970367,0.0039927163161337376,-0.0015970865497365594,0.02901373989880085
18237273329837,-1.2449848651885986,-9.825803756713867,-0.15322890877723694,-0.0021294488105922937,-0.0015970865497365594,0.0311431884765625
18237274567337,-1.2641384601593018,-9.832986831665039,-0.11372458189725876,-0.0002661811013240367,-0.005057440605014563,0.0295461006462574
18237275804825,-1.2449848651885986,-9.824606895446777,-0.12090718746185303,-0.003460354171693325,-0.0023956298828125,0.02901373989880085
18237277042325,-1.2246341705322266,-9.835380554199219,-0.1496376097202301,-0.0066545275039970875,-0.0015970865497365594,0.0258195661008358
18237278279812,-1.2102689743041992,-9.819818496704102,-0.07900865375995636,-0.005855984054505825,0.0005323622026480734,0.0311431884765625
18237279517312,-1.235408067703247,-9.827000617980957,-0.08499415963888168,-0.007985432632267475,0.0018632676219567657,0.0340711809694767
18237280754812,-1.2234370708465576,-9.806650161743164,-0.09576807171106339,-0.00692070834338665,-0.005589802749454975,0.0295461006462574
18237281992287,-1.2246341705322266,-9.78869342803955,-0.0802057608962059,-0.00984870083630085,-0.0039927163161337376,0.02794901467859745
18237283229800,-1.1767501831054688,-9.791088104248047,-0.10654197633266449,-0.0053236219100654125,-0.0053236219100654125,0.0268842913210392
18237284467312,-1.1887211799621582,-9.762357711791992,-0.10175357013940811,-0.00984870083630085,-0.0077192517928779125,0.02981228195130825
18237285704800,-1.2330138683319092,-9.75397777557373,-0.09457096457481384,-0.012510511092841625,-0.0005323622026480734,0.0228915736079216
18237286942300,-1.2521674633026123,-9.746795654296875,-0.07541735470294952,-0.0063883461989462376,0.0031941730994731188,0.0234239362180233
18237288179762,-1.2054805755615234,-9.7791166305542,-0.08738835901021957,-0.006122165359556675,-0.0002661811013240367,0.0258195661008358
18237289417250,-1.238999366760254,-9.732430458068848,-0.14484921097755432,-0.005057440605014563,0.0023956298828125,0.0268842913210392
18237290654750,-1.2054805755615234,-9.733627319335938,-0.04788403585553169,-0.006122165359556675,-0.0018632676219567657,0.0268842913210392
18237291892250,-1.2078747749328613,-9.72285270690918,-0.07062894850969315,-0.008517795242369175,-0.004791259765625,0.02262539230287075
18237293129750,-1.2401964664459229,-9.77552604675293,-0.08738835901021957,-0.0042588976211845875,-0.0015970865497365594,0.03087700717151165
18237294367237,-1.2222399711608887,-9.75397777557373,-0.06344634294509888,-0.0029279920272529125,-0.003460354171693325,0.0324740931391716
18237295604725,-1.2246341705322266,-9.706093788146973,-0.10175357013940811,-0.008783976547420025,-0.0031941730994731188,0.02608574740588665
18237296842200,-1.2713210582733154,-9.68933391571045,-0.09935937076807022,-0.0066545275039970875,0.0015970865497365594,0.0244886614382267
18237298079725,-1.237802267074585,-9.730035781860352,-0.15083470940589905,-0.0031941730994731188,-0.0018632676219567657,0.0258195661008358
18237299317212,-1.2497732639312744,-9.780314445495605,-0.11971008777618408,-0.0005323622026480734,-0.0042588976211845875,0.0295461006462574
18237300554700,-1.3012486696243286,-9.77791976928711,-0.17956513166427612,-0.005589802749454975,-0.006122165359556675,0.0295461006462574
18237301792187,-1.314416766166687,-9.71926212310791,-0.10295067727565765,-0.008251613937318325,-0.0039927163161337376,0.0306108258664608
18237303029687,-1.2689268589019775,-9.793481826782227,-0.1256955862045288,-0.00692070834338665,-0.0031941730994731188,0.0282151959836483
18237304267187,-1.292868971824646,-9.773131370544434,-0.12928690016269684,-0.0042588976211845875,-0.0042588976211845875,0.02422248013317585
18237305504675,-1.2785037755966187,-9.744400978088379,-0.11252748221158981,-0.0013309054775163531,-0.0029279920272529125,0.0316755510866642
18237306742187,-1.2952631711959839,-9.761160850524902,-0.10654197633266449,-0.0037265352439135313,-0.0018632676219567657,0.02848137728869915
18237307979662,-1.238999366760254,-9.750386238098145,-0.1388636976480484,-0.006122165359556675,-0.0018632676219567657,0.0252872034907341
18237309217175,-1.3000515699386597,-9.747992515563965,-0.16759411990642548,-0.008783976547420025,-0.005589802749454975,0.02794901467859745
18237310454650,-1.292868971824646,-9.720458984375,-0.13407529890537262,-0.00692070834338665,-0.010114881210029125,0.02848137728869915
18237311692150,-1.2773066759109497,-9.75397777557373,-0.14844051003456116,-0.0071868896484375,-0.005855984054505825,0.0282151959836483
18237312929637,-1.3108254671096802,-9.758766174316406,-0.14844051003456116,-0.00984870083630085,-0.0010647244052961469,0.0271504707634449
18237314167125,-1.3024457693099976,-9.730035781860352,-0.14006079733371735,-0.008517795242369175,-0.0021294488105922937,0.0263519287109375
18237315404625,-1.258152961730957,-9.7420072555542,-0.13407529890537262,-0.0114457868039608,-0.0063883461989462376,0.023956298828125
18237316642125,-1.2497732639312744,-9.716867446899414,-0.15083470940589905,-0.006122165359556675,-0.00958251953125,0.02794901467859745
18237317879637,-1.2868834733963013,-9.726444244384766,-0.12449848651885986,-0.0066545275039970875,-0.0021294488105922937,0.02555338479578495
18237319117125,-1.3108254671096802,-9.690531730651855,-0.11372458189725876,-0.00931633822619915,-0.0037265352439135313,0.02794901467859745
18237320354612,-1.294066071510315,-9.668983459472656,-0.1280897855758667,-0.0071868896484375,-0.0066545275039970875,0.0268842913210392
18237321592112,-1.2737152576446533,-9.68933391571045,-0.1604115217924118,-0.006122165359556675,-0.0010647244052961469,0.02262539230287075
18237322829587,-1.2844892740249634,-9.678560256958008,-0.10534487664699554,-0.010381062515079975,0.0031941730994731188,0.01836649514734745
18237324067087,-1.2976573705673218,-9.674968719482422,-0.19871874153614044,-0.0090501569211483,-0.0021294488105922937,0.0234239362180233
18237325304575,-1.2964602708816528,-9.708487510681152,-0.13766659796237946,-0.008251613937318325,-0.0021294488105922937,0.0276828333735466
18237326542075,-1.3431471586227417,-9.692925453186035,-0.10654197633266449,-0.005057440605014563,-0.0021294488105922937,0.0276828333735466
18237327779587,-1.313219666481018,-9.694122314453125,-0.11133038252592087,-0.0071868896484375,-0.0026618109550327063,0.02661811001598835
18237329017062,-1.316810965538025,-9.697713851928711,-0.14006079733371735,-0.010114881210029125,0.0029279920272529125,0.0228915736079216
18237330254575,-1.3108254671096802,-9.706093788146973,-0.13407529890537262,-0.008783976547420025,0.0015970865497365594,0.0244886614382267
18237331492062,-1.3287819623947144,-9.715670585632324,-0.1173158809542656,-0.0018632676219567657,-0.0026618109550327063,0.0311431884765625
18237332729537,-1.334767460823059,-9.725247383117676,-0.14006079733371735,-0.00931633822619915,-0.003460354171693325,0.0300784632563591
18237333967062,-1.314416766166687,-9.727641105651855,-0.1256955862045288,-0.008517795242369175,0.0,0.02794901467859745
18237335204537,-1.3515268564224243,-9.718064308166504,-0.14484921097755432,-0.00931633822619915,0.0013309054775163531,0.023956298828125
18237336442025,-1.3419500589370728,-9.701305389404297,-0.1173158809542656,-0.0071868896484375,-0.0013309054775163531,0.0247548408806324
18237337679537,-1.359906554222107,-9.75517463684082,-0.14245499670505524,-0.0077192517928779125,-0.0010647244052961469,0.02741665206849575
18237338917025,-1.2964602708816528,-9.713275909423828,-0.1149216815829277,-0.00931633822619915,0.0023956298828125,0.02848137728869915
18237340154537,-1.3299790620803833,-9.714473724365234,-0.15921440720558167,-0.00452507846057415,0.0042588976211845875,0.0311431884765625
18237341392012,-1.3611036539077759,-9.684545516967773,-0.11851298809051514,-0.0090501569211483,0.0063883461989462376,0.02741665206849575
18237342629512,-1.357512354850769,-9.726444244384766,-0.09816227108240128,-0.010913425125181675,0.0039927163161337376,0.02422248013317585
18237343867000,-1.3335703611373901,-9.714473724365234,-0.11971008777618408,-0.01117960549890995,0.004791259765625,0.02262539230287075
18237345104487,-1.3611036539077759,-9.68933391571045,-0.11851298809051514,-0.0071868896484375,0.0063883461989462376,0.02076212503015995
18237346341975,-1.3431471586227417,-9.682151794433594,-0.10654197633266449,-0.0037265352439135313,0.0010647244052961469,0.0234239362180233
18237347579475,-1.3443442583084106,-9.696516990661621,-0.1364694982767105,-0.005855984054505825,0.010647243820130825,0.0234239362180233
18237348816975,-1.3455413579940796,-9.673771858215332,-0.0802057608962059,-0.0066545275039970875,0.00984870083630085,0.02741665206849575
18237350054462,-1.3287819623947144,-9.68933391571045,-0.08499415963888168,-0.00931633822619915,0.0077192517928779125,0.02022976242005825
18237351291975,-1.3395558595657349,-9.692925453186035,-0.1388636976480484,-0.0114457868039608,0.0015970865497365594,0.01836649514734745
18237352529450,-1.3730746507644653,-9.624691009521484,-0.15562310814857483,-0.010647243820130825,0.00931633822619915,0.014373779296875
18237353766950,-1.3658920526504517,-9.647436141967773,-0.14484921097755432,-0.0063883461989462376,0.01224433071911335,0.0157046839594841
18237355004437,-1.3251906633377075,-9.636661529541016,-0.13048399984836578,-0.0090501569211483,0.0138414166867733,0.0162370465695858
18237356241937,-1.3239935636520386,-9.641449928283691,-0.10893617570400238,-0.007453070487827063,0.008783976547420025,0.01889885775744915
18237357479425,-1.3886369466781616,-9.651026725769043,-0.1388636976480484,-0.008783976547420025,0.00931633822619915,0.02022976242005825
18237358716912,-1.3311761617660522,-9.683348655700684,-0.20470423996448517,-0.003460354171693325,0.012776692397892475,0.014906140975654125
18237359954412,-1.3503297567367554,-9.678560256958008,-0.14245499670505524,-0.0039927163161337376,0.01650322787463665,0.0162370465695858
18237361191925,-1.3120225667953491,-9.666589736938477,-0.19153614342212677,0.0,0.01117960549890995,0.013042873702943325
18237362429412,-1.3215993642807007,-9.674968719482422,-0.15562310814857483,0.0039927163161337376,0.01171196810901165,0.012510511092841625
18237363666887,-1.3623007535934448,-9.653421401977539,-0.1867477297782898,-0.0018632676219567657,0.012776692397892475,0.0114457868039608
18237364904387,-1.334767460823059,-9.708487510681152,-0.1280897855758667,-0.005855984054505825,0.01463996060192585,0.01410759799182415
18237366141887,-1.3180080652236938,-9.759963035583496,-0.152031809091568,-0.0039927163161337376,0.013042873702943325,0.014373779296875
18237367379387,-1.3718775510787964,-9.713275909423828,-0.18794482946395874,-0.0007985432748682797,0.014906140975654125,0.0114457868039608
18237368616862,-1.3120225667953491,-9.718064308166504,-0.2082955539226532,-0.0021294488105922937,0.02022976242005825,0.00931633822619915
18237369854362,-1.3227964639663696,-9.763554573059082,-0.15921440720558167,-0.0023956298828125,0.015438503585755825,0.0090501569211483
18237371091850,-1.2868834733963013,-9.743204116821289,-0.17956513166427612,0.0018632676219567657,0.0119781494140625,0.0119781494140625
18237372329350,-1.3323732614517212,-9.730035781860352,-0.19273324310779572,0.0018632676219567657,0.010913425125181675,0.01410759799182415
18237373566850,-1.335964560508728,-9.694122314453125,-0.1735796183347702,0.0018632676219567657,0.00692070834338665,0.00958251953125
18237374804362,-1.314416766166687,-9.732430458068848,-0.1496376097202301,0.0021294488105922937,0.012510511092841625,0.0090501569211483
18237376041862,-1.2880805730819702,-9.746795654296875,-0.16998831927776337,0.0005323622026480734,0.015438503585755825,0.01171196810901165
18237377279325,-1.3239935636520386,-9.75278091430664,-0.15322890877723694,0.003460354171693325,0.014373779296875,0.0077192517928779125
18237378516837,-1.3180080652236938,-9.68813705444336,-0.13048399984836578,0.0029279920272529125,0.01756795309484005,0.008251613937318325
18237379754312,-1.2832921743392944,-9.728838920593262,-0.16639702022075653,0.0026618109550327063,0.014373779296875,0.0114457868039608
18237380991812,-1.290474772453308,-9.725247383117676,-0.12449848651885986,0.0029279920272529125,0.0167694091796875,0.00931633822619915
18237382229312,-1.3551181554794312,-9.720458984375,-0.13407529890537262,0.0039927163161337376,0.015172322280704975,0.010114881210029125
18237383466800,-1.2737152576446533,-9.758766174316406,-0.14844051003456116,0.003460354171693325,0.01357523538172245,0.005589802749454975
18237384704300,-1.315613865852356,-9.749189376831055,-0.16879121959209442,0.00452507846057415,0.01410759799182415,0.0066545275039970875
18237385941812,-1.2820950746536255,-9.691728591918945,-0.14844051003456116,0.00984870083630085,0.01410759799182415,0.0063883461989462376
18237387179300,-1.2785037755966187,-9.738415718078613,-0.14006079733371735,0.008783976547420025,0.01703559048473835,0.0029279920272529125
18237388416787,-1.2880805730819702,-9.7420072555542,-0.1472434103488922,0.0026618109550327063,0.0186326764523983,0.0005323622026480734
18237389654287,-1.2868834733963013,-9.710882186889648,-0.11133038252592087,0.00692070834338665,0.01117960549890995,0.0066545275039970875
18237390891762,-1.294066071510315,-9.75397777557373,-0.15801730751991272,0.0053236219100654125,0.012776692397892475,0.007453070487827063
18237392129262,-1.3000515699386597,-9.746795654296875,-0.22625206410884857,0.0007985432748682797,0.012776692397892475,0.0063883461989462376
18237393366750,-1.3036428689956665,-9.734824180603027,-0.15442600846290588,0.006122165359556675,0.01410759799182415,0.0053236219100654125
18237394604250,-1.3407529592514038,-9.718064308166504,-0.12449848651885986,0.01224433071911335,0.010647243820130825,0.0077192517928779125
18237395841750,-1.3192051649093628,-9.77552604675293,-0.15083470940589905,0.012510511092841625,0.0114457868039608,0.003460354171693325
18237397079250,-1.2725181579589844,-9.740809440612793,-0.14484921097755432,0.0039927163161337376,0.0138414166867733,0.0007985432748682797
18237398316750,-1.2892776727676392,-9.75278091430664,-0.14245499670505524,0.0010647244052961469,0.015172322280704975,-0.0026618109550327063
18237399554225,-1.3084312677383423,-9.732430458068848,-0.19393034279346466,0.0063883461989462376,0.01650322787463665,0.0053236219100654125
18237400791725,-1.2964602708816528,-9.75517463684082,-0.2190694510936737,0.0077192517928779125,0.0191650390625,0.007985432632267475
18237402029225,-1.258152961730957,-9.737218856811523,-0.19033904373645782,0.008251613937318325,0.01410759799182415,0.01171196810901165
18237403266700,-1.260547161102295,-9.738415718078613,-0.2082955539226532,0.010114881210029125,0.010913425125181675,0.0018632676219567657
18237404504200,-1.3024457693099976,-9.75158405303955,-0.14365209639072418,0.005589802749454975,0.01410759799182415,-0.0013309054775163531
18237405741700,-1.292868971824646,-9.768342971801758,-0.12090718746185303,0.008783976547420025,0.01783413253724575,-0.0010647244052961469
18237406979212,-1.314416766166687,-9.758766174316406,-0.14844051003456116,0.010913425125181675,0.0138414166867733,0.00452507846057415
18237408216675,-1.2797008752822876,-9.734824180603027,-0.17956513166427612,0.00958251953125,0.010913425125181675,0.00452507846057415
18237409454200,-1.2773066759109497,-9.733627319335938,-0.1867477297782898,0.007985432632267475,0.013042873702943325,0.0039927163161337376
18237410691662,-1.2820950746536255,-9.745597839355469,-0.15442600846290588,0.010114881210029125,0.0119781494140625,0.006122165359556675
18237411929162,-1.3096283674240112,-9.7791166305542,-0.18794482946395874,0.008783976547420025,0.010381062515079975,0.0015970865497365594
18237413166650,-1.2677297592163086,-9.749189376831055,-0.18794482946395874,0.005589802749454975,0.0157046839594841,0.0026618109550327063
18237414404150,-1.2509703636169434,-9.724050521850586,-0.16160862147808075,0.005855984054505825,0.01410759799182415,0.0029279920272529125
18237415641662,-1.2557587623596191,-9.762357711791992,-0.17238251864910126,0.0063883461989462376,0.013309055007994175,0.007985432632267475
18237416879150,-1.2808979749679565,-9.710882186889648,-0.13407529890537262,0.00692070834338665,0.0114457868039608,0.00931633822619915
18237418116637,-1.2797008752822876,-9.733627319335938,-0.13766659796237946,0.004791259765625,0.012510511092841625,0.0026618109550327063
18237419354125,-1.2856863737106323,-9.708487510681152,-0.15442600846290588,0.007453070487827063,0.01463996060192585,0.0013309054775163531
18237420591612,-1.217451572418213,-9.713275909423828,-0.18794482946395874,0.00958251953125,0.005057440605014563,0.007453070487827063
18237421829125,-1.2545616626739502,-9.715670585632324,-0.16759411990642548,0.010114881210029125,0.00958251953125,0.0077192517928779125
18237423066625,-1.2401964664459229,-9.710882186889648,-0.10534487664699554,0.0066545275039970875,0.00958251953125,0.0023956298828125
18237424304112,-1.3012486696243286,-9.736021041870117,-0.17717093229293823,0.005855984054505825,0.007985432632267475,0.0039927163161337376
18237425541612,-1.2820950746536255,-9.744400978088379,-0.15682020783424377,0.005855984054505825,0.01117960549890995,0.0026618109550327063
18237426779100,-1.2461819648742676,-9.727641105651855,-0.15083470940589905,0.0007985432748682797,0.013042873702943325,0.0023956298828125
18237428016612,-1.2509703636169434,-9.773131370544434,-0.2059013545513153,0.0037265352439135313,0.007985432632267475,0.007453070487827063
18237429254100,-1.2713210582733154,-9.789891242980957,-0.13048399984836578,0.007453070487827063,-0.0010647244052961469,0.0071868896484375
18237430491575,-1.2785037755966187,-9.75517463684082,-0.13287819921970367,0.003460354171693325,0.004791259765625,0.0039927163161337376
18237431729087,-1.2701239585876465,-9.762357711791992,-0.1472434103488922,0.0026618109550327063,0.01410759799182415,0.004791259765625
18237432966600,-1.2785037755966187,-9.756372451782227,-0.16160862147808075,0.0007985432748682797,0.012510511092841625,0.004791259765625
18237434204050,-1.2856863737106323,-9.740809440612793,-0.13527239859104156,0.0018632676219567657,0.01117960549890995,0.0021294488105922937
18237435441550,-1.2964602708816528,-9.794679641723633,-0.1735796183347702,-0.0005323622026480734,0.00931633822619915,0.00984870083630085
18237436679075,-1.3084312677383423,-9.758766174316406,-0.12928690016269684,-0.0021294488105922937,0.007453070487827063,0.0031941730994731188
18237437916550,-1.2677297592163086,-9.749189376831055,-0.18794482946395874,0.0002661811013240367,0.007453070487827063,0.005589802749454975
18237439154037,-1.294066071510315,-9.739612579345703,-0.14365209639072418,0.0026618109550327063,0.0077192517928779125,0.00984870083630085
18237440391537,-1.294066071510315,-9.774328231811523,-0.16400282084941864,0.005589802749454975,0.00984870083630085,0.0053236219100654125
18237441629037,-1.2737152576446533,-9.767146110534668,-0.15562310814857483,0.0007985432748682797,0.008251613937318325,0.0018632676219567657
18237442866512,-1.2689268589019775,-9.730035781860352,-0.18076223134994507,0.0037265352439135313,0.004791259765625,0.007985432632267475
18237444104000,-1.2820950746536255,-9.75397777557373,-0.1711854189634323,0.0037265352439135313,0.005855984054505825,0.0090501569211483
18237445341512,-1.2449848651885986,-9.728838920593262,-0.1867477297782898,0.0002661811013240367,0.0063883461989462376,0.008517795242369175
18237446578975,-1.2868834733963013,-9.727641105651855,-0.1759738326072693,-0.0010647244052961469,0.00692070834338665,0.010913425125181675
18237447816500,-1.2856863737106323,-9.743204116821289,-0.2082955539226532,0.0005323622026480734,0.0042588976211845875,0.00931633822619915
18237449053987,-1.2677297592163086,-9.789891242980957,-0.16879121959209442,0.0015970865497365594,0.0013309054775163531,0.005855984054505825
18237450291487,-1.2749123573303223,-9.728838920593262,-0.1843535304069519,0.0007985432748682797,0.005057440605014563,0.007985432632267475
18237451528987,-1.2976573705673218,-9.68574333190918,-0.14604631066322327,0.0005323622026480734,0.0114457868039608,0.00984870083630085
18237452766475,-1.2653355598449707,-9.720458984375,-0.11851298809051514,-0.0021294488105922937,0.005855984054505825,0.0077192517928779125
18237454003962,-1.2892776727676392,-9.707290649414062,-0.14484921097755432,0.0010647244052961469,0.010913425125181675,0.0031941730994731188
18237455241462,-1.2258312702178955,-9.710882186889648,-0.17477671802043915,-0.0015970865497365594,0.008783976547420025,0.008251613937318325
18237456478962,-1.3215993642807007,-9.678560256958008,-0.14484921097755432,-0.00452507846057415,0.00452507846057415,0.0071868896484375
18237457716450,-1.2413935661315918,-9.749189376831055,-0.16160862147808075,-0.0015970865497365594,0.0026618109550327063,0.007985432632267475
18237458953950,-1.2761094570159912,-9.724050521850586,-0.1735796183347702,-0.0013309054775163531,0.008783976547420025,0.0090501569211483
18237460191462,-1.3012486696243286,-9.72165584564209,-0.18315643072128296,-0.0031941730994731188,0.010647243820130825,0.005589802749454975
18237461428937,-1.2545616626739502,-9.683348655700684,-0.1759738326072693,-0.0023956298828125,0.0063883461989462376,0.00692070834338665
18237462666450,-1.260547161102295,-9.71926212310791,-0.20470423996448517,0.0013309054775163531,0.0031941730994731188,0.007985432632267475
18237463903937,-1.2521674633026123,-9.738415718078613,-0.152031809091568,-0.0005323622026480734,0.003460354171693325,0.00984870083630085
18237465141412,-1.2725181579589844,-9.702502250671387,-0.1280897855758667,-0.0010647244052961469,0.0042588976211845875,0.0077192517928779125
18237466378912,-1.3000515699386597,-9.740809440612793,-0.17477671802043915,0.0,0.0013309054775163531,0.0090501569211483
18237467616412,-1.2641384601593018,-9.733627319335938,-0.1975216418504715,-0.0037265352439135313,0.0023956298828125,0.00958251953125
18237468853912,-1.2868834733963013,-9.730035781860352,-0.17717093229293823,-0.0013309054775163531,0.0031941730994731188,0.0037265352439135313
18237470091400,-1.2557587623596191,-9.738415718078613,-0.11851298809051514,0.003460354171693325,0.0066545275039970875,0.0039927163161337376
18237471328900,-1.3263877630233765,-9.707290649414062,-0.18076223134994507,0.0021294488105922937,0.010114881210029125,0.005589802749454975
18237472566387,-1.294066071510315,-9.68574333190918,-0.14484921097755432,0.0010647244052961469,0.0071868896484375,0.0063883461989462376
18237473803900,-1.315613865852356,-9.648633003234863,-0.1711854189634323,-0.0013309054775163531,0.004791259765625,0.012510511092841625
18237475041362,-1.2641384601593018,-9.707290649414062,-0.18076223134994507,0.0010647244052961469,0.0042588976211845875,0.00958251953125
18237476278862,-1.3036428689956665,-9.668983459472656,-0.11252748221158981,0.0005323622026480734,-0.0026618109550327063,0.010114881210029125
18237477516362,-1.3299790620803833,-9.670180320739746,-0.16160862147808075,-0.0021294488105922937,0.005855984054505825,0.0077192517928779125
18237478753875,-1.3000515699386597,-9.677363395690918,-0.14484921097755432,0.0005323622026480734,0.0063883461989462376,0.01171196810901165
18237479991362,-1.3084312677383423,-9.720458984375,-0.1472434103488922,0.0,0.005057440605014563,0.008783976547420025
18237481228850,-1.3287819623947144,-9.708487510681152,-0.12449848651885986,0.0010647244052961469,0.0037265352439135313,0.0119781494140625
18237482466350,-1.3012486696243286,-9.71926212310791,-0.15801730751991272,0.0023956298828125,0.0039927163161337376,0.0138414166867733
18237483703837,-1.3000515699386597,-9.691728591918945,-0.16879121959209442,0.0029279920272529125,0.005057440605014563,0.012776692397892475
