timestamp_ns,accel_x,accel_y,accel_z,gyro_x,gyro_y,gyro_z
2558340570600,-0.4082113802433014,-9.913191795349121,0.09457096457481384,-0.02182685025036335,0.0042588976211845875,0.0393948033452034
2558341807762,-0.4357447028160095,-9.961075782775879,0.05746084079146385,-0.0223592109978199,0.0031941730994731188,0.0364668108522892
2558343044900,-0.4082113802433014,-9.9371337890625,0.05027823522686958,-0.02502102218568325,0.0013309054775163531,0.03087700717151165
2558344282050,-0.4357447028160095,-9.93474006652832,0.09696517139673233,-0.0215606689453125,0.0007985432748682797,0.0351359061896801
2558345519187,-0.44532153010368347,-9.975441932678223,0.03711012750864029,-0.0252872034907341,0.0031941730994731188,0.0343373604118824
2558346756325,-0.456095427274704,-9.941922187805176,0.04788403585553169,-0.0252872034907341,0.005589802749454975,0.03034464456140995
2558347993487,-0.424970805644989,-9.943120002746582,0.03232172504067421,-0.02981228195130825,0.004791259765625,0.02794901467859745
2558349230637,-0.45489832758903503,-9.95748519897461,0.04908113554120064,-0.0322079136967659,0.01117960549890995,0.02502102218568325
2558350467787,-0.45489832758903503,-9.97065258026123,0.02274491637945175,-0.0316755510866642,0.0031941730994731188,0.0263519287109375
2558351704925,-0.43335050344467163,-9.929951667785645,0.04788403585553169,-0.0311431884765625,0.004791259765625,0.0247548408806324
2558352942062,-0.4321534037590027,-9.922768592834473,0.07182604819536209,-0.0369991734623909,0.0090501569211483,0.023956298828125
2558354179212,-0.4189853072166443,-9.913191795349121,0.035913024097681046,-0.0372653529047966,0.0071868896484375,0.01943122036755085
2558355416375,-0.44532153010368347,-9.917980194091797,0.02513911761343479,-0.0346035435795784,0.005057440605014563,0.0186326764523983
2558356653512,-0.43335050344467163,-9.965864181518555,0.0586579404771328,-0.0377977155148983,0.010114881210029125,0.015438503585755825
2558357890650,-0.49559974670410156,-9.909601211547852,0.043095629662275314,-0.038063894957304,0.0066545275039970875,0.01996358297765255
2558359127825,-0.44173023104667664,-9.916783332824707,0.04429273307323456,-0.0356682650744915,0.005855984054505825,0.015172322280704975
2558360364937,-0.40940847992897034,-9.925163269042969,0.035913024097681046,-0.0359344482421875,0.0037265352439135313,0.01650322787463665
2558361602112,-0.4692635238170624,-9.854534149169922,0.040701430290937424,-0.0372653529047966,0.006122165359556675,0.008251613937318325
2558362839250,-0.4572925269603729,-9.841365814208984,0.06224924325942993,-0.0417904332280159,0.005589802749454975,0.0114457868039608
2558364076387,-0.4752490520477295,-9.885659217834473,0.031124621629714966,-0.0396609827876091,0.013309055007994175,0.007453070487827063
2558365313525,-0.45250412821769714,-9.849745750427246,0.06703764945268631,-0.038063894957304,0.007985432632267475,0.0013309054775163531
2558366550675,-0.4273650050163269,-9.830592155456543,0.07062894850969315,-0.0314093679189682,0.0031941730994731188,0.005057440605014563
2558367787825,-0.3926490843296051,-9.822212219238281,0.03950432687997818,-0.0354020856320858,0.004791259765625,0.00931633822619915
2558369024975,-0.4297592043876648,-9.831789016723633,0.05386953800916672,-0.0393948033452034,0.0077192517928779125,0.008783976547420025
2558370262112,-0.4692635238170624,-9.850942611694336,0.05267243832349777,-0.0367329902946949,0.0023956298828125,0.005855984054505825
2558371499262,-0.4572925269603729,-9.80904483795166,0.05386953800916672,-0.038063894957304,0.005589802749454975,0.0010647244052961469
2558372736412,-0.4165911078453064,-9.818621635437012,0.008379706181585789,-0.043121337890625,0.005589802749454975,0.0015970865497365594
2558373973562,-0.41060560941696167,-9.785102844238281,-0.004788403399288654,-0.0388624407351017,0.0071868896484375,-0.0007985432748682797
2558375210712,-0.4513070285320282,-9.804256439208984,0.019153613597154617,-0.0409918874502182,0.007453070487827063,-0.0039927163161337376
2558376447862,-0.4082113802433014,-9.825803756713867,0.015562310814857483,-0.0364668108522892,0.010114881210029125,-0.0037265352439135313
2558377685012,-0.4405331015586853,-9.765949249267578,-0.014365210197865963,-0.0359344482421875,0.007453070487827063,-0.0002661811013240367
2558378922137,-0.4273650050163269,-9.798270225524902,0.0586579404771328,-0.0391286201775074,0.007453070487827063,-0.0029279920272529125
2558380159287,-0.41299980878829956,-9.728838920593262,0.05985504388809204,-0.033538818359375,0.007453070487827063,0.0
2558381396450,-0.43095630407333374,-9.739612579345703,0.05267243832349777,-0.0343373604118824,0.005057440605014563,0.0031941730994731188
2558382633587,-0.3902548849582672,-9.739612579345703,0.0586579404771328,-0.0385962575674057,0.0015970865497365594,0.0023956298828125
2558383870737,-0.41060560941696167,-9.720458984375,0.05147533863782883,-0.0356682650744915,0.0090501569211483,0.0018632676219567657
2558385107887,-0.45010992884635925,-9.728838920593262,-0.0071826050989329815,-0.0362006276845932,0.00958251953125,0.0042588976211845875
2558386345025,-0.39863458275794983,-9.728838920593262,0.014365210197865963,-0.0306108258664608,0.007453070487827063,0.0015970865497365594
2558387582162,-0.3902548849582672,-9.747992515563965,0.019153613597154617,-0.0311431884765625,0.0042588976211845875,-0.0005323622026480734
2558388819312,-0.4345476031303406,-9.710882186889648,0.028730420395731926,-0.0306108258664608,0.0037265352439135313,-0.0005323622026480734
2558390056462,-0.4297592043876648,-9.718064308166504,0.02513911761343479,-0.0322079136967659,0.0039927163161337376,0.0005323622026480734
2558391293600,-0.37229835987091064,-9.75278091430664,0.031124621629714966,-0.02741665206849575,0.0042588976211845875,0.0007985432748682797
2558392530750,-0.35913026332855225,-9.7420072555542,0.017956512048840523,-0.0268842913210392,0.005057440605014563,0.0015970865497365594
2558393767900,-0.40462008118629456,-9.7420072555542,0.06703764945268631,-0.02661811001598835,0.004791259765625,-0.0013309054775163531
2558395005037,-0.38905778527259827,-9.718064308166504,0.05267243832349777,-0.0271504707634449,0.003460354171693325,0.0021294488105922937
2558396242200,-0.4058171808719635,-9.725247383117676,-0.021547814831137657,-0.01943122036755085,0.0042588976211845875,0.0002661811013240367
2558397479337,-0.4118027091026306,-9.72285270690918,0.010773907415568829,-0.0234239362180233,0.0026618109550327063,0.0
2558398716487,-0.3818751871585846,-9.71926212310791,0.028730420395731926,-0.0234239362180233,0.0071868896484375,0.0066545275039970875
2558399953650,-0.43933600187301636,-9.749189376831055,0.0454898327589035,-0.0210283063352108,0.004791259765625,0.006122165359556675
2558401190787,-0.40462008118629456,-9.731232643127441,0.03711012750864029,-0.01943122036755085,-0.0015970865497365594,0.003460354171693325
2558402427900,-0.41060560941696167,-9.72165584564209,-0.0059855044819414616,-0.01889885775744915,0.0023956298828125,0.005855984054505825
2558403665087,-0.39624038338661194,-9.77672290802002,0.0,-0.01836649514734745,0.0021294488105922937,0.007985432632267475
2558404902212,-0.4273650050163269,-9.732430458068848,0.026336219161748886,-0.015172322280704975,0.0063883461989462376,0.006122165359556675
2558406139362,-0.4034229815006256,-9.733627319335938,0.03232172504067421,-0.01889885775744915,0.0037265352439135313,0.0066545275039970875
2558407376500,-0.38067808747291565,-9.724050521850586,0.02992752194404602,-0.01703559048473835,0.005057440605014563,0.01224433071911335
2558408613662,-0.4141969084739685,-9.75158405303955,0.033518824726343155,-0.007985432632267475,0.0,0.0029279920272529125
2558409850800,-0.40701428055763245,-9.75158405303955,0.011971008963882923,-0.010114881210029125,-0.0010647244052961469,0.0
2558411087950,-0.41539400815963745,-9.736021041870117,0.04788403585553169,-0.01357523538172245,0.004791259765625,0.0026618109550327063
2558412325100,-0.38067808747291565,-9.731232643127441,0.0059855044819414616,-0.010114881210029125,0.0066545275039970875,0.0090501569211483
2558413562250,-0.3794809579849243,-9.7420072555542,-0.002394201699644327,-0.0077192517928779125,0.005057440605014563,0.005855984054505825
2558414799412,-0.37229835987091064,-9.718064308166504,0.013168109580874443,-0.00984870083630085,0.0007985432748682797,0.006122165359556675
2558416036537,-0.4082113802433014,-9.71926212310791,0.015562310814857483,-0.006122165359556675,0.0013309054775163531,0.008251613937318325
2558417273687,-0.35434186458587646,-9.709685325622559,0.035913024097681046,-0.0042588976211845875,0.0031941730994731188,0.0018632676219567657
2558418510825,-0.3687070608139038,-9.714473724365234,0.0694318488240242,-0.0015970865497365594,0.005855984054505825,0.0053236219100654125
2558419748000,-0.395043283700943,-9.739612579345703,0.02753331884741783,-0.0026618109550327063,0.0042588976211845875,0.007453070487827063
2558420985125,-0.41299980878829956,-9.750386238098145,0.008379706181585789,-0.0023956298828125,0.008517795242369175,0.0039927163161337376
2558422222275,-0.4058171808719635,-9.732430458068848,-0.0059855044819414616,-0.0031941730994731188,0.006122165359556675,0.0031941730994731188
2558423459425,-0.38905778527259827,-9.749189376831055,0.015562310814857483,0.0010647244052961469,0.0066545275039970875,0.0005323622026480734
2558424696575,-0.39863458275794983,-9.75397777557373,0.04788403585553169,-0.0013309054775163531,0.0026618109550327063,0.0023956298828125
2558425933725,-0.3794809579849243,-9.75278091430664,0.04668693244457245,-0.0037265352439135313,0.00452507846057415,0.0063883461989462376
2558427170862,-0.3926490843296051,-9.761160850524902,0.020350715145468712,0.0010647244052961469,0.008251613937318325,0.007985432632267475
2558428408000,-0.3818751871585846,-9.761160850524902,0.05147533863782883,0.00692070834338665,0.00452507846057415,0.0037265352439135313
2558429645150,-0.42856210470199585,-9.740809440612793,0.010773907415568829,0.0042588976211845875,0.0066545275039970875,0.0039927163161337376
2558430882300,-0.3926490843296051,-9.730035781860352,0.06344634294509888,-0.0039927163161337376,0.0063883461989462376,0.003460354171693325
2558432119462,-0.4010287821292877,-9.728838920593262,0.019153613597154617,0.0037265352439135313,0.0042588976211845875,0.008517795242369175
2558433356600,-0.4058171808719635,-9.749189376831055,0.008379706181585789,0.006122165359556675,0.0077192517928779125,0.0007985432748682797
2558434593737,-0.395043283700943,-9.759963035583496,0.043095629662275314,0.0037265352439135313,0.005589802749454975,0.0039927163161337376
2558435830875,-0.3734954595565796,-9.77552604675293,-0.010773907415568829,0.003460354171693325,0.0042588976211845875,0.0071868896484375
2558437068012,-0.35673606395721436,-9.78869342803955,0.035913024097681046,0.00452507846057415,0.00692070834338665,0.0066545275039970875
2558438305175,-0.3794809579849243,-9.745597839355469,0.05506663769483566,0.007453070487827063,0.0031941730994731188,0.0063883461989462376
2558439542325,-0.37229835987091064,-9.773131370544434,0.05027823522686958,0.0077192517928779125,0.0031941730994731188,0.0090501569211483
2558440779487,-0.3818751871585846,-9.75278091430664,0.07182604819536209,0.0077192517928779125,0.0005323622026480734,0.0090501569211483
2558442016612,-0.34356793761253357,-9.794679641723633,0.03232172504067421,0.0063883461989462376,-0.0013309054775163531,0.0071868896484375
2558443253762,-0.363918662071228,-9.782708168029785,0.03711012750864029,0.00931633822619915,0.008251613937318325,0.0066545275039970875
2558444490912,-0.3818751871585846,-9.786299705505371,0.016759412363171577,0.01357523538172245,0.0063883461989462376,0.008783976547420025
2558445728050,-0.3447650372982025,-9.77791976928711,0.004788403399288654,0.010114881210029125,0.0026618109550327063,0.0029279920272529125
2558446965212,-0.4058171808719635,-9.761160850524902,0.07541735470294952,0.007453070487827063,0.0013309054775163531,0.0039927163161337376
2558448202362,-0.3627215623855591,-9.78869342803955,0.023942017927765846,0.007453070487827063,0.0039927163161337376,0.01117960549890995
2558449439487,-0.3172317147254944,-9.762357711791992,0.05386953800916672,0.008783976547420025,0.0015970865497365594,0.0077192517928779125
2558450676650,-0.3208230435848236,-9.72165584564209,0.028730420395731926,0.01117960549890995,0.0015970865497365594,0.008517795242369175
2558451913787,-0.38067808747291565,-9.770737648010254,0.013168109580874443,0.0053236219100654125,0.0039927163161337376,0.012776692397892475
2558453150925,-0.4010287821292877,-9.767146110534668,0.05386953800916672,0.008251613937318325,0.004791259765625,0.00958251953125
2558454388087,-0.3447650372982025,-9.771934509277344,0.0035913025494664907,0.00984870083630085,0.003460354171693325,0.008517795242369175
2558455625237,-0.3687070608139038,-9.783905029296875,0.0586579404771328,0.008783976547420025,0.0026618109550327063,0.00692070834338665
2558456862362,-0.3292027413845062,-9.801861763000488,-0.002394201699644327,0.0090501569211483,0.0005323622026480734,0.008783976547420025
2558458099525,-0.3687070608139038,-9.783905029296875,0.061052143573760986,0.008251613937318325,-0.0002661811013240367,0.00931633822619915
2558459336675,-0.3866635859012604,-9.787496566772461,0.0694318488240242,0.0114457868039608,0.0013309054775163531,0.00984870083630085
2558460573825,-0.37828385829925537,-9.798270225524902,0.05147533863782883,0.012776692397892475,0.0005323622026480734,0.01117960549890995
2558461810975,-0.4141969084739685,-9.773131370544434,0.013168109580874443,0.01357523538172245,0.0015970865497365594,0.00931633822619915
2558463048112,-0.365115761756897,-9.765949249267578,0.061052143573760986,0.01357523538172245,0.0015970865497365594,0.005057440605014563
2558464285262,-0.3531447649002075,-9.783905029296875,0.03232172504067421,0.0191650390625,-0.005589802749454975,0.006122165359556675
2558465522400,-0.39624038338661194,-9.769539833068848,0.07062894850969315,0.013042873702943325,-0.0002661811013240367,0.0071868896484375
2558466759537,-0.3770867586135864,-9.799468040466309,0.016759412363171577,0.012776692397892475,-0.0013309054775163531,0.01357523538172245
2558467996712,-0.3734954595565796,-9.805453300476074,0.0586579404771328,0.013309055007994175,-0.00452507846057415,0.013042873702943325
2558469233837,-0.3878606855869293,-9.801861763000488,0.08379705995321274,0.0157046839594841,-0.0071868896484375,0.010913425125181675
2558470471000,-0.3878606855869293,-9.800664901733398,0.035913024097681046,0.013309055007994175,-0.0037265352439135313,0.00958251953125
2558471708137,-0.41060560941696167,-9.797073364257812,0.033518824726343155,0.015172322280704975,-0.008783976547420025,0.010913425125181675
2558472945287,-0.3902548849582672,-9.786299705505371,0.017956512048840523,0.0157046839594841,-0.0053236219100654125,0.008517795242369175
2558474182425,-0.37469255924224854,-9.792284965515137,0.07422025501728058,0.0114457868039608,0.0026618109550327063,0.008251613937318325
2558475419587,-0.3495534360408783,-9.819818496704102,0.07661445438861847,0.010647243820130825,-0.0029279920272529125,0.0071868896484375
2558476656737,-0.39145198464393616,-9.791088104248047,0.04189852997660637,0.007453070487827063,-0.0077192517928779125,0.0077192517928779125
2558477893862,-0.3447650372982025,-9.763554573059082,0.12090718746185303,0.0077192517928779125,-0.0077192517928779125,0.0013309054775163531
2558479131025,-0.3627215623855591,-9.801861763000488,0.06224924325942993,0.0077192517928779125,-0.005855984054505825,0.0039927163161337376
2558480368162,-0.31603461503982544,-9.799468040466309,0.08858546614646912,0.0167694091796875,-0.005589802749454975,0.01171196810901165
2558481605312,-0.3471592366695404,-9.780314445495605,0.08858546614646912,0.01357523538172245,-0.008251613937318325,0.01171196810901165
2558482842450,-0.3758896589279175,-9.799468040466309,0.028730420395731926,0.0090501569211483,-0.0119781494140625,0.013042873702943325
2558484079600,-0.34356793761253357,-9.822212219238281,0.035913024097681046,0.01224433071911335,-0.010114881210029125,0.010381062515079975
2558485316762,-0.34356793761253357,-9.841365814208984,0.014365210197865963,0.0138414166867733,-0.010114881210029125,0.010913425125181675
2558486553900,-0.3495534360408783,-9.835380554199219,0.0586579404771328,0.012510511092841625,-0.00984870083630085,0.0138414166867733
2558487791037,-0.37828385829925537,-9.81263542175293,0.07661445438861847,0.0077192517928779125,-0.0090501569211483,0.010114881210029125
2558489028187,-0.333991140127182,-9.800664901733398,0.07062894850969315,0.0090501569211483,-0.012510511092841625,0.0119781494140625
2558490265350,-0.3794809579849243,-9.806650161743164,0.08499415963888168,0.0138414166867733,-0.01463996060192585,0.010647243820130825
2558491502487,-0.3663128614425659,-9.816226959228516,0.06224924325942993,0.0138414166867733,-0.015438503585755825,0.010381062515079975
2558492739650,-0.3387795388698578,-9.783905029296875,0.04429273307323456,0.00931633822619915,-0.01783413253724575,0.007985432632267475
2558493976762,-0.3016694188117981,-9.792284965515137,0.038307227194309235,0.00931633822619915,-0.014373779296875,0.010647243820130825
2558495213912,-0.32441434264183044,-9.787496566772461,0.05147533863782883,0.015438503585755825,-0.01650322787463665,0.013042873702943325
2558496451075,-0.3447650372982025,-9.793481826782227,0.021547814831137657,0.013309055007994175,-0.0215606689453125,0.01463996060192585
2558497688225,-0.3280056416988373,-9.832986831665039,0.06464345008134842,0.014373779296875,-0.01836649514734745,0.015172322280704975
2558498925375,-0.3555389642715454,-9.81024169921875,0.09816227108240128,0.0114457868039608,-0.0196974016726017,0.00984870083630085
2558500162537,-0.3363853394985199,-9.831789016723633,0.08499415963888168,0.014373779296875,-0.02129448764026165,0.013042873702943325
2558501399662,-0.333991140127182,-9.815030097961426,0.1149216815829277,0.01597086526453495,-0.023956298828125,0.01996358297765255
2558502636812,-0.34356793761253357,-9.799468040466309,0.08619125932455063,0.015438503585755825,-0.0276828333735466,0.014373779296875
2558503873962,-0.32680854201316833,-9.859322547912598,0.0347159244120121,0.013309055007994175,-0.0223592109978199,0.01357523538172245
2558505111087,-0.3794809579849243,-9.859322547912598,0.03950432687997818,0.014906140975654125,-0.0215606689453125,0.012776692397892475
2558506348250,-0.34356793761253357,-9.894038200378418,0.06224924325942993,0.01357523538172245,-0.02369011752307415,0.0119781494140625
2558507585387,-0.38546648621559143,-9.872490882873535,0.10893617570400238,0.010913425125181675,-0.02262539230287075,0.01756795309484005
2558508822537,-0.3363853394985199,-9.855731010437012,0.1149216815829277,0.014906140975654125,-0.0244886614382267,0.0173017717897892
2558510059675,-0.3687070608139038,-9.837775230407715,0.090979665517807,0.01410759799182415,-0.02848137728869915,0.00984870083630085
2558511296850,-0.3555389642715454,-9.852140426635742,0.05626374110579491,0.0157046839594841,-0.02502102218568325,0.014906140975654125
2558512533987,-0.3495534360408783,-9.847352027893066,0.11133038252592087,0.014906140975654125,-0.0252872034907341,0.01703559048473835
2558513771125,-0.3687070608139038,-9.858125686645508,0.07781155407428741,0.01597086526453495,-0.02848137728869915,0.01836649514734745
2558515008275,-0.3363853394985199,-9.856928825378418,0.07302315533161163,0.01171196810901165,-0.0276828333735466,0.01410759799182415
2558516245425,-0.3758896589279175,-9.834183692932129,0.10893617570400238,0.01224433071911335,-0.0311431884765625,0.01463996060192585
2558517482562,-0.35913026332855225,-9.886856079101562,0.08499415963888168,0.0157046839594841,-0.02901373989880085,0.0173017717897892
2558518719725,-0.35673606395721436,-9.916783332824707,0.08140286058187485,0.01463996060192585,-0.0314093679189682,0.0157046839594841
2558519956875,-0.35913026332855225,-9.9000244140625,0.06224924325942993,0.015438503585755825,-0.0311431884765625,0.015172322280704975
2558521194037,-0.37229835987091064,-9.86889934539795,0.06823474913835526,0.015172322280704975,-0.0340711809694767,0.0138414166867733
2558522431162,-0.3842693865299225,-9.853337287902832,0.040701430290937424,0.010913425125181675,-0.0311431884765625,0.01224433071911335
2558523668312,-0.3555389642715454,-9.910798072814941,0.09457096457481384,0.01117960549890995,-0.0300784632563591,0.01117960549890995
2558524905450,-0.32441434264183044,-9.920374870300293,0.09696517139673233,0.012776692397892475,-0.02794901467859745,0.01171196810901165
2558526142587,-0.424970805644989,-9.910798072814941,0.08619125932455063,0.01224433071911335,-0.0314093679189682,0.0157046839594841
2558527379750,-0.3866635859012604,-9.87967300415039,0.1256955862045288,0.0138414166867733,-0.03034464456140995,0.013309055007994175
2558528616875,-0.44771572947502136,-9.890447616577148,0.11133038252592087,0.010913425125181675,-0.0306108258664608,0.0066545275039970875
2558529854050,-0.39145198464393616,-9.862914085388184,0.13048399984836578,0.01224433071911335,-0.0316755510866642,0.00984870083630085
2558531091162,-0.4189853072166443,-9.862914085388184,0.11372458189725876,0.015172322280704975,-0.033272635191679,0.005855984054505825
2558532328325,-0.40701428055763245,-9.836577415466309,0.07302315533161163,0.01224433071911335,-0.0263519287109375,0.0071868896484375
2558533565487,-0.4058171808719635,-9.836577415466309,0.05027823522686958,0.007985432632267475,-0.0263519287109375,0.0053236219100654125
2558534802625,-0.4381389021873474,-9.837775230407715,0.13287819921970367,0.005589802749454975,-0.0322079136967659,0.003460354171693325
2558536039775,-0.4297592043876648,-9.84615421295166,0.09457096457481384,0.00692070834338665,-0.0282151959836483,0.0053236219100654125
2558537276912,-0.4213795065879822,-9.849745750427246,0.08619125932455063,0.005589802749454975,-0.02422248013317585,0.0031941730994731188
2558538514062,-0.4225766062736511,-9.829395294189453,0.07900865375995636,0.005855984054505825,-0.0330064557492733,-0.0021294488105922937
2558539751225,-0.4405331015586853,-9.807847023010254,0.02274491637945175,0.0021294488105922937,-0.0322079136967659,0.0037265352439135313
2558540988362,-0.43933600187301636,-9.807847023010254,0.08259996026754379,0.0063883461989462376,-0.02848137728869915,0.0013309054775163531
2558542225500,-0.4034229815006256,-9.828198432922363,0.07781155407428741,0.0071868896484375,-0.03087700717151165,-0.0018632676219567657
2558543462662,-0.42616790533065796,-9.799468040466309,0.05626374110579491,0.0063883461989462376,-0.0300784632563591,0.0021294488105922937
2558544699800,-0.47884035110473633,-9.819818496704102,0.11133038252592087,0.0077192517928779125,-0.02741665206849575,0.0037265352439135313
2558545936950,-0.4704606235027313,-9.805453300476074,0.05386953800916672,0.0090501569211483,-0.0322079136967659,0.0010647244052961469
2558547174100,-0.4118027091026306,-9.824606895446777,0.08499415963888168,0.007453070487827063,-0.0385962575674057,-0.0018632676219567657
2558548411250,-0.41539400815963745,-9.858125686645508,0.02992752194404602,0.008517795242369175,-0.0268842913210392,-0.0018632676219567657
2558549648362,-0.45489832758903503,-9.86770248413086,0.04189852997660637,0.0077192517928779125,-0.02741665206849575,0.0023956298828125
2558550885525,-0.4118027091026306,-9.840168952941895,0.05386953800916672,0.008517795242369175,-0.0316755510866642,0.0013309054775163531
2558552122675,-0.42377370595932007,-9.824606895446777,0.05746084079146385,0.0138414166867733,-0.0282151959836483,0.003460354171693325
2558553359825,-0.4429273307323456,-9.854534149169922,0.10055647045373917,0.010381062515079975,-0.02315775491297245,0.0015970865497365594
2558554597000,-0.4357447028160095,-9.84615421295166,0.07541735470294952,0.008783976547420025,-0.0276828333735466,-0.0007985432748682797
2558555834112,-0.4752490520477295,-9.835380554199219,0.08738835901021957,0.014373779296875,-0.02981228195130825,-0.0013309054775163531
2558557071275,-0.4537012279033661,-9.86889934539795,0.04908113554120064,0.010114881210029125,-0.0314093679189682,0.0053236219100654125
2558558308425,-0.39624038338661194,-9.840168952941895,0.07302315533161163,0.01703559048473835,-0.0292799212038517,0.0053236219100654125
2558559545562,-0.4345476031303406,-9.849745750427246,0.08499415963888168,0.015172322280704975,-0.0268842913210392,0.0018632676219567657
2558560782712,-0.4513070285320282,-9.800664901733398,0.07900865375995636,0.010114881210029125,-0.02901373989880085,0.0071868896484375
2558562019850,-0.4644751250743866,-9.825803756713867,0.09816227108240128,0.014906140975654125,-0.0282151959836483,0.005855984054505825
2558563257000,-0.41539400815963745,-9.817423820495605,0.07182604819536209,0.0196974016726017,-0.0322079136967659,0.0071868896484375
2558564494150,-0.4273650050163269,-9.794679641723633,0.08499415963888168,0.0138414166867733,-0.0327402763068676,0.010114881210029125
2558565731300,-0.4800374507904053,-9.850942611694336,0.08259996026754379,0.0173017717897892,-0.0306108258664608,0.012510511092841625
2558566968450,-0.43095630407333374,-9.818621635437012,0.08978256583213806,0.02076212503015995,-0.0295461006462574,0.0114457868039608
2558568205600,-0.3878606855869293,-9.827000617980957,0.12449848651885986,0.01597086526453495,-0.0324740931391716,0.010114881210029125
2558569442750,-0.44532153010368347,-9.836577415466309,0.06823474913835526,0.01597086526453495,-0.02874755859375,0.010647243820130825
2558570679900,-0.4345476031303406,-9.889249801635742,0.09576807171106339,0.01756795309484005,-0.0234239362180233,0.00984870083630085
2558571917037,-0.44771572947502136,-9.883264541625977,0.08379705995321274,0.0157046839594841,-0.02848137728869915,0.01171196810901165
2558573154175,-0.4165911078453064,-9.872490882873535,0.0586579404771328,0.01357523538172245,-0.0282151959836483,0.012510511092841625
2558574391337,-0.40940847992897034,-9.913191795349121,0.08379705995321274,0.0119781494140625,-0.02608574740588665,0.00958251953125
2558575628475,-0.4273650050163269,-9.883264541625977,0.0694318488240242,0.015438503585755825,-0.0268842913210392,0.013309055007994175
2558576865625,-0.4429273307323456,-9.849745750427246,0.10175357013940811,0.014906140975654125,-0.02874755859375,0.0114457868039608
2558578102775,-0.4812345504760742,-9.909601211547852,0.07182604819536209,0.015438503585755825,-0.0244886614382267,0.012510511092841625
2558579339925,-0.4908113479614258,-9.897629737854004,0.061052143573760986,0.013309055007994175,-0.0220930315554142,0.0119781494140625
2558580577050,-0.47644615173339844,-9.873687744140625,0.07422025501728058,0.01756795309484005,-0.0204959437251091,0.005855984054505825
2558581814212,-0.4429273307323456,-9.8784761428833,0.10773907601833344,0.015172322280704975,-0.02502102218568325,0.0071868896484375
2558583051350,-0.47405195236206055,-9.904812812805176,0.06224924325942993,0.01357523538172245,-0.02129448764026165,0.010647243820130825
2558584288512,-0.5003881454467773,-9.874884605407715,0.02992752194404602,0.008783976547420025,-0.0186326764523983,0.00931633822619915
2558585525662,-0.5027823448181152,-9.894038200378418,0.090979665517807,0.0053236219100654125,-0.01996358297765255,0.0090501569211483
2558586762800,-0.524330198764801,-9.947908401489258,0.0586579404771328,0.0090501569211483,-0.02502102218568325,0.007453070487827063
2558587999937,-0.4920084476470947,-9.86889934539795,0.06703764945268631,0.0119781494140625,-0.0181003138422966,0.005589802749454975
2558589237087,-0.5027823448181152,-9.873687744140625,0.0454898327589035,0.0077192517928779125,-0.01463996060192585,0.005855984054505825
2558590474237,-0.48482584953308105,-9.86889934539795,0.0454898327589035,0.005855984054505825,-0.01889885775744915,0.003460354171693325
2558591711362,-0.49320554733276367,-9.84256362915039,0.031124621629714966,0.0071868896484375,-0.014906140975654125,0.0015970865497365594
2558592948537,-0.5051765441894531,-9.8784761428833,0.05386953800916672,0.00958251953125,-0.0162370465695858,0.00692070834338665
2558594185675,-0.48243165016174316,-9.862914085388184,0.06703764945268631,0.008517795242369175,-0.01703559048473835,0.004791259765625
2558595422825,-0.46327802538871765,-9.835380554199219,0.05147533863782883,0.00692070834338665,-0.013042873702943325,0.0031941730994731188
2558596659975,-0.41060560941696167,-9.819818496704102,0.05985504388809204,0.00958251953125,-0.008783976547420025,-0.0013309054775163531
2558597897137,-0.46088382601737976,-9.816226959228516,0.06344634294509888,0.005057440605014563,-0.00984870083630085,-0.0015970865497365594
2558599134275,-0.45010992884635925,-9.84615421295166,0.04788403585553169,0.005855984054505825,-0.00958251953125,0.0023956298828125
2558600371437,-0.4141969084739685,-9.823410034179688,0.05027823522686958,0.00931633822619915,-0.0119781494140625,0.0015970865497365594
2558601608550,-0.4513070285320282,-9.819818496704102,0.05985504388809204,0.0071868896484375,-0.010381062515079975,0.0015970865497365594
2558602845700,-0.4381389021873474,-9.849745750427246,0.07302315533161163,0.007453070487827063,-0.0077192517928779125,0.0026618109550327063
2558604082850,-0.4345476031303406,-9.870096206665039,0.09217676520347595,0.00984870083630085,-0.0071868896484375,0.0021294488105922937
2558605319987,-0.3998316824436188,-9.84256362915039,0.09696517139673233,0.005855984054505825,-0.010381062515079975,0.004791259765625
2558606557137,-0.38905778527259827,-9.81263542175293,0.08379705995321274,0.005057440605014563,-0.00931633822619915,-0.0015970865497365594
2558607794287,-0.4273650050163269,-9.832986831665039,0.10773907601833344,0.005855984054505825,-0.0063883461989462376,-0.0002661811013240367
2558609031450,-0.40701428055763245,-9.841365814208984,0.05626374110579491,0.00692070834338665,-0.00931633822619915,0.008517795242369175
2558610268600,-0.4596867263317108,-9.86889934539795,0.09935937076807022,0.005057440605014563,-0.008251613937318325,0.006122165359556675
2558611505737,-0.41060560941696167,-9.825803756713867,0.0802057608962059,0.0042588976211845875,-0.0066545275039970875,0.008517795242369175
2558612742887,-0.43095630407333374,-9.859322547912598,0.1173158809542656,0.0018632676219567657,-0.006122165359556675,0.00452507846057415
2558613980050,-0.38546648621559143,-9.795876502990723,0.11372458189725876,0.003460354171693325,-0.006122165359556675,0.008783976547420025
2558615217175,-0.3998316824436188,-9.836577415466309,0.07781155407428741,0.0063883461989462376,-0.0042588976211845875,0.008783976547420025
2558616454325,-0.40222588181495667,-9.847352027893066,0.0933738648891449,0.006122165359556675,-0.0031941730994731188,0.005589802749454975
2558617691487,-0.43095630407333374,-9.821015357971191,0.0933738648891449,0.004791259765625,-0.0002661811013240367,0.005057440605014563
2558618928637,-0.3842693865299225,-9.822212219238281,0.09457096457481384,0.005057440605014563,0.0021294488105922937,0.0018632676219567657
2558620165787,-0.4189853072166443,-9.789891242980957,0.09457096457481384,0.006122165359556675,-0.0010647244052961469,-0.0002661811013240367
2558621402912,-0.42616790533065796,-9.823410034179688,0.10175357013940811,0.005589802749454975,-0.0021294488105922937,0.005589802749454975
2558622640062,-0.4058171808719635,-9.805453300476074,0.0802057608962059,0.0029279920272529125,-0.0010647244052961469,0.005589802749454975
2558623877200,-0.4010287821292877,-9.7791166305542,0.11252748221158981,0.0,-0.0042588976211845875,0.0026618109550327063
2558625114362,-0.38067808747291565,-9.763554573059082,0.0586579404771328,0.00452507846057415,-0.0010647244052961469,0.0039927163161337376
2558626351512,-0.41539400815963745,-9.818621635437012,0.07781155407428741,0.0039927163161337376,-0.0002661811013240367,0.0002661811013240367
2558627588637,-0.43095630407333374,-9.794679641723633,0.08619125932455063,0.0010647244052961469,-0.0026618109550327063,-0.0007985432748682797
2558628825787,-0.44532153010368347,-9.817423820495605,0.10654197633266449,0.0042588976211845875,0.0026618109550327063,0.007453070487827063
2558630062950,-0.4489128291606903,-9.782708168029785,0.07302315533161163,0.0005323622026480734,0.0042588976211845875,0.0026618109550327063
2558631300100,-0.3926490843296051,-9.75517463684082,0.11611878126859665,0.0029279920272529125,-0.0042588976211845875,0.0071868896484375
2558632537237,-0.40940847992897034,-9.750386238098145,0.06344634294509888,0.006122165359556675,-0.0021294488105922937,0.0029279920272529125
2558633774387,-0.4513070285320282,-9.764751434326172,0.12928690016269684,0.008517795242369175,0.0029279920272529125,0.0039927163161337376
2558635011537,-0.45250412821769714,-9.793481826782227,0.13168109953403473,0.0015970865497365594,0.0007985432748682797,0.0023956298828125
2558636248687,-0.40462008118629456,-9.786299705505371,0.15083470940589905,0.00931633822619915,0.0039927163161337376,0.0015970865497365594
2558637485825,-0.38905778527259827,-9.78869342803955,0.1280897855758667,0.007985432632267475,0.0023956298828125,0.008251613937318325
2558638722962,-0.42616790533065796,-9.757569313049316,0.07422025501728058,0.0031941730994731188,0.0005323622026480734,0.0023956298828125
2558639960125,-0.4357447028160095,-9.798270225524902,0.14484921097755432,0.0071868896484375,-0.0013309054775163531,0.0013309054775163531
2558641197237,-0.40701428055763245,-9.794679641723633,0.1149216815829277,0.01224433071911335,0.0002661811013240367,0.0018632676219567657
2558642434425,-0.4141969084739685,-9.780314445495605,0.08858546614646912,0.00931633822619915,0.003460354171693325,0.006122165359556675
2558643671562,-0.43933600187301636,-9.774328231811523,0.12210428714752197,0.0066545275039970875,0.0010647244052961469,0.004791259765625
2558644908687,-0.424970805644989,-9.785102844238281,0.11611878126859665,0.0066545275039970875,0.0018632676219567657,-0.0021294488105922937
2558646145862,-0.4213795065879822,-9.793481826782227,0.15083470940589905,0.0010647244052961469,0.0029279920272529125,0.005589802749454975
2558647383012,-0.3842693865299225,-9.774328231811523,0.13048399984836578,0.008517795242369175,-0.0007985432748682797,0.0031941730994731188
2558648620150,-0.4321534037590027,-9.789891242980957,0.1041477769613266,0.010647243820130825,0.0037265352439135313,-0.0013309054775163531
2558649857287,-0.3579331636428833,-9.758766174316406,0.1364694982767105,0.0077192517928779125,-0.0010647244052961469,0.0005323622026480734
2558651094437,-0.3818751871585846,-9.80904483795166,0.1280897855758667,0.00984870083630085,0.0039927163161337376,0.003460354171693325
2558652331600,-0.3998316824436188,-9.762357711791992,0.12210428714752197,0.006122165359556675,0.005057440605014563,0.0002661811013240367
2558653568725,-0.4297592043876648,-9.791088104248047,0.1173158809542656,0.00958251953125,0.0005323622026480734,0.0015970865497365594
2558654805887,-0.39145198464393616,-9.825803756713867,0.13407529890537262,0.013042873702943325,0.0026618109550327063,0.00958251953125
2558656043037,-0.42018240690231323,-9.81143856048584,0.10175357013940811,0.007985432632267475,0.0077192517928779125,0.0037265352439135313
2558657280175,-0.4058171808719635,-9.824606895446777,0.09816227108240128,0.00692070834338665,0.0066545275039970875,0.004791259765625
2558658517325,-0.40222588181495667,-9.815030097961426,0.10893617570400238,0.00984870083630085,0.0007985432748682797,0.0042588976211845875
2558659754462,-0.39145198464393616,-9.831789016723633,0.11252748221158981,0.00984870083630085,0.0031941730994731188,-0.0005323622026480734
2558660991625,-0.40462008118629456,-9.795876502990723,0.10055647045373917,0.007985432632267475,0.0021294488105922937,0.0023956298828125
2558662228762,-0.39863458275794983,-9.81143856048584,0.11851298809051514,0.008783976547420025,0.0037265352439135313,0.005589802749454975
2558663465912,-0.3842693865299225,-9.827000617980957,0.09696517139673233,0.0053236219100654125,0.0077192517928779125,0.005057440605014563
2558664703050,-0.4165911078453064,-9.828198432922363,0.12449848651885986,0.007985432632267475,0.007453070487827063,-0.0023956298828125
2558665940200,-0.4058171808719635,-9.829395294189453,0.1173158809542656,0.0114457868039608,0.008783976547420025,0.0002661811013240367
2558667177350,-0.38546648621559143,-9.823410034179688,0.0802057608962059,0.00931633822619915,0.010114881210029125,0.0042588976211845875
2558668414500,-0.41060560941696167,-9.84615421295166,0.10295067727565765,0.007453070487827063,0.004791259765625,0.0010647244052961469
2558669651650,-0.3734954595565796,-9.828198432922363,0.14365209639072418,0.00692070834338665,0.0077192517928779125,0.0005323622026480734
2558670888800,-0.41778820753097534,-9.827000617980957,0.09576807171106339,0.008517795242369175,0.010381062515079975,0.0010647244052961469
2558672125937,-0.38905778527259827,-9.838972091674805,0.13048399984836578,0.0053236219100654125,0.0077192517928779125,0.0013309054775163531
2558673363087,-0.4297592043876648,-9.877279281616211,0.09696517139673233,0.005057440605014563,0.0039927163161337376,0.0026618109550327063
2558674600237,-0.38067808747291565,-9.797073364257812,0.08738835901021957,0.005057440605014563,0.00452507846057415,0.0
2558675837375,-0.4010287821292877,-9.819818496704102,0.10175357013940811,0.008517795242369175,0.0066545275039970875,-0.0029279920272529125
2558677074512,-0.36990416049957275,-9.807847023010254,0.07302315533161163,0.0114457868039608,0.0053236219100654125,-0.004791259765625
2558678311675,-0.3363853394985199,-9.81024169921875,0.13048399984836578,0.010114881210029125,0.007453070487827063,-0.005855984054505825
2558679548837,-0.40222588181495667,-9.848548889160156,0.1256955862045288,0.0063883461989462376,0.0037265352439135313,-0.0005323622026480734
2558680785987,-0.40222588181495667,-9.821015357971191,0.08619125932455063,0.0066545275039970875,0.003460354171693325,0.0013309054775163531
2558682023125,-0.3998316824436188,-9.850942611694336,0.1173158809542656,0.004791259765625,0.0021294488105922937,-0.004791259765625
2558683260275,-0.3687070608139038,-9.849745750427246,0.1364694982767105,0.0042588976211845875,0.005855984054505825,-0.005589802749454975
2558684497425,-0.3687070608139038,-9.84495735168457,0.10534487664699554,0.0037265352439135313,0.005057440605014563,-0.008783976547420025
2558685734562,-0.37828385829925537,-9.81263542175293,0.11252748221158981,-0.0007985432748682797,0.0021294488105922937,-0.00931633822619915
2558686971712,-0.3603273630142212,-9.886856079101562,0.10055647045373917,0.00692070834338665,0.00692070834338665,-0.00452507846057415
2558688208850,-0.36990416049957275,-9.853337287902832,0.09217676520347595,-0.0015970865497365594,0.008517795242369175,-0.00931633822619915
2558689446000,-0.333991140127182,-9.862914085388184,0.12689268589019775,0.0015970865497365594,0.0063883461989462376,-0.0090501569211483
2558690683137,-0.3519476652145386,-9.84495735168457,0.10175357013940811,0.0042588976211845875,0.007985432632267475,-0.003460354171693325
2558691920300,-0.3663128614425659,-9.836577415466309,0.09696517139673233,0.0002661811013240367,0.0042588976211845875,-0.004791259765625
2558693157450,-0.39624038338661194,-9.848548889160156,0.1173158809542656,0.0015970865497365594,0.00931633822619915,-0.00452507846057415
2558694394612,-0.3555389642715454,-9.836577415466309,0.1173158809542656,0.0015970865497365594,0.008251613937318325,-0.0042588976211845875
2558695631737,-0.35075056552886963,-9.829395294189453,0.11971008777618408,0.0026618109550327063,0.00452507846057415,0.0007985432748682797
2558696868887,-0.3711012601852417,-9.805453300476074,0.12449848651885986,0.0007985432748682797,0.0053236219100654125,-0.00452507846057415
2558698106050,-0.36152446269989014,-9.829395294189453,0.08379705995321274,-0.004791259765625,0.005589802749454975,-0.0039927163161337376
2558699343200,-0.3663128614425659,-9.84495735168457,0.09816227108240128,-0.0018632676219567657,0.005589802749454975,-0.005855984054505825
2558700580337,-0.36990416049957275,-9.798270225524902,0.090979665517807,0.0029279920272529125,0.010381062515079975,-0.004791259765625
2558701817487,-0.40701428055763245,-9.807847023010254,0.08738835901021957,-0.0015970865497365594,0.0066545275039970875,-0.0031941730994731188
2558703054637,-0.35673606395721436,-9.823410034179688,0.10773907601833344,-0.0018632676219567657,0.0031941730994731188,0.0
2558704291787,-0.36990416049957275,-9.841365814208984,0.1388636976480484,0.0023956298828125,0.003460354171693325,0.0
2558705528925,-0.3794809579849243,-9.854534149169922,0.08858546614646912,0.0010647244052961469,0.0066545275039970875,-0.0026618109550327063
2558706766075,-0.3627215623855591,-9.795876502990723,0.0802057608962059,-0.004791259765625,0.004791259765625,-0.0039927163161337376
2558708003200,-0.36152446269989014,-9.836577415466309,0.12928690016269684,0.0,0.006122165359556675,-0.007985432632267475
2558709240362,-0.3687070608139038,-9.862914085388184,0.10055647045373917,0.0002661811013240367,0.0071868896484375,-0.005589802749454975
2558710477512,-0.3711012601852417,-9.823410034179688,0.0933738648891449,0.0015970865497365594,0.0071868896484375,-0.0002661811013240367
2558711714650,-0.35673606395721436,-9.827000617980957,0.11971008777618408,0.0005323622026480734,0.005589802749454975,-0.0042588976211845875
2558712951812,-0.4189853072166443,-9.840168952941895,0.12090718746185303,-0.0018632676219567657,0.003460354171693325,-0.0026618109550327063
2558714188937,-0.3663128614425659,-9.852140426635742,0.11851298809051514,-0.0013309054775163531,0.0042588976211845875,-0.0026618109550327063
2558715426112,-0.4034229815006256,-9.827000617980957,0.09935937076807022,0.0021294488105922937,0.003460354171693325,-0.00452507846057415
2558716663250,-0.3627215623855591,-9.797073364257812,0.07062894850969315,0.0018632676219567657,0.0037265352439135313,0.0007985432748682797
2558717900375,-0.3579331636428833,-9.847352027893066,0.08858546614646912,-0.0007985432748682797,-0.0005323622026480734,-0.005855984054505825
2558719137537,-0.40462008118629456,-9.864110946655273,0.10654197633266449,0.0013309054775163531,0.005057440605014563,-0.005589802749454975
2558720374687,-0.41778820753097534,-9.84615421295166,0.1149216815829277,0.0026618109550327063,0.0021294488105922937,-0.003460354171693325
2558721611850,-0.3627215623855591,-9.838972091674805,0.0586579404771328,0.0010647244052961469,0.005589802749454975,-0.0026618109550327063
2558722848987,-0.38067808747291565,-9.821015357971191,0.07900865375995636,0.0007985432748682797,0.010114881210029125,-0.004791259765625
2558724086125,-0.363918662071228,-9.852140426635742,0.11611878126859665,-0.0002661811013240367,0.007985432632267475,-0.0015970865497365594
2558725323287,-0.35434186458587646,-9.825803756713867,0.09576807171106339,-0.0015970865497365594,0.0039927163161337376,-0.003460354171693325
2558726560425,-0.395043283700943,-9.794679641723633,0.1173158809542656,-0.0010647244052961469,0.005855984054505825,-0.0077192517928779125
2558727797550,-0.39384618401527405,-9.847352027893066,0.1149216815829277,-0.0018632676219567657,0.007985432632267475,-0.007453070487827063
2558729034712,-0.3495534360408783,-9.874884605407715,0.08738835901021957,-0.0007985432748682797,0.004791259765625,-0.0077192517928779125
2558730271862,-0.37229835987091064,-9.828198432922363,0.15562310814857483,-0.0026618109550327063,0.007453070487827063,-0.0039927163161337376
2558731509000,-0.363918662071228,-9.838972091674805,0.16400282084941864,0.0029279920272529125,0.0029279920272529125,-0.0066545275039970875
2558732746162,-0.37469255924224854,-9.825803756713867,0.11013327538967133,0.0005323622026480734,0.0010647244052961469,-0.010381062515079975
2558733983300,-0.4082113802433014,-9.855731010437012,0.08259996026754379,-0.0010647244052961469,0.00692070834338665,-0.0063883461989462376
2558735220462,-0.3926490843296051,-9.816226959228516,0.08379705995321274,-0.0005323622026480734,0.003460354171693325,-0.010381062515079975
2558736457600,-0.36990416049957275,-9.84495735168457,0.10654197633266449,0.0,0.00452507846057415,-0.005855984054505825
2558737694750,-0.3794809579849243,-9.830592155456543,0.08978256583213806,-0.0007985432748682797,0.008783976547420025,-0.007985432632267475
2558738931887,-0.33758243918418884,-9.81143856048584,0.07781155407428741,-0.0015970865497365594,0.00958251953125,-0.0119781494140625
2558740169050,-0.35913026332855225,-9.793481826782227,0.0933738648891449,-0.0010647244052961469,0.005589802749454975,-0.01224433071911335
2558741406187,-0.3603273630142212,-9.823410034179688,0.09816227108240128,0.0013309054775163531,0.010913425125181675,-0.00958251953125
2558742643337,-0.3471592366695404,-9.825803756713867,0.09816227108240128,-0.0023956298828125,0.012510511092841625,-0.01171196810901165
2558743880487,-0.3256114423274994,-9.86650562286377,0.06823474913835526,0.0007985432748682797,0.007985432632267475,-0.012510511092841625
2558745117625,-0.3447650372982025,-9.824606895446777,0.11013327538967133,-0.0002661811013240367,0.00692070834338665,-0.01171196810901165
2558746354775,-0.37229835987091064,-9.872490882873535,0.10654197633266449,0.0031941730994731188,0.007453070487827063,-0.008783976547420025
2558747591937,-0.3555389642715454,-9.837775230407715,0.10893617570400238,-0.0013309054775163531,0.005855984054505825,-0.008251613937318325
2558748829087,-0.3172317147254944,-9.873687744140625,0.090979665517807,-0.0042588976211845875,0.0039927163161337376,-0.01410759799182415
2558750066237,-0.33758243918418884,-9.815030097961426,0.14604631066322327,-0.0002661811013240367,0.004791259765625,-0.01171196810901165
2558751303362,-0.3531447649002075,-9.832986831665039,0.12928690016269684,0.0042588976211845875,0.00984870083630085,-0.00931633822619915
2558752540512,-0.35913026332855225,-9.830592155456543,0.09816227108240128,0.0042588976211845875,0.0077192517928779125,-0.010913425125181675
2558753777650,-0.35913026332855225,-9.853337287902832,0.08619125932455063,-0.0015970865497365594,0.0023956298828125,-0.008251613937318325
2558755014812,-0.3256114423274994,-9.80904483795166,0.05985504388809204,0.0005323622026480734,0.0029279920272529125,-0.0090501569211483
2558756251950,-0.31962594389915466,-9.81263542175293,0.08858546614646912,0.0018632676219567657,0.00692070834338665,-0.010114881210029125
2558757489100,-0.36990416049957275,-9.84376049041748,0.06703764945268631,0.0021294488105922937,0.0071868896484375,-0.00958251953125
2558758726262,-0.3411737382411957,-9.821015357971191,0.14844051003456116,0.0010647244052961469,0.006122165359556675,-0.01117960549890995
2558759963412,-0.3124433159828186,-9.832986831665039,0.10773907601833344,0.00452507846057415,0.0039927163161337376,-0.010913425125181675
2558761200537,-0.2932897210121155,-9.792284965515137,0.07781155407428741,0.0015970865497365594,0.0077192517928779125,-0.0138414166867733
2558762437700,-0.30885201692581177,-9.786299705505371,0.08619125932455063,0.0029279920272529125,0.004791259765625,-0.010647243820130825
2558763674862,-0.3974374830722809,-9.783905029296875,0.14604631066322327,0.0023956298828125,0.0066545275039970875,-0.01117960549890995
2558764911987,-0.38905778527259827,-9.803058624267578,0.14604631066322327,0.004791259765625,0.0071868896484375,-0.01224433071911335
2558766149125,-0.3579331636428833,-9.794679641723633,0.06823474913835526,0.007453070487827063,0.0042588976211845875,-0.0077192517928779125
2558767386287,-0.3387795388698578,-9.7791166305542,0.10175357013940811,0.007453070487827063,0.003460354171693325,-0.010381062515079975
2558768623425,-0.31124621629714966,-9.80904483795166,0.10654197633266449,0.008517795242369175,0.007453070487827063,-0.007985432632267475
2558769860562,-0.3627215623855591,-9.836577415466309,0.07062894850969315,0.01410759799182415,0.0026618109550327063,-0.0066545275039970875
2558771097725,-0.3770867586135864,-9.806650161743164,0.05506663769483566,0.010381062515079975,0.005057440605014563,-0.0071868896484375
2558772334887,-0.3603273630142212,-9.838972091674805,0.07182604819536209,0.007453070487827063,0.0007985432748682797,-0.007985432632267475
2558773572025,-0.3124433159828186,-9.761160850524902,0.07422025501728058,0.008783976547420025,0.0023956298828125,-0.008517795242369175
2558774809162,-0.30047231912612915,-9.787496566772461,0.05746084079146385,0.0071868896484375,-0.0005323622026480734,-0.010381062515079975
2558776046312,-0.33279404044151306,-9.799468040466309,0.06344634294509888,0.008783976547420025,0.0021294488105922937,-0.010114881210029125
2558777283462,-0.35434186458587646,-9.827000617980957,0.10654197633266449,0.007985432632267475,-0.0007985432748682797,-0.005855984054505825
2558778520600,-0.33279404044151306,-9.787496566772461,0.06584054976701736,0.01171196810901165,0.0013309054775163531,-0.00931633822619915
2558779757762,-0.3495534360408783,-9.822212219238281,0.07541735470294952,0.00958251953125,0.0018632676219567657,-0.0077192517928779125
2558780994912,-0.30526071786880493,-9.818621635437012,0.08619125932455063,0.0119781494140625,-0.0007985432748682797,-0.0053236219100654125
2558782232062,-0.37828385829925537,-9.815030097961426,0.10773907601833344,0.0114457868039608,0.0029279920272529125,-0.007985432632267475
2558783469200,-0.31962594389915466,-9.815030097961426,0.1149216815829277,0.0138414166867733,-0.0007985432748682797,-0.0066545275039970875
2558784706337,-0.31603461503982544,-9.832986831665039,0.10055647045373917,0.01756795309484005,0.0007985432748682797,-0.0053236219100654125
2558785943500,-0.31124621629714966,-9.834183692932129,0.08858546614646912,0.013042873702943325,0.0018632676219567657,-0.005855984054505825
2558787180637,-0.2849099934101105,-9.773131370544434,0.09935937076807022,0.00984870083630085,0.0071868896484375,-0.0029279920272529125
2558788417800,-0.3292027413845062,-9.81143856048584,0.11252748221158981,0.012510511092841625,0.008251613937318325,-0.003460354171693325
2558789654950,-0.31962594389915466,-9.821015357971191,0.05746084079146385,0.01224433071911335,0.0013309054775163531,-0.008783976547420025
2558790892100,-0.30885201692581177,-9.841365814208984,0.090979665517807,0.01410759799182415,0.0013309054775163531,-0.00452507846057415
2558792129237,-0.33997663855552673,-9.800664901733398,0.08499415963888168,0.010381062515079975,0.0005323622026480734,-0.0071868896484375
2558793366375,-0.35673606395721436,-9.77791976928711,0.13407529890537262,0.012776692397892475,0.0018632676219567657,-0.0031941730994731188
2558794603537,-0.3172317147254944,-9.759963035583496,0.0802057608962059,0.01756795309484005,0.0063883461989462376,-0.0042588976211845875
2558795840687,-0.3256114423274994,-9.791088104248047,0.09816227108240128,0.0204959437251091,0.0023956298828125,-0.0023956298828125
2558797077825,-0.3531447649002075,-9.804256439208984,0.1364694982767105,0.0162370465695858,0.0023956298828125,-0.00692070834338665
2558798314975,-0.3256114423274994,-9.783905029296875,0.12210428714752197,0.015438503585755825,0.0053236219100654125,-0.0002661811013240367
2558799552112,-0.3315969407558441,-9.799468040466309,0.1041477769613266,0.01783413253724575,-0.0002661811013240367,0.0005323622026480734
2558800789275,-0.36152446269989014,-9.787496566772461,0.07900865375995636,0.0196974016726017,0.0015970865497365594,0.0018632676219567657
2558802026437,-0.32441434264183044,-9.815030097961426,0.06464345008134842,0.015438503585755825,0.0031941730994731188,-0.0015970865497365594
2558803263575,-0.30286651849746704,-9.819818496704102,0.13407529890537262,0.0220930315554142,0.004791259765625,-0.0026618109550327063
2558804500712,-0.31124621629714966,-9.84376049041748,0.06344634294509888,0.01836649514734745,0.0023956298828125,-0.0015970865497365594
2558805737875,-0.2908955216407776,-9.81024169921875,0.11013327538967133,0.01703559048473835,0.0031941730994731188,0.0
2558806975025,-0.3579331636428833,-9.792284965515137,0.08978256583213806,0.01357523538172245,0.005855984054505825,0.0002661811013240367
2558808212150,-0.3280056416988373,-9.832986831665039,0.0454898327589035,0.015172322280704975,0.0,-0.0002661811013240367
2558809449300,-0.34596213698387146,-9.836577415466309,0.0933738648891449,0.014373779296875,-0.0013309054775163531,0.0018632676219567657
2558810686475,-0.3387795388698578,-9.859322547912598,0.08858546614646912,0.01650322787463665,0.0005323622026480734,0.0002661811013240367
2558811923612,-0.31962594389915466,-9.80904483795166,0.12090718746185303,0.01783413253724575,-0.0010647244052961469,0.0007985432748682797
2558813160750,-0.2992752194404602,-9.795876502990723,0.06344634294509888,0.015172322280704975,0.0018632676219567657,-0.0013309054775163531
2558814397912,-0.31124621629714966,-9.800664901733398,0.13168109953403473,0.01703559048473835,-0.0018632676219567657,0.0005323622026480734
2558815635050,-0.3387795388698578,-9.853337287902832,0.09457096457481384,0.01597086526453495,0.0010647244052961469,0.0077192517928779125
2558816872200,-0.3555389642715454,-9.855731010437012,0.07541735470294952,0.01463996060192585,-0.0007985432748682797,0.00984870083630085
2558818109337,-0.3064578175544739,-9.780314445495605,0.06464345008134842,0.01650322787463665,0.0013309054775163531,0.0023956298828125
2558819346487,-0.3256114423274994,-9.804256439208984,0.09217676520347595,0.0204959437251091,-0.0042588976211845875,0.0042588976211845875
2558820583637,-0.35434186458587646,-9.800664901733398,0.06823474913835526,0.0220930315554142,-0.0013309054775163531,0.006122165359556675
2558821820775,-0.32202014327049255,-9.84256362915039,0.09576807171106339,0.01943122036755085,0.0,0.012510511092841625
2558823057937,-0.33279404044151306,-9.84615421295166,0.10295067727565765,0.01943122036755085,-0.0021294488105922937,0.005057440605014563
2558824295087,-0.3363853394985199,-9.81024169921875,0.11372458189725876,0.01756795309484005,-0.006122165359556675,0.0026618109550327063
2558825532237,-0.35913026332855225,-9.825803756713867,0.06344634294509888,0.0228915736079216,-0.0029279920272529125,0.007453070487827063
2558826769387,-0.3603273630142212,-9.852140426635742,0.09816227108240128,0.01783413253724575,-0.005057440605014563,0.0063883461989462376
2558828006512,-0.31842881441116333,-9.836577415466309,0.12210428714752197,0.0181003138422966,-0.0029279920272529125,0.008251613937318325
2558829243675,-0.3555389642715454,-9.891644477844238,0.08978256583213806,0.01703559048473835,-0.0031941730994731188,0.008783976547420025
2558830480812,-0.3172317147254944,-9.817423820495605,0.13287819921970367,0.012510511092841625,-0.003460354171693325,0.0037265352439135313
2558831717975,-0.3208230435848236,-9.86770248413086,0.08499415963888168,0.01703559048473835,-0.0031941730994731188,0.0002661811013240367
2558832955112,-0.3387795388698578,-9.828198432922363,0.06823474913835526,0.0173017717897892,-0.007453070487827063,0.008251613937318325
2558834192262,-0.3292027413845062,-9.84615421295166,0.11013327538967133,0.01463996060192585,-0.005589802749454975,0.010647243820130825
2558835429412,-0.3172317147254944,-9.852140426635742,0.05985504388809204,0.015438503585755825,-0.006122165359556675,0.007985432632267475
2558836666550,-0.35913026332855225,-9.860519409179688,0.1412578970193863,0.01410759799182415,-0.003460354171693325,0.0071868896484375
2558837903687,-0.30286651849746704,-9.858125686645508,0.11013327538967133,0.0167694091796875,-0.00931633822619915,0.012510511092841625
2558839140850,-0.3280056416988373,-9.852140426635742,0.11372458189725876,0.01783413253724575,-0.007985432632267475,0.00984870083630085
2558840378000,-0.2861070930957794,-9.864110946655273,0.06344634294509888,0.015438503585755825,-0.0031941730994731188,0.0077192517928779125
2558841615137,-0.3531447649002075,-9.873687744140625,0.06344634294509888,0.0157046839594841,-0.0037265352439135313,0.0066545275039970875
2558842852287,-0.3579331636428833,-9.834183692932129,0.07661445438861847,0.0157046839594841,-0.0042588976211845875,0.010381062515079975
2558844089437,-0.3232172429561615,-9.860519409179688,0.07541735470294952,0.01783413253724575,-0.0018632676219567657,0.010114881210029125
2558845326575,-0.27413609623908997,-9.848548889160156,0.05147533863782883,0.0119781494140625,-0.0023956298828125,0.006122165359556675
2558846563737,-0.30526071786880493,-9.81024169921875,0.07781155407428741,0.01357523538172245,-0.0039927163161337376,0.00984870083630085
2558847800900,-0.3280056416988373,-9.806650161743164,0.13287819921970367,0.0114457868039608,-0.007453070487827063,0.008783976547420025
2558849038037,-0.3387795388698578,-9.847352027893066,0.090979665517807,0.012776692397892475,-0.005057440605014563,0.010647243820130825
2558850275187,-0.333991140127182,-9.817423820495605,0.11851298809051514,0.0119781494140625,-0.007453070487827063,0.012776692397892475
2558851512325,-0.2932897210121155,-9.847352027893066,0.11133038252592087,0.0138414166867733,-0.010913425125181675,0.010114881210029125
2558852749475,-0.2968810200691223,-9.831789016723633,0.13407529890537262,0.01357523538172245,-0.008251613937318325,0.008783976547420025
2558853986637,-0.32441434264183044,-9.813833236694336,0.11971008777618408,0.01357523538172245,-0.01171196810901165,0.0114457868039608
2558855223775,-0.3208230435848236,-9.816226959228516,0.09696517139673233,0.01224433071911335,-0.01171196810901165,0.0119781494140625
2558856460925,-0.2825157940387726,-9.832986831665039,0.10295067727565765,0.013042873702943325,-0.007985432632267475,0.010647243820130825
2558857698062,-0.3411737382411957,-9.798270225524902,0.09696517139673233,0.013309055007994175,-0.00931633822619915,0.014373779296875
2558858935225,-0.3711012601852417,-9.768342971801758,0.09576807171106339,0.01410759799182415,-0.0138414166867733,0.014373779296875
2558860172362,-0.31124621629714966,-9.768342971801758,0.09576807171106339,0.0119781494140625,-0.01410759799182415,0.01410759799182415
2558861409512,-0.33758243918418884,-9.782708168029785,0.11252748221158981,0.010114881210029125,-0.010647243820130825,0.010913425125181675
2558862646675,-0.3531447649002075,-9.7420072555542,0.09935937076807022,0.014906140975654125,-0.012776692397892475,0.01410759799182415
2558863883812,-0.3818751871585846,-9.800664901733398,0.090979665517807,0.00931633822619915,-0.00984870083630085,0.0114457868039608
2558865120962,-0.3423708379268646,-9.805453300476074,0.07062894850969315,0.010647243820130825,-0.010114881210029125,0.015172322280704975
2558866358112,-0.35913026332855225,-9.786299705505371,0.12090718746185303,0.0167694091796875,-0.0114457868039608,0.01650322787463665
2558867595250,-0.33758243918418884,-9.77552604675293,0.1149216815829277,0.0157046839594841,-0.0114457868039608,0.010114881210029125
2558868832387,-0.3423708379268646,-9.803058624267578,0.1041477769613266,0.01410759799182415,-0.012776692397892475,0.0114457868039608
2558870069550,-0.36750996112823486,-9.789891242980957,0.07302315533161163,0.015172322280704975,-0.015172322280704975,0.0173017717897892
2558871306675,-0.3734954595565796,-9.768342971801758,0.09816227108240128,0.01756795309484005,-0.013042873702943325,0.014906140975654125
2558872543825,-0.4034229815006256,-9.793481826782227,0.11971008777618408,0.013042873702943325,-0.01410759799182415,0.013042873702943325
2558873780987,-0.363918662071228,-9.801861763000488,0.11611878126859665,0.01357523538172245,-0.0167694091796875,0.01224433071911335
2558875018125,-0.34596213698387146,-9.828198432922363,0.09816227108240128,0.0114457868039608,-0.015438503585755825,0.01117960549890995
2558876255287,-0.3447650372982025,-9.840168952941895,0.0933738648891449,0.01783413253724575,-0.0167694091796875,0.01171196810901165
2558877492425,-0.3770867586135864,-9.823410034179688,0.1173158809542656,0.01650322787463665,-0.01756795309484005,0.015172322280704975
2558878729575,-0.395043283700943,-9.830592155456543,0.15322890877723694,0.012776692397892475,-0.01463996060192585,0.005057440605014563
2558879966725,-0.33758243918418884,-9.84256362915039,0.11611878126859665,0.01836649514734745,-0.013042873702943325,0.0063883461989462376
2558881203862,-0.3734954595565796,-9.848548889160156,0.1364694982767105,0.013309055007994175,-0.010913425125181675,0.013042873702943325
2558882441025,-0.3974374830722809,-9.854534149169922,0.10654197633266449,0.0157046839594841,-0.0157046839594841,0.004791259765625
2558883678175,-0.3423708379268646,-9.856928825378418,0.09217676520347595,0.012776692397892475,-0.015438503585755825,0.0039927163161337376
2558884915312,-0.365115761756897,-9.835380554199219,0.1041477769613266,0.013309055007994175,-0.0138414166867733,0.010381062515079975
2558886152462,-0.37828385829925537,-9.84256362915039,0.10295067727565765,0.01171196810901165,-0.0162370465695858,0.010114881210029125
2558887389612,-0.3842693865299225,-9.853337287902832,0.11252748221158981,0.010114881210029125,-0.01783413253724575,0.010647243820130825
2558888626750,-0.36990416049957275,-9.865307807922363,0.10055647045373917,0.014906140975654125,-0.01783413253724575,0.013309055007994175
2558889863900,-0.35913026332855225,-9.853337287902832,0.08978256583213806,0.01171196810901165,-0.0173017717897892,0.010381062515079975
2558891101050,-0.37828385829925537,-9.841365814208984,0.090979665517807,0.0090501569211483,-0.0204959437251091,0.010381062515079975
2558892338212,-0.39384618401527405,-9.821015357971191,0.10654197633266449,0.0077192517928779125,-0.01703559048473835,0.010647243820130825
2558893575362,-0.3758896589279175,-9.847352027893066,0.1041477769613266,0.007453070487827063,-0.02022976242005825,0.00931633822619915
2558894812512,-0.35673606395721436,-9.841365814208984,0.09696517139673233,0.010381062515079975,-0.01650322787463665,0.008517795242369175
2558896049625,-0.3471592366695404,-9.9000244140625,0.08858546614646912,0.01171196810901165,-0.0162370465695858,0.00931633822619915
2558897286787,-0.3603273630142212,-9.823410034179688,0.13766659796237946,0.01357523538172245,-0.0173017717897892,0.010913425125181675
2558898523937,-0.40462008118629456,-9.873687744140625,0.10773907601833344,0.0090501569211483,-0.010114881210029125,0.003460354171693325
2558899761075,-0.3687070608139038,-9.838972091674805,0.16998831927776337,0.00692070834338665,-0.01836649514734745,0.0021294488105922937
2558900998237,-0.39863458275794983,-9.838972091674805,0.07182604819536209,0.0066545275039970875,-0.015172322280704975,0.00692070834338665
2558902235387,-0.4034229815006256,-9.793481826782227,0.13527239859104156,0.01224433071911335,-0.01597086526453495,0.00984870083630085
2558903472537,-0.3866635859012604,-9.799468040466309,0.11851298809051514,0.01410759799182415,-0.01597086526453495,0.007985432632267475
2558904709675,-0.3878606855869293,-9.787496566772461,0.12210428714752197,0.010114881210029125,-0.012510511092841625,0.005589802749454975
2558905946837,-0.4189853072166443,-9.781511306762695,0.12330138683319092,0.0119781494140625,-0.0138414166867733,0.0071868896484375
2558907183975,-0.3794809579849243,-9.77672290802002,0.08738835901021957,0.010647243820130825,-0.01463996060192585,0.010381062515079975
2558908421112,-0.3974374830722809,-9.791088104248047,0.11252748221158981,0.007985432632267475,-0.012510511092841625,0.008517795242369175
2558909658262,-0.42856210470199585,-9.797073364257812,0.1280897855758667,0.007453070487827063,-0.0119781494140625,0.008517795242369175
2558910895412,-0.4118027091026306,-9.801861763000488,0.14484921097755432,0.007985432632267475,-0.010381062515079975,0.007453070487827063
2558912132575,-0.4357447028160095,-9.804256439208984,0.10055647045373917,0.00958251953125,-0.01224433071911335,0.00692070834338665
2558913369700,-0.4465186297893524,-9.827000617980957,0.08499415963888168,0.0090501569211483,-0.0138414166867733,0.008783976547420025
2558914606862,-0.3998316824436188,-9.795876502990723,0.06823474913835526,0.008251613937318325,-0.012510511092841625,0.00452507846057415
2558915844012,-0.4465186297893524,-9.821015357971191,0.11971008777618408,0.007985432632267475,-0.008783976547420025,0.0037265352439135313
2558917081150,-0.42018240690231323,-9.894038200378418,0.08858546614646912,0.007453070487827063,-0.0077192517928779125,0.008517795242369175
2558918318300,-0.4537012279033661,-9.86889934539795,0.08619125932455063,0.00984870083630085,-0.013309055007994175,0.010913425125181675
2558919555462,-0.45489832758903503,-9.895236015319824,0.08499415963888168,0.0071868896484375,-0.0114457868039608,0.0071868896484375
2558920792600,-0.4776432514190674,-9.90361499786377,0.11372458189725876,0.010114881210029125,-0.007985432632267475,0.0077192517928779125
2558922029750,-0.4836287498474121,-9.908403396606445,0.10055647045373917,0.0090501569211483,-0.005589802749454975,0.0063883461989462376
2558923266900,-0.5063736438751221,-9.947908401489258,0.0802057608962059,0.00692070834338665,-0.0071868896484375,0.004791259765625
2558924504062,-0.48961424827575684,-9.949105262756348,0.1149216815829277,0.008783976547420025,-0.0031941730994731188,0.00452507846057415
2558925741200,-0.4991910457611084,-9.9586820602417,0.08978256583213806,0.0031941730994731188,0.0007985432748682797,0.0077192517928779125
2558926978350,-0.4141969084739685,-9.97065258026123,0.07900865375995636,0.0010647244052961469,-0.0029279920272529125,0.010913425125181675
2558928215500,-0.456095427274704,-9.985018730163574,0.05386953800916672,0.0042588976211845875,-0.005855984054505825,0.006122165359556675
2558929452650,-0.4213795065879822,-9.99220085144043,0.07781155407428741,0.00452507846057415,0.0018632676219567657,0.0066545275039970875
2558930689775,-0.48602294921875,-9.977835655212402,0.12449848651885986,0.0029279920272529125,0.006122165359556675,0.0071868896484375
2558931926925,-0.5015852451324463,-9.967061996459961,0.05746084079146385,0.005057440605014563,0.0023956298828125,0.0090501569211483
2558933164075,-0.42616790533065796,-9.93593692779541,0.10773907601833344,-0.0026618109550327063,0.0021294488105922937,0.0114457868039608
2558934401225,-0.4321534037590027,-9.955090522766113,0.07422025501728058,-0.0007985432748682797,0.0053236219100654125,0.0090501569211483
2558935638362,-0.4489128291606903,-9.950302124023438,0.07062894850969315,0.0002661811013240367,0.0077192517928779125,0.008517795242369175
2558936875537,-0.4513070285320282,-9.931148529052734,0.06703764945268631,0.0005323622026480734,0.0031941730994731188,0.0090501569211483
2558938112675,-0.5183447003364563,-9.940725326538086,0.12449848651885986,-0.0015970865497365594,0.005855984054505825,0.0063883461989462376
2558939349825,-0.46567222476005554,-9.8784761428833,0.10893617570400238,-0.00452507846057415,0.0119781494140625,0.0042588976211845875
2558940586975,-0.46088382601737976,-9.896432876586914,0.07900865375995636,-0.006122165359556675,0.00931633822619915,0.007985432632267475
2558941824112,-0.49320554733276367,-9.87967300415039,0.12090718746185303,-0.0063883461989462376,0.00958251953125,0.0066545275039970875
2558943061262,-0.4728548526763916,-9.84256362915039,0.1173158809542656,-0.0077192517928779125,0.0114457868039608,0.0066545275039970875
2558944298400,-0.47405195236206055,-9.861717224121094,0.11971008777618408,-0.0077192517928779125,0.0114457868039608,0.01117960549890995
2558945535562,-0.424970805644989,-9.860519409179688,0.10534487664699554,-0.0037265352439135313,0.014373779296875,0.010381062515079975
2558946772700,-0.4513070285320282,-9.80904483795166,0.07900865375995636,-0.0039927163161337376,0.014906140975654125,0.005589802749454975
2558948009850,-0.4273650050163269,-9.801861763000488,0.10534487664699554,-0.00452507846057415,0.0223592109978199,0.010647243820130825
2558949247000,-0.41299980878829956,-9.807847023010254,0.10055647045373917,-0.0077192517928779125,0.015172322280704975,0.01171196810901165
2558950484137,-0.43335050344467163,-9.80904483795166,0.07062894850969315,-0.003460354171693325,0.01943122036755085,0.010381062515079975
2558951721287,-0.4620809257030487,-9.807847023010254,0.10773907601833344,-0.0053236219100654125,0.014906140975654125,0.012510511092841625
2558952958437,-0.3974374830722809,-9.800664901733398,0.07422025501728058,-0.005057440605014563,0.02022976242005825,0.0119781494140625
2558954195600,-0.4225766062736511,-9.787496566772461,0.11611878126859665,-0.0013309054775163531,0.01650322787463665,0.01783413253724575
2558955432750,-0.4297592043876648,-9.787496566772461,0.10175357013940811,-0.005589802749454975,0.0215606689453125,0.0191650390625
2558956669887,-0.41539400815963745,-9.75278091430664,0.1472434103488922,0.0007985432748682797,0.0228915736079216,0.01943122036755085
2558957907037,-0.4010287821292877,-9.725247383117676,0.08738835901021957,0.005589802749454975,0.02129448764026165,0.0204959437251091
2558959144187,-0.3878606855869293,-9.703699111938477,0.08978256583213806,0.00452507846057415,0.023956298828125,0.02182685025036335
2558960381337,-0.3627215623855591,-9.6989107131958,0.12689268589019775,-0.0018632676219567657,0.0247548408806324,0.0191650390625
2558961618475,-0.3734954595565796,-9.658209800720215,0.0933738648891449,0.0023956298828125,0.0223592109978199,0.0234239362180233
2558962855637,-0.35913026332855225,-9.703699111938477,0.08619125932455063,0.0037265352439135313,0.01703559048473835,0.0244886614382267
2558964092762,-0.36990416049957275,-9.695320129394531,0.07062894850969315,0.0013309054775163531,0.023956298828125,0.0223592109978199
2558965329925,-0.3902548849582672,-9.696516990661621,0.1388636976480484,0.0063883461989462376,0.0306108258664608,0.0258195661008358
2558966567075,-0.3627215623855591,-9.672574996948242,0.09696517139673233,0.01117960549890995,0.0228915736079216,0.02608574740588665
2558967804212,-0.40222588181495667,-9.674968719482422,0.09217676520347595,0.0071868896484375,0.0258195661008358,0.023956298828125
2558969041375,-0.4034229815006256,-9.671378135681152,0.10295067727565765,0.007985432632267475,0.02315775491297245,0.0228915736079216
2558970278512,-0.3902548849582672,-9.68694019317627,0.12689268589019775,0.0114457868039608,0.0228915736079216,0.0228915736079216
2558971515662,-0.4034229815006256,-9.645041465759277,0.09457096457481384,0.013042873702943325,0.0282151959836483,0.0234239362180233
2558972752837,-0.41299980878829956,-9.6618013381958,0.12928690016269684,0.0204959437251091,0.02741665206849575,0.02981228195130825
2558973989975,-0.3974374830722809,-9.7420072555542,0.1149216815829277,0.0196974016726017,0.0228915736079216,0.02422248013317585
2558975227112,-0.37828385829925537,-9.759963035583496,0.08738835901021957,0.01224433071911335,0.0234239362180233,0.02262539230287075
2558976464262,-0.3818751871585846,-9.75517463684082,0.10893617570400238,0.0196974016726017,0.02608574740588665,0.0215606689453125
2558977701387,-0.3734954595565796,-9.77791976928711,0.08259996026754379,0.0186326764523983,0.02608574740588665,0.0263519287109375
2558978938550,-0.3770867586135864,-9.768342971801758,0.06464345008134842,0.01463996060192585,0.02661811001598835,0.02661811001598835
2558980175700,-0.3794809579849243,-9.774328231811523,0.07182604819536209,0.01996358297765255,0.0295461006462574,0.02741665206849575
2558981412837,-0.3711012601852417,-9.831789016723633,0.1256955862045288,0.01783413253724575,0.0276828333735466,0.0258195661008358
2558982650012,-0.38546648621559143,-9.819818496704102,0.1280897855758667,0.01996358297765255,0.0234239362180233,0.02422248013317585
2558983887137,-0.3794809579849243,-9.871294021606445,0.090979665517807,0.0223592109978199,0.02741665206849575,0.02502102218568325
2558985124287,-0.35434186458587646,-9.854534149169922,0.08499415963888168,0.0223592109978199,0.0276828333735466,0.0204959437251091
2558986361437,-0.42377370595932007,-9.850942611694336,0.08858546614646912,0.02022976242005825,0.0276828333735466,0.0196974016726017
2558987598587,-0.3531447649002075,-9.864110946655273,0.11252748221158981,0.02076212503015995,0.02422248013317585,0.0220930315554142
2558988835725,-0.3794809579849243,-9.90122127532959,0.10654197633266449,0.0223592109978199,0.02262539230287075,0.02608574740588665
2558990072887,-0.365115761756897,-9.909601211547852,0.14484921097755432,0.01836649514734745,0.0247548408806324,0.0162370465695858
2558991310012,-0.3902548849582672,-9.882067680358887,0.13048399984836578,0.0247548408806324,0.02422248013317585,0.01650322787463665
2558992547175,-0.35673606395721436,-9.922768592834473,0.11372458189725876,0.0247548408806324,0.02262539230287075,0.02315775491297245
2558993784312,-0.40462008118629456,-9.911994934082031,0.1364694982767105,0.01943122036755085,0.0228915736079216,0.02182685025036335
2558995021475,-0.36750996112823486,-9.93593692779541,0.13527239859104156,0.01943122036755085,0.0220930315554142,0.02369011752307415
2558996258637,-0.35075056552886963,-9.93354320526123,0.11252748221158981,0.02076212503015995,0.02422248013317585,0.01783413253724575
2558997495762,-0.3794809579849243,-9.950302124023438,0.10654197633266449,0.0196974016726017,0.0263519287109375,0.01783413253724575
2558998732912,-0.3974374830722809,-9.955090522766113,0.1149216815829277,0.012776692397892475,0.0223592109978199,0.01996358297765255
2558999970062,-0.3878606855869293,-9.965864181518555,0.11252748221158981,0.014373779296875,0.01889885775744915,0.01463996060192585
2559001207225,-0.3818751871585846,-9.982624053955078,0.10055647045373917,0.015438503585755825,0.02874755859375,0.012510511092841625
2559002444350,-0.3926490843296051,-9.9586820602417,0.10773907601833344,0.014906140975654125,0.0228915736079216,0.01703559048473835
2559003681500,-0.4225766062736511,-9.956287384033203,0.08619125932455063,0.015438503585755825,0.02555338479578495,0.01996358297765255
2559004918662,-0.39624038338661194,-10.013749122619629,0.09217676520347595,0.015438503585755825,0.02502102218568325,0.02076212503015995
2559006155812,-0.4321534037590027,-9.983820915222168,0.1041477769613266,0.010647243820130825,0.01996358297765255,0.0181003138422966
2559007392950,-0.41299980878829956,-9.955090522766113,0.10654197633266449,0.010913425125181675,0.0196974016726017,0.010913425125181675
2559008630112,-0.42377370595932007,-9.93474006652832,0.08379705995321274,0.006122165359556675,0.0247548408806324,0.0157046839594841
2559009867262,-0.33997663855552673,-9.9371337890625,0.1173158809542656,0.0071868896484375,0.02502102218568325,0.012776692397892475
2559011104387,-0.35913026332855225,-9.910798072814941,0.12449848651885986,0.005855984054505825,0.02422248013317585,0.0077192517928779125
2559012341537,-0.4273650050163269,-9.9371337890625,0.0933738648891449,0.0053236219100654125,0.0228915736079216,0.012776692397892475
2559013578712,-0.4058171808719635,-9.93354320526123,0.13048399984836578,0.0021294488105922937,0.01889885775744915,0.012776692397892475
2559014815837,-0.3519476652145386,-9.93593692779541,0.09576807171106339,0.0013309054775163531,0.0191650390625,0.010913425125181675
2559016053000,-0.3555389642715454,-9.926360130310059,0.03711012750864029,-0.0015970865497365594,0.023956298828125,0.007453070487827063
2559017290125,-0.3663128614425659,-9.915586471557617,0.08379705995321274,0.0013309054775163531,0.02182685025036335,0.0037265352439135313
2559018527300,-0.4010287821292877,-9.920374870300293,0.09935937076807022,-0.0002661811013240367,0.02369011752307415,0.0066545275039970875
2559019764437,-0.39384618401527405,-9.921571731567383,0.1149216815829277,0.0037265352439135313,0.0204959437251091,0.00452507846057415
2559021001600,-0.3734954595565796,-9.929951667785645,0.1364694982767105,-0.0010647244052961469,0.0186326764523983,0.0013309054775163531
2559022238750,-0.37469255924224854,-9.93593692779541,0.07661445438861847,0.0,0.0215606689453125,0.0023956298828125
2559023475887,-0.38307228684425354,-9.950302124023438,0.06344634294509888,-0.0002661811013240367,0.0167694091796875,0.0029279920272529125
2559024713037,-0.3878606855869293,-9.971850395202637,0.0694318488240242,-0.0021294488105922937,0.0215606689453125,0.006122165359556675
2559025950175,-0.39863458275794983,-9.926360130310059,0.10654197633266449,-0.004791259765625,0.02315775491297245,0.0066545275039970875
2559027187325,-0.37828385829925537,-9.90361499786377,0.08259996026754379,-0.005855984054505825,0.02022976242005825,0.0023956298828125
2559028424487,-0.35913026332855225,-9.898826599121094,0.10055647045373917,-0.0021294488105922937,0.02369011752307415,0.0023956298828125
2559029661637,-0.33758243918418884,-9.964667320251465,0.09935937076807022,-0.008783976547420025,0.0234239362180233,0.0002661811013240367
2559030898762,-0.36990416049957275,-9.920374870300293,0.0586579404771328,-0.006122165359556675,0.02369011752307415,0.004791259765625
2559032135912,-0.363918662071228,-9.908403396606445,0.10175357013940811,-0.010114881210029125,0.0223592109978199,0.0018632676219567657
2559033373075,-0.3411737382411957,-9.86770248413086,0.11611878126859665,-0.01650322787463665,0.0244886614382267,0.0018632676219567657
2559034610212,-0.33518823981285095,-9.84495735168457,0.11851298809051514,-0.01597086526453495,0.02848137728869915,-0.0002661811013240367
2559035847350,-0.34356793761253357,-9.800664901733398,0.08858546614646912,-0.008783976547420025,0.0210283063352108,0.0013309054775163531
2559037084525,-0.3016694188117981,-9.825803756713867,0.08738835901021957,-0.01117960549890995,0.01650322787463665,0.0015970865497365594
2559038321662,-0.3292027413845062,-9.81143856048584,0.11133038252592087,-0.008251613937318325,0.0204959437251091,-0.0015970865497365594
2559039558800,-0.32441434264183044,-9.797073364257812,0.06703764945268631,-0.010114881210029125,0.01996358297765255,-0.0018632676219567657
2559040795950,-0.32441434264183044,-9.774328231811523,0.09217676520347595,-0.008517795242369175,0.01943122036755085,0.0013309054775163531
2559042033100,-0.2753331959247589,-9.743204116821289,0.12090718746185303,-0.005855984054505825,0.0191650390625,0.004791259765625
2559043270250,-0.2968810200691223,-9.730035781860352,0.12210428714752197,-0.010381062515079975,0.01943122036755085,0.0015970865497365594
2559044507400,-0.31124621629714966,-9.737218856811523,0.090979665517807,-0.008517795242369175,0.01756795309484005,0.0037265352439135313
2559045744550,-0.3232172429561615,-9.746795654296875,0.07781155407428741,-0.0037265352439135313,0.0162370465695858,0.0021294488105922937
2559046981687,-0.2621650993824005,-9.743204116821289,0.1472434103488922,-0.0053236219100654125,0.01783413253724575,-0.0026618109550327063
2559048218825,-0.3100491166114807,-9.744400978088379,0.10654197633266449,-0.0005323622026480734,0.01756795309484005,-0.0002661811013240367
2559049456000,-0.31364041566848755,-9.737218856811523,0.10295067727565765,0.0042588976211845875,0.01171196810901165,-0.0029279920272529125
2559050693150,-0.31364041566848755,-9.718064308166504,0.09217676520347595,-0.004791259765625,0.015172322280704975,-0.0002661811013240367
2559051930262,-0.28730419278144836,-9.773131370544434,0.09217676520347595,-0.0013309054775163531,0.014373779296875,-0.0005323622026480734
2559053167425,-0.31364041566848755,-9.736021041870117,0.1041477769613266,0.0018632676219567657,0.0119781494140625,-0.005057440605014563
2559054404575,-0.31603461503982544,-9.737218856811523,0.08259996026754379,0.0039927163161337376,0.010114881210029125,0.0010647244052961469
2559055641725,-0.30047231912612915,-9.761160850524902,0.09935937076807022,0.00692070834338665,0.014373779296875,0.003460354171693325
2559056878875,-0.2968810200691223,-9.744400978088379,0.12928690016269684,0.004791259765625,0.0173017717897892,-0.005057440605014563
2559058116012,-0.29807811975479126,-9.749189376831055,0.09935937076807022,0.007985432632267475,0.008783976547420025,-0.0026618109550327063
2559059353175,-0.34596213698387146,-9.749189376831055,0.0347159244120121,0.008783976547420025,0.012510511092841625,0.0031941730994731188
2559060590325,-0.3280056416988373,-9.725247383117676,0.11133038252592087,0.0066545275039970875,0.00984870083630085,0.003460354171693325
2559061827487,-0.29568392038345337,-9.68694019317627,0.13287819921970367,0.0066545275039970875,0.0071868896484375,0.0023956298828125
2559063064612,-0.2885012924671173,-9.680954933166504,0.09935937076807022,0.0071868896484375,0.0114457868039608,0.0
2559064301762,-0.29209262132644653,-9.676166534423828,0.08978256583213806,0.00931633822619915,0.010647243820130825,0.0029279920272529125
2559065538912,-0.26096799969673157,-9.654618263244629,0.0802057608962059,0.010381062515079975,0.00692070834338665,0.0029279920272529125
2559066776062,-0.29568392038345337,-9.655815124511719,0.09576807171106339,0.013309055007994175,0.007453070487827063,-0.0031941730994731188
2559068013225,-0.2908955216407776,-9.622296333312988,0.10175357013940811,0.0186326764523983,0.0053236219100654125,0.003460354171693325
2559069250362,-0.2537853717803955,-9.692925453186035,0.11133038252592087,0.0173017717897892,0.00692070834338665,0.0018632676219567657
2559070487500,-0.27054479718208313,-9.646238327026367,0.09816227108240128,0.01703559048473835,0.012776692397892475,0.0010647244052961469
2559071724662,-0.32202014327049255,-9.624691009521484,0.06823474913835526,0.023956298828125,0.00692070834338665,0.005589802749454975
2559072961800,-0.30526071786880493,-9.653421401977539,0.07900865375995636,0.02369011752307415,0.005589802749454975,0.005589802749454975
2559074198950,-0.29568392038345337,-9.641449928283691,0.08738835901021957,0.0252872034907341,0.0029279920272529125,0.0037265352439135313
2559075436100,-0.30047231912612915,-9.6618013381958,0.12928690016269684,0.0276828333735466,0.0042588976211845875,0.0029279920272529125
2559076673250,-0.2968810200691223,-9.695320129394531,0.07302315533161163,0.02555338479578495,0.0018632676219567657,0.0002661811013240367
2559077910412,-0.27054479718208313,-9.713275909423828,0.008379706181585789,0.0252872034907341,0.0010647244052961469,0.0007985432748682797
2559079147537,-0.30526071786880493,-9.733627319335938,0.07781155407428741,0.0306108258664608,0.0026618109550327063,0.0015970865497365594
2559080384687,-0.25737667083740234,-9.707290649414062,0.07781155407428741,0.0314093679189682,0.0002661811013240367,0.0018632676219567657
2559081621837,-0.27054479718208313,-9.747992515563965,0.12689268589019775,0.0319417305290699,-0.0026618109550327063,0.004791259765625
2559082858975,-0.3016694188117981,-9.765949249267578,0.10893617570400238,0.02981228195130825,-0.0007985432748682797,0.004791259765625
2559084096150,-0.27054479718208313,-9.80904483795166,0.043095629662275314,0.03034464456140995,0.0023956298828125,0.003460354171693325
2559085333287,-0.30047231912612915,-9.80904483795166,0.09816227108240128,0.0327402763068676,0.0021294488105922937,0.0002661811013240367
2559086570425,-0.27892449498176575,-9.793481826782227,0.12330138683319092,0.0367329902946949,-0.0010647244052961469,0.004791259765625
2559087807575,-0.3148375153541565,-9.828198432922363,0.05626374110579491,0.0338049978017807,-0.0042588976211845875,0.0053236219100654125
2559089044750,-0.29209262132644653,-9.785102844238281,0.11971008777618408,0.0348697230219841,-0.00452507846057415,0.0053236219100654125
2559090281875,-0.3232172429561615,-9.75517463684082,0.11611878126859665,0.0372653529047966,0.0015970865497365594,0.0018632676219567657
2559091519025,-0.3423708379268646,-9.800664901733398,0.09217676520347595,0.0351359061896801,-0.0015970865497365594,0.0002661811013240367
2559092756162,-0.3016694188117981,-9.795876502990723,0.11133038252592087,0.0319417305290699,-0.0026618109550327063,0.0
2559093993312,-0.3100491166114807,-9.837775230407715,0.11851298809051514,0.0346035435795784,-0.0021294488105922937,0.0015970865497365594
2559095230462,-0.30885201692581177,-9.789891242980957,0.1412578970193863,0.0423227921128273,-0.008783976547420025,0.0066545275039970875
2559096467625,-0.272938996553421,-9.797073364257812,0.10175357013940811,0.0359344482421875,-0.007985432632267475,0.0023956298828125
2559097704775,-0.3447650372982025,-9.817423820495605,0.09935937076807022,0.0377977155148983,0.0,0.0013309054775163531
2559098941925,-0.333991140127182,-9.7791166305542,0.12689268589019775,0.0377977155148983,-0.005057440605014563,0.0031941730994731188
2559100179062,-0.2717418968677521,-9.816226959228516,0.11372458189725876,0.0362006276845932,-0.007985432632267475,0.007985432632267475
2559101416225,-0.28730419278144836,-9.783905029296875,0.13287819921970367,0.0375315360724926,-0.0037265352439135313,0.0021294488105922937
2559102653362,-0.2944868206977844,-9.783905029296875,0.1412578970193863,0.0359344482421875,-0.0015970865497365594,0.0026618109550327063
2559103890512,-0.30885201692581177,-9.828198432922363,0.07900865375995636,0.0340711809694767,-0.005589802749454975,0.0018632676219567657
2559105127662,-0.30286651849746704,-9.81263542175293,0.10773907601833344,0.038330078125,-0.005589802749454975,0.0018632676219567657
2559106364800,-0.30526071786880493,-9.819818496704102,0.10893617570400238,0.0404595248401165,-0.006122165359556675,0.0066545275039970875
2559107601950,-0.3280056416988373,-9.815030097961426,0.1364694982767105,0.0364668108522892,-0.0023956298828125,0.0018632676219567657
2559108839112,-0.31842881441116333,-9.829395294189453,0.08738835901021957,0.0330064557492733,-0.00452507846057415,0.0023956298828125
2559110076250,-0.31603461503982544,-9.834183692932129,0.08858546614646912,0.0300784632563591,-0.005855984054505825,0.0023956298828125
2559111313387,-0.3016694188117981,-9.80904483795166,0.08619125932455063,0.0346035435795784,-0.004791259765625,0.004791259765625
2559112550550,-0.29209262132644653,-9.81143856048584,0.09935937076807022,0.0359344482421875,-0.00692070834338665,0.0053236219100654125
2559113787687,-0.3471592366695404,-9.84615421295166,0.14006079733371735,0.0330064557492733,-0.0071868896484375,0.0018632676219567657
2559115024850,-0.31124621629714966,-9.84615421295166,0.1041477769613266,0.0314093679189682,-0.010381062515079975,0.0010647244052961469
2559116262000,-0.2932897210121155,-9.837775230407715,0.14484921097755432,0.03087700717151165,-0.008783976547420025,0.0037265352439135313
2559117499137,-0.28131869435310364,-9.865307807922363,0.13048399984836578,0.0348697230219841,-0.010913425125181675,0.005855984054505825
2559118736300,-0.3447650372982025,-9.800664901733398,0.1280897855758667,0.0338049978017807,-0.007985432632267475,0.0029279920272529125
2559119973437,-0.3555389642715454,-9.824606895446777,0.1604115217924118,0.0351359061896801,-0.008783976547420025,0.0037265352439135313
2559121210587,-0.3256114423274994,-9.828198432922363,0.1388636976480484,0.0340711809694767,-0.013309055007994175,0.0063883461989462376
2559122447737,-0.31124621629714966,-9.891644477844238,0.1412578970193863,0.0319417305290699,-0.010381062515079975,0.0010647244052961469
2559123684887,-0.31364041566848755,-9.84615421295166,0.1149216815829277,0.02981228195130825,-0.007985432632267475,-0.003460354171693325
2559124922025,-0.3256114423274994,-9.86650562286377,0.08978256583213806,0.0314093679189682,-0.00958251953125,0.0037265352439135313
2559126159187,-0.30885201692581177,-9.841365814208984,0.1173158809542656,0.0316755510866642,-0.00692070834338665,0.0031941730994731188
2559127396337,-0.3411737382411957,-9.827000617980957,0.152031809091568,0.02741665206849575,-0.01117960549890995,0.0007985432748682797
2559128633462,-0.31364041566848755,-9.84615421295166,0.11133038252592087,0.02608574740588665,-0.0114457868039608,0.0063883461989462376
2559129870625,-0.28371289372444153,-9.813833236694336,0.15322890877723694,0.0252872034907341,-0.012776692397892475,0.0042588976211845875
2559131107775,-0.34596213698387146,-9.780314445495605,0.09696517139673233,0.0258195661008358,-0.014906140975654125,0.006122165359556675
2559132344925,-0.3076549172401428,-9.783905029296875,0.17238251864910126,0.02741665206849575,-0.014906140975654125,0.005589802749454975
2559133582087,-0.30885201692581177,-9.86770248413086,0.13168109953403473,0.02661811001598835,-0.0162370465695858,0.003460354171693325
2559134819212,-0.3100491166114807,-9.86650562286377,0.1735796183347702,0.02874755859375,-0.01597086526453495,0.0071868896484375
2559136056362,-0.3100491166114807,-9.86650562286377,0.090979665517807,0.03087700717151165,-0.0186326764523983,0.00984870083630085
2559137293512,-0.28371289372444153,-9.873687744140625,0.12210428714752197,0.0282151959836483,-0.01889885775744915,0.010913425125181675
2559138530662,-0.3208230435848236,-9.884461402893066,0.14604631066322327,0.0263519287109375,-0.01703559048473835,0.00931633822619915
2559139767837,-0.2992752194404602,-9.864110946655273,0.1496376097202301,0.02555338479578495,-0.01650322787463665,0.0071868896484375
2559141004962,-0.3363853394985199,-9.827000617980957,0.1388636976480484,0.023956298828125,-0.01597086526453495,0.0090501569211483
2559142242100,-0.26575639843940735,-9.874884605407715,0.1041477769613266,0.0223592109978199,-0.01703559048473835,0.0077192517928779125
2559143479262,-0.2825157940387726,-9.828198432922363,0.09696517139673233,0.02422248013317585,-0.01703559048473835,0.0119781494140625
2559144716400,-0.30526071786880493,-9.861717224121094,0.10893617570400238,0.02555338479578495,-0.0244886614382267,0.010114881210029125
2559145953562,-0.31603461503982544,-9.836577415466309,0.10893617570400238,0.0181003138422966,-0.02022976242005825,0.00931633822619915
2559147190687,-0.28730419278144836,-9.876082420349121,0.14484921097755432,0.0157046839594841,-0.01943122036755085,0.014906140975654125
2559148427862,-0.304063618183136,-9.872490882873535,0.11971008777618408,0.01703559048473835,-0.02022976242005825,0.015438503585755825
2559149665012,-0.272938996553421,-9.858125686645508,0.1364694982767105,0.0223592109978199,-0.0191650390625,0.015172322280704975
2559150902150,-0.2585738003253937,-9.836577415466309,0.13287819921970367,0.0191650390625,-0.02315775491297245,0.01597086526453495
2559152139300,-0.2932897210121155,-9.852140426635742,0.08978256583213806,0.010114881210029125,-0.0258195661008358,0.01597086526453495
2559153376437,-0.3016694188117981,-9.819818496704102,0.11252748221158981,0.012776692397892475,-0.0295461006462574,0.0157046839594841
2559154613600,-0.30047231912612915,-9.817423820495605,0.09935937076807022,0.012510511092841625,-0.02608574740588665,0.01650322787463665
2559155850750,-0.3064578175544739,-9.795876502990723,0.08858546614646912,0.012510511092841625,-0.02422248013317585,0.012510511092841625
2559157087875,-0.2717418968677521,-9.816226959228516,0.15083470940589905,0.01117960549890995,-0.0292799212038517,0.01224433071911335
2559158325037,-0.2717418968677521,-9.827000617980957,0.16519992053508759,0.0167694091796875,-0.0338049978017807,0.0181003138422966
2559159562175,-0.3280056416988373,-9.804256439208984,0.14484921097755432,0.014906140975654125,-0.0327402763068676,0.02076212503015995
2559160799337,-0.3315969407558441,-9.84256362915039,0.09696517139673233,0.015438503585755825,-0.0295461006462574,0.014906140975654125
2559162036487,-0.2944868206977844,-9.787496566772461,0.11611878126859665,0.015172322280704975,-0.02848137728869915,0.0167694091796875
2559163273625,-0.3256114423274994,-9.870096206665039,0.14245499670505524,0.0157046839594841,-0.0319417305290699,0.01597086526453495
2559164510800,-0.31603461503982544,-9.836577415466309,0.16998831927776337,0.01357523538172245,-0.0316755510866642,0.012776692397892475
2559165747925,-0.2944868206977844,-9.874884605407715,0.15801730751991272,0.012510511092841625,-0.0372653529047966,0.015438503585755825
2559166985075,-0.31364041566848755,-9.827000617980957,0.15442600846290588,0.0138414166867733,-0.0356682650744915,0.02182685025036335
2559168222237,-0.31842881441116333,-9.84376049041748,0.09935937076807022,0.015438503585755825,-0.0340711809694767,0.0181003138422966
2559169459387,-0.3016694188117981,-9.894038200378418,0.13168109953403473,0.01171196810901165,-0.0364668108522892,0.0196974016726017
2559170696525,-0.3280056416988373,-9.886856079101562,0.15682020783424377,0.012776692397892475,-0.0364668108522892,0.0167694091796875
2559171933650,-0.3292027413845062,-9.896432876586914,0.19033904373645782,0.012776692397892475,-0.0393948033452034,0.015438503585755825
2559173170825,-0.3208230435848236,-9.913191795349121,0.1843535304069519,0.0119781494140625,-0.0359344482421875,0.0223592109978199
2559174407975,-0.30526071786880493,-9.938331604003906,0.15562310814857483,0.008783976547420025,-0.0343373604118824,0.01836649514734745
2559175645125,-0.34596213698387146,-9.907206535339355,0.16879121959209442,0.00931633822619915,-0.0407257080078125,0.01703559048473835
2559176882287,-0.31364041566848755,-9.926360130310059,0.1759738326072693,0.00931633822619915,-0.038330078125,0.01943122036755085
2559178119412,-0.3519476652145386,-9.923966407775879,0.16879121959209442,0.01117960549890995,-0.0425889752805233,0.02022976242005825
2559179356575,-0.3842693865299225,-9.919178009033203,0.15921440720558167,0.0066545275039970875,-0.0351359061896801,0.0215606689453125
2559180593712,-0.3292027413845062,-9.916783332824707,0.1041477769613266,0.007453070487827063,-0.0393948033452034,0.0215606689453125
2559181830862,-0.36750996112823486,-9.949105262756348,0.15682020783424377,0.0071868896484375,-0.0409918874502182,0.01756795309484005
2559183068000,-0.3579331636428833,-9.940725326538086,0.11013327538967133,0.006122165359556675,-0.038330078125,0.01597086526453495
2559184305150,-0.35913026332855225,-9.93354320526123,0.13527239859104156,0.0063883461989462376,-0.0364668108522892,0.0204959437251091
2559185542300,-0.3878606855869293,-9.964667320251465,0.10773907601833344,0.0023956298828125,-0.0364668108522892,0.02022976242005825
2559186779462,-0.3794809579849243,-9.973047256469727,0.152031809091568,0.0002661811013240367,-0.0385962575674057,0.01783413253724575
2559188016600,-0.3603273630142212,-9.95748519897461,0.10773907601833344,0.0026618109550327063,-0.0399271659553051,0.0162370465695858
2559189253737,-0.40701428055763245,-9.915586471557617,0.15921440720558167,-0.0021294488105922937,-0.0375315360724926,0.0271504707634449
2559190490887,-0.3687070608139038,-9.952696800231934,0.1472434103488922,-0.0037265352439135313,-0.0415242500603199,0.02022976242005825
2559191728037,-0.37229835987091064,-9.932345390319824,0.15562310814857483,0.0029279920272529125,-0.0375315360724926,0.015438503585755825
2559192965187,-0.39145198464393616,-9.9000244140625,0.15322890877723694,0.0015970865497365594,-0.0385962575674057,0.0186326764523983
2559194202350,-0.37229835987091064,-9.922768592834473,0.16759411990642548,-0.0002661811013240367,-0.0338049978017807,0.0119781494140625
2559195439500,-0.35434186458587646,-9.86889934539795,0.1867477297782898,-0.0071868896484375,-0.0409918874502182,0.01756795309484005
2559196676637,-0.3770867586135864,-9.855731010437012,0.12090718746185303,-0.0066545275039970875,-0.0417904332280159,0.01410759799182415
2559197913787,-0.3734954595565796,-9.880870819091797,0.12330138683319092,-0.0007985432748682797,-0.0364668108522892,0.0090501569211483
2559199150937,-0.3711012601852417,-9.825803756713867,0.17238251864910126,-0.0018632676219567657,-0.0359344482421875,0.01224433071911335
2559200388087,-0.3818751871585846,-9.890447616577148,0.12928690016269684,-0.0021294488105922937,-0.0436537005007267,0.01224433071911335
2559201625250,-0.40701428055763245,-9.860519409179688,0.13407529890537262,-0.003460354171693325,-0.0409918874502182,0.01410759799182415
2559202862400,-0.4010287821292877,-9.877279281616211,0.16160862147808075,-0.0029279920272529125,-0.0415242500603199,0.013309055007994175
2559204099525,-0.40462008118629456,-9.87967300415039,0.15921440720558167,-0.0053236219100654125,-0.0420566126704216,0.012510511092841625
2559205336675,-0.39145198464393616,-9.850942611694336,0.1496376097202301,-0.0010647244052961469,-0.0377977155148983,0.013042873702943325
2559206573850,-0.395043283700943,-9.906009674072266,0.13407529890537262,-0.010114881210029125,-0.0401933453977108,0.0138414166867733
2559207810987,-0.3734954595565796,-9.896432876586914,0.11013327538967133,-0.008251613937318325,-0.038330078125,0.00984870083630085
2559209048125,-0.40222588181495667,-9.864110946655273,0.12689268589019775,-0.0023956298828125,-0.0316755510866642,0.01224433071911335
2559210285275,-0.4213795065879822,-9.864110946655273,0.1496376097202301,-0.0037265352439135313,-0.0407257080078125,0.0204959437251091
2559211522412,-0.41539400815963745,-9.886856079101562,0.12689268589019775,-0.0042588976211845875,-0.0417904332280159,0.02022976242005825
2559212759575,-0.3711012601852417,-9.885659217834473,0.16639702022075653,-0.005589802749454975,-0.0369991734623909,0.008783976547420025
2559213996712,-0.4189853072166443,-9.862914085388184,0.19033904373645782,-0.0015970865497365594,-0.0412580706179142,0.014906140975654125
2559215233887,-0.4010287821292877,-9.895236015319824,0.15682020783424377,-0.0037265352439135313,-0.0369991734623909,0.0196974016726017
2559216471025,-0.4165911078453064,-9.889249801635742,0.15322890877723694,-0.00692070834338665,-0.0399271659553051,0.0228915736079216
2559217708162,-0.4082113802433014,-9.895236015319824,0.1388636976480484,-0.008251613937318325,-0.0401933453977108,0.02262539230287075
2559218945337,-0.5063736438751221,-9.876082420349121,0.16400282084941864,-0.005589802749454975,-0.0356682650744915,0.01943122036755085
2559220182462,-0.45848962664604187,-9.890447616577148,0.1735796183347702,-0.004791259765625,-0.0377977155148983,0.0252872034907341
2559221419625,-0.4668693244457245,-9.898826599121094,0.16400282084941864,0.0,-0.0356682650744915,0.0268842913210392
2559222656762,-0.39624038338661194,-9.84376049041748,0.1711854189634323,-0.0077192517928779125,-0.033538818359375,0.0228915736079216
2559223893912,-0.4321534037590027,-9.90241813659668,0.12928690016269684,-0.0031941730994731188,-0.0385962575674057,0.02422248013317585
2559225131062,-0.44173023104667664,-9.885659217834473,0.10893617570400238,-0.0021294488105922937,-0.0362006276845932,0.0271504707634449
2559226368200,-0.4572925269603729,-9.90241813659668,0.15682020783424377,-0.005855984054505825,-0.0343373604118824,0.0271504707634449
2559227605350,-0.4429273307323456,-9.910798072814941,0.16759411990642548,-0.0066545275039970875,-0.033272635191679,0.0271504707634449
2559228842525,-0.4381389021873474,-9.891644477844238,0.10893617570400238,-0.008251613937318325,-0.0330064557492733,0.02661811001598835
2559230079662,-0.45010992884635925,-9.941922187805176,0.16879121959209442,-0.008783976547420025,-0.0311431884765625,0.03034464456140995
2559231316800,-0.4010287821292877,-9.923966407775879,0.15442600846290588,-0.010381062515079975,-0.0343373604118824,0.03087700717151165
2559232553950,-0.47884035110473633,-9.929951667785645,0.14245499670505524,-0.008517795242369175,-0.03087700717151165,0.03087700717151165
2559233791112,-0.40462008118629456,-9.939528465270996,0.14844051003456116,-0.0077192517928779125,-0.02874755859375,0.033272635191679
2559235028237,-0.4620809257030487,-9.929951667785645,0.16400282084941864,-0.007985432632267475,-0.023956298828125,0.0311431884765625
2559236265387,-0.42018240690231323,-9.910798072814941,0.13287819921970367,-0.0138414166867733,-0.02848137728869915,0.0322079136967659
2559237502550,-0.395043283700943,-9.895236015319824,0.1256955862045288,-0.01224433071911335,-0.0258195661008358,0.033538818359375
2559238739687,-0.39384618401527405,-9.906009674072266,0.19273324310779572,-0.0114457868039608,-0.02661811001598835,0.0330064557492733
2559239976850,-0.4118027091026306,-9.860519409179688,0.13407529890537262,-0.012776692397892475,-0.0271504707634449,0.0220930315554142
2559241213987,-0.4345476031303406,-9.861717224121094,0.14006079733371735,-0.0167694091796875,-0.02608574740588665,0.0244886614382267
2559242451137,-0.4489128291606903,-9.825803756713867,0.1280897855758667,-0.013042873702943325,-0.0268842913210392,0.0319417305290699
2559243688300,-0.4381389021873474,-9.817423820495605,0.1173158809542656,-0.0071868896484375,-0.02262539230287075,0.0300784632563591
2559244925437,-0.39145198464393616,-9.806650161743164,0.1604115217924118,-0.00984870083630085,-0.02182685025036335,0.02502102218568325
2559246162587,-0.4118027091026306,-9.801861763000488,0.16639702022075653,-0.0071868896484375,-0.0210283063352108,0.02502102218568325
2559247399737,-0.39624038338661194,-9.77791976928711,0.14006079733371735,-0.01224433071911335,-0.0191650390625,0.02502102218568325
2559248636887,-0.4058171808719635,-9.740809440612793,0.1975216418504715,-0.01224433071911335,-0.0138414166867733,0.023956298828125
2559249874050,-0.38905778527259827,-9.727641105651855,0.18315643072128296,-0.00958251953125,-0.02022976242005825,0.02076212503015995
2559251111175,-0.36990416049957275,-9.680954933166504,0.16759411990642548,-0.005855984054505825,-0.0234239362180233,0.0210283063352108
2559252348312,-0.31962594389915466,-9.637859344482422,0.15322890877723694,-0.0066545275039970875,-0.0210283063352108,0.02129448764026165
2559253585500,-0.37469255924224854,-9.624691009521484,0.1843535304069519,-0.004791259765625,-0.02076212503015995,0.0204959437251091
2559254822625,-0.3603273630142212,-9.585186958312988,0.21547815203666687,-0.0039927163161337376,-0.02262539230287075,0.0173017717897892
2559256059762,-0.3363853394985199,-9.534908294677734,0.27413609623908997,-0.005855984054505825,-0.02129448764026165,0.013309055007994175
2559257296912,-0.3315969407558441,-9.470264434814453,0.22385786473751068,0.003460354171693325,-0.0210283063352108,0.0114457868039608
2559258534087,-0.37828385829925537,-9.454702377319336,0.2801215946674347,0.0021294488105922937,-0.0204959437251091,0.010647243820130825
2559259771212,-0.33518823981285095,-9.464279174804688,0.21188685297966003,0.005589802749454975,-0.01703559048473835,0.0042588976211845875
2559261008362,-0.3866635859012604,-9.461885452270508,0.2106897532939911,0.0063883461989462376,-0.01943122036755085,-0.0005323622026480734
2559262245525,-0.39145198464393616,-9.47265911102295,0.181959331035614,0.01650322787463665,-0.02182685025036335,0.0029279920272529125
2559263482675,-0.42856210470199585,-9.520543098449707,0.14844051003456116,0.01836649514734745,-0.01836649514734745,-0.0018632676219567657
2559264719825,-0.4381389021873474,-9.57441234588623,0.12210428714752197,0.02182685025036335,-0.01463996060192585,-0.0023956298828125
2559265956950,-0.3842693865299225,-9.57201862335205,0.15322890877723694,0.02874755859375,-0.01410759799182415,-0.0023956298828125
2559267194112,-0.4620809257030487,-9.641449928283691,0.13168109953403473,0.0314093679189682,-0.0204959437251091,0.0005323622026480734
2559268431262,-0.4405331015586853,-9.732430458068848,0.13766659796237946,0.0252872034907341,-0.01117960549890995,-0.0026618109550327063
2559269668412,-0.47884035110473633,-9.798270225524902,0.12449848651885986,0.03034464456140995,-0.01171196810901165,-0.007985432632267475
2559270905562,-0.48722004890441895,-9.817423820495605,0.10295067727565765,0.0292799212038517,-0.0162370465695858,-0.01224433071911335
2559272142712,-0.50876784324646,-9.8784761428833,0.10893617570400238,0.0316755510866642,-0.01224433071911335,-0.00984870083630085
2559273379862,-0.524330198764801,-9.947908401489258,0.12330138683319092,0.033272635191679,-0.00931633822619915,-0.0114457868039608
2559274617012,-0.5315127968788147,-9.951498985290527,0.14484921097755432,0.0228915736079216,-0.0090501569211483,-0.0119781494140625
2559275854162,-0.5219359993934631,-10.022128105163574,0.1149216815829277,0.02608574740588665,-0.01171196810901165,-0.01597086526453495
2559277091312,-0.52552729845047,-10.014945983886719,0.0694318488240242,0.033538818359375,-0.014373779296875,-0.01996358297765255
2559278328475,-0.48722004890441895,-10.040084838867188,0.07302315533161163,0.023956298828125,-0.005589802749454975,-0.015438503585755825
2559279565612,-0.5339069962501526,-10.042479515075684,0.04788403585553169,0.02422248013317585,-0.0031941730994731188,-0.013309055007994175
2559280802750,-0.4752490520477295,-10.019734382629395,0.10534487664699554,0.02555338479578495,-0.0063883461989462376,-0.01597086526453495
2559282039900,-0.48961424827575684,-9.999383926391602,0.15562310814857483,0.0210283063352108,-0.0063883461989462376,-0.01889885775744915
2559283277062,-0.46327802538871765,-9.941922187805176,0.15083470940589905,0.02661811001598835,-0.00452507846057415,-0.014373779296875
2559284514187,-0.4572925269603729,-9.93354320526123,0.15322890877723694,0.02129448764026165,0.0015970865497365594,-0.01224433071911335
2559285751337,-0.46088382601737976,-9.938331604003906,0.15562310814857483,0.01756795309484005,-0.0029279920272529125,-0.010114881210029125
2559286988500,-0.4489128291606903,-9.916783332824707,0.13048399984836578,0.02182685025036335,-0.0066545275039970875,-0.01224433071911335
2559288225637,-0.39145198464393616,-9.86889934539795,0.15322890877723694,0.0210283063352108,-0.0077192517928779125,-0.0157046839594841
2559289462787,-0.47644615173339844,-9.835380554199219,0.15801730751991272,0.0157046839594841,-0.0002661811013240367,-0.0191650390625
2559290699950,-0.4213795065879822,-9.81263542175293,0.13766659796237946,0.013042873702943325,0.0010647244052961469,-0.02022976242005825
2559291937075,-0.40462008118629456,-9.773131370544434,0.1711854189634323,0.010381062515079975,-0.0007985432748682797,-0.015172322280704975
2559293174250,-0.40222588181495667,-9.77791976928711,0.17238251864910126,0.01783413253724575,-0.0029279920272529125,-0.012510511092841625
2559294411387,-0.3758896589279175,-9.791088104248047,0.15083470940589905,0.0173017717897892,0.0007985432748682797,-0.010647243820130825
2559295648550,-0.39863458275794983,-9.832986831665039,0.14604631066322327,0.01703559048473835,-0.0042588976211845875,-0.008783976547420025
2559296885675,-0.42856210470199585,-9.769539833068848,0.19393034279346466,0.01996358297765255,-0.0053236219100654125,-0.00931633822619915
2559298122850,-0.42856210470199585,-9.827000617980957,0.1472434103488922,0.0173017717897892,-0.0005323622026480734,-0.01836649514734745
2559299359987,-0.41778820753097534,-9.828198432922363,0.11851298809051514,0.015438503585755825,0.0002661811013240367,-0.01943122036755085
2559300597137,-0.3866635859012604,-9.874884605407715,0.12330138683319092,0.01943122036755085,0.0015970865497365594,-0.01597086526453495
2559301834287,-0.4441244304180145,-9.862914085388184,0.07541735470294952,0.01836649514734745,0.00452507846057415,-0.01836649514734745
2559303071450,-0.46567222476005554,-9.827000617980957,0.10055647045373917,0.01836649514734745,0.005057440605014563,-0.015172322280704975
2559304308575,-0.42856210470199585,-9.864110946655273,0.10055647045373917,0.01836649514734745,0.0037265352439135313,-0.014906140975654125
2559305545725,-0.4225766062736511,-9.882067680358887,0.07661445438861847,0.015438503585755825,0.0023956298828125,-0.01463996060192585
2559306782887,-0.4189853072166443,-9.84615421295166,0.15442600846290588,0.01703559048473835,0.0053236219100654125,-0.012776692397892475
2559308020025,-0.41539400815963745,-9.821015357971191,0.1256955862045288,0.0181003138422966,0.0039927163161337376,-0.0138414166867733
2559309257187,-0.4058171808719635,-9.824606895446777,0.12449848651885986,0.014906140975654125,0.005057440605014563,-0.013309055007994175
2559310494325,-0.4189853072166443,-9.794679641723633,0.15442600846290588,0.012776692397892475,0.006122165359556675,-0.013309055007994175
2559311731475,-0.42616790533065796,-9.739612579345703,0.13766659796237946,0.012776692397892475,0.0015970865497365594,-0.010647243820130825
2559312968637,-0.4213795065879822,-9.771934509277344,0.11851298809051514,0.0157046839594841,0.005855984054505825,-0.01357523538172245
2559314205775,-0.39624038338661194,-9.727641105651855,0.1364694982767105,0.013042873702943325,0.00692070834338665,-0.012510511092841625
2559315442925,-0.35434186458587646,-9.704896926879883,0.13407529890537262,0.01650322787463665,0.003460354171693325,-0.0196974016726017
2559316680087,-0.35913026332855225,-9.714473724365234,0.17477671802043915,0.02022976242005825,0.0018632676219567657,-0.01996358297765255
2559317917225,-0.3363853394985199,-9.714473724365234,0.13168109953403473,0.0196974016726017,0.003460354171693325,-0.010647243820130825
2559319154362,-0.37828385829925537,-9.712079048156738,0.12449848651885986,0.0186326764523983,-0.0005323622026480734,-0.0138414166867733
2559320391525,-0.3794809579849243,-9.704896926879883,0.12210428714752197,0.0234239362180233,0.0,-0.01597086526453495
2559321628662,-0.3519476652145386,-9.677363395690918,0.13527239859104156,0.02182685025036335,0.0090501569211483,-0.014373779296875
2559322865825,-0.37469255924224854,-9.747992515563965,0.12449848651885986,0.0204959437251091,0.0063883461989462376,-0.0173017717897892
2559324102962,-0.38546648621559143,-9.781511306762695,0.13168109953403473,0.0223592109978199,0.0037265352439135313,-0.01463996060192585
2559325340137,-0.3794809579849243,-9.795876502990723,0.11133038252592087,0.0244886614382267,0.0023956298828125,-0.0157046839594841
2559326577262,-0.3387795388698578,-9.819818496704102,0.14245499670505524,0.02369011752307415,0.0005323622026480734,-0.0173017717897892
2559327814400,-0.37828385829925537,-9.781511306762695,0.1364694982767105,0.02262539230287075,0.0039927163161337376,-0.01357523538172245
2559329051575,-0.35673606395721436,-9.84495735168457,0.13407529890537262,0.0204959437251091,0.0007985432748682797,-0.01463996060192585
2559330288700,-0.3471592366695404,-9.897629737854004,0.11372458189725876,0.0220930315554142,0.006122165359556675,-0.014906140975654125
2559331525875,-0.3555389642715454,-9.84495735168457,0.1149216815829277,0.02741665206849575,0.005057440605014563,-0.0138414166867733
2559332763012,-0.3315969407558441,-9.855731010437012,0.0933738648891449,0.0204959437251091,0.0039927163161337376,-0.0157046839594841
2559334000162,-0.3758896589279175,-9.816226959228516,0.13766659796237946,0.01836649514734745,0.008251613937318325,-0.0162370465695858
2559335237312,-0.38905778527259827,-9.774328231811523,0.15921440720558167,0.0247548408806324,0.0071868896484375,-0.0138414166867733
2559336474462,-0.3866635859012604,-9.84256362915039,0.1843535304069519,0.02315775491297245,0.0071868896484375,-0.015172322280704975
2559337711612,-0.34835633635520935,-9.84256362915039,0.1256955862045288,0.02262539230287075,0.0042588976211845875,-0.01224433071911335
2559338948725,-0.3519476652145386,-9.816226959228516,0.15562310814857483,0.02262539230287075,0.0013309054775163531,-0.007453070487827063
2559340185900,-0.34835633635520935,-9.797073364257812,0.12449848651885986,0.0223592109978199,-0.0018632676219567657,-0.010381062515079975
2559341423050,-0.3866635859012604,-9.787496566772461,0.15921440720558167,0.0220930315554142,0.007453070487827063,-0.012776692397892475
2559342660187,-0.27892449498176575,-9.762357711791992,0.15083470940589905,0.0196974016726017,0.00984870083630085,-0.014906140975654125
2559343897337,-0.3495534360408783,-9.770737648010254,0.13168109953403473,0.02315775491297245,-0.0015970865497365594,-0.010381062515079975
2559345134487,-0.3531447649002075,-9.769539833068848,0.14604631066322327,0.02315775491297245,0.0029279920272529125,-0.00984870083630085
2559346371650,-0.32441434264183044,-9.816226959228516,0.12330138683319092,0.023956298828125,0.0026618109550327063,-0.010913425125181675
2559347608800,-0.3471592366695404,-9.837775230407715,0.1041477769613266,0.023956298828125,0.0021294488105922937,-0.010647243820130825
2559348845937,-0.2992752194404602,-9.827000617980957,0.1628057211637497,0.02555338479578495,-0.0002661811013240367,-0.01224433071911335
2559350083087,-0.365115761756897,-9.818621635437012,0.13168109953403473,0.02502102218568325,0.0039927163161337376,-0.010381062515079975
2559351320262,-0.3495534360408783,-9.854534149169922,0.16879121959209442,0.02369011752307415,0.0031941730994731188,-0.014906140975654125
2559352557412,-0.38307228684425354,-9.849745750427246,0.11971008777618408,0.0263519287109375,-0.0013309054775163531,-0.012776692397892475
2559353794537,-0.3770867586135864,-9.862914085388184,0.1173158809542656,0.0210283063352108,-0.0021294488105922937,-0.010647243820130825
2559355031687,-0.3423708379268646,-9.895236015319824,0.1711854189634323,0.0162370465695858,-0.0042588976211845875,-0.00958251953125
2559356268837,-0.3208230435848236,-9.9000244140625,0.18914192914962769,0.01996358297765255,0.0042588976211845875,-0.0053236219100654125
2559357506000,-0.37229835987091064,-9.890447616577148,0.12210428714752197,0.0252872034907341,0.0042588976211845875,-0.0066545275039970875
2559358743150,-0.36990416049957275,-9.904812812805176,0.18914192914962769,0.02022976242005825,0.0031941730994731188,-0.00692070834338665
2559359980287,-0.3519476652145386,-9.929951667785645,0.181959331035614,0.02369011752307415,0.0037265352439135313,-0.0090501569211483
2559361217425,-0.34835633635520935,-9.944316864013672,0.13407529890537262,0.0210283063352108,0.0029279920272529125,-0.010647243820130825
2559362454562,-0.3387795388698578,-9.909601211547852,0.20231004059314728,0.01836649514734745,-0.0013309054775163531,-0.01117960549890995
2559363691725,-0.3387795388698578,-9.886856079101562,0.12928690016269684,0.02315775491297245,0.0013309054775163531,-0.010647243820130825
2559364928875,-0.3256114423274994,-9.911994934082031,0.14484921097755432,0.0215606689453125,0.0013309054775163531,-0.010913425125181675
2559366166037,-0.333991140127182,-9.890447616577148,0.11252748221158981,0.01463996060192585,-0.0029279920272529125,-0.0090501569211483
2559367403162,-0.3280056416988373,-9.84495735168457,0.10534487664699554,0.01783413253724575,-0.0018632676219567657,-0.004791259765625
2559368640325,-0.34835633635520935,-9.853337287902832,0.11133038252592087,0.0157046839594841,-0.0023956298828125,-0.008783976547420025
2559369877475,-0.3256114423274994,-9.848548889160156,0.1173158809542656,0.015438503585755825,-0.0037265352439135313,-0.0039927163161337376
2559371114625,-0.33039984107017517,-9.834183692932129,0.15921440720558167,0.0186326764523983,-0.0029279920272529125,-0.0013309054775163531
2559372351775,-0.34596213698387146,-9.797073364257812,0.13048399984836578,0.0191650390625,-0.0037265352439135313,-0.0037265352439135313
2559373588925,-0.31962594389915466,-9.773131370544434,0.14844051003456116,0.01889885775744915,-0.0039927163161337376,-0.00452507846057415
2559374826075,-0.3280056416988373,-9.757569313049316,0.14844051003456116,0.02076212503015995,-0.0063883461989462376,-0.0002661811013240367
2559376063212,-0.33279404044151306,-9.767146110534668,0.1280897855758667,0.0181003138422966,-0.0071868896484375,0.0026618109550327063
2559377300362,-0.3423708379268646,-9.785102844238281,0.14365209639072418,0.0157046839594841,-0.005855984054505825,0.0029279920272529125
2559378537512,-0.33758243918418884,-9.823410034179688,0.13168109953403473,0.01836649514734745,-0.005057440605014563,-0.0021294488105922937
2559379774675,-0.3447650372982025,-9.841365814208984,0.14844051003456116,0.02129448764026165,-0.0023956298828125,-0.0005323622026480734
2559381011800,-0.3208230435848236,-9.803058624267578,0.15322890877723694,0.01943122036755085,-0.0021294488105922937,-0.0042588976211845875
2559382248962,-0.333991140127182,-9.817423820495605,0.11372458189725876,0.0186326764523983,-0.0026618109550327063,-0.0029279920272529125
2559383486112,-0.333991140127182,-9.830592155456543,0.1280897855758667,0.02129448764026165,-0.005057440605014563,0.0026618109550327063
2559384723250,-0.33279404044151306,-9.835380554199219,0.15322890877723694,0.02129448764026165,-0.007453070487827063,0.0
2559385960400,-0.3256114423274994,-9.836577415466309,0.14365209639072418,0.01996358297765255,-0.0071868896484375,0.0021294488105922937
2559387197550,-0.3423708379268646,-9.865307807922363,0.14844051003456116,0.0210283063352108,-0.003460354171693325,0.0007985432748682797
2559388434700,-0.3292027413845062,-9.825803756713867,0.15562310814857483,0.0204959437251091,-0.006122165359556675,-0.0007985432748682797
2559389671850,-0.31603461503982544,-9.823410034179688,0.15322890877723694,0.012776692397892475,-0.004791259765625,0.0071868896484375
2559390909000,-0.32441434264183044,-9.84256362915039,0.13527239859104156,0.0191650390625,-0.00692070834338665,0.00692070834338665
2559392146162,-0.333991140127182,-9.805453300476074,0.11372458189725876,0.0191650390625,-0.0077192517928779125,0.0053236219100654125
2559393383287,-0.304063618183136,-9.829395294189453,0.13527239859104156,0.0167694091796875,-0.0071868896484375,0.0029279920272529125
2559394620450,-0.31603461503982544,-9.860519409179688,0.1951274424791336,0.02129448764026165,-0.007453070487827063,0.0021294488105922937
2559395857587,-0.31842881441116333,-9.847352027893066,0.1628057211637497,0.01889885775744915,-0.008251613937318325,0.0042588976211845875
2559397094750,-0.31364041566848755,-9.838972091674805,0.13287819921970367,0.0196974016726017,-0.008517795242369175,0.00931633822619915
2559398331887,-0.2992752194404602,-9.840168952941895,0.14844051003456116,0.0173017717897892,-0.0071868896484375,0.007453070487827063
2559399569037,-0.29209262132644653,-9.854534149169922,0.20470423996448517,0.013042873702943325,-0.00931633822619915,0.008251613937318325
2559400806187,-0.28969842195510864,-9.84495735168457,0.1388636976480484,0.013309055007994175,-0.00931633822619915,0.008517795242369175
2559402043337,-0.31842881441116333,-9.874884605407715,0.12090718746185303,0.015438503585755825,-0.00984870083630085,0.005589802749454975
2559403280475,-0.30047231912612915,-9.849745750427246,0.16759411990642548,0.01783413253724575,-0.014906140975654125,0.010913425125181675
2559404517637,-0.3148375153541565,-9.87967300415039,0.16879121959209442,0.0167694091796875,-0.0071868896484375,0.0114457868039608
2559405754787,-0.3315969407558441,-9.828198432922363,0.17717093229293823,0.0186326764523983,-0.003460354171693325,0.012510511092841625
2559406991950,-0.3148375153541565,-9.889249801635742,0.1759738326072693,0.01836649514734745,-0.00958251953125,0.00984870083630085
2559408229062,-0.3100491166114807,-9.93593692779541,0.1412578970193863,0.0186326764523983,-0.006122165359556675,0.007453070487827063
2559409466237,-0.3232172429561615,-9.886856079101562,0.18555063009262085,0.014906140975654125,-0.008517795242369175,0.01117960549890995
2559410703387,-0.3495534360408783,-9.849745750427246,0.152031809091568,0.013309055007994175,-0.007985432632267475,0.010381062515079975
2559411940537,-0.36152446269989014,-9.877279281616211,0.1472434103488922,0.01410759799182415,-0.0119781494140625,0.013309055007994175
2559413177675,-0.34835633635520935,-9.920374870300293,0.1149216815829277,0.014906140975654125,-0.010381062515079975,0.005589802749454975
2559414414825,-0.3555389642715454,-9.891644477844238,0.13766659796237946,0.014906140975654125,-0.0119781494140625,0.00692070834338665
2559415651962,-0.34596213698387146,-9.894038200378418,0.14245499670505524,0.01597086526453495,-0.01117960549890995,0.007453070487827063
2559416889137,-0.35434186458587646,-9.841365814208984,0.1711854189634323,0.01117960549890995,-0.013042873702943325,0.008251613937318325
2559418126275,-0.36990416049957275,-9.906009674072266,0.15921440720558167,0.0173017717897892,-0.014373779296875,0.0063883461989462376
2559419363425,-0.3387795388698578,-9.853337287902832,0.17477671802043915,0.0119781494140625,-0.0138414166867733,0.00692070834338665
2559420600575,-0.3687070608139038,-9.822212219238281,0.18076223134994507,0.010647243820130825,-0.013309055007994175,0.00984870083630085
2559421837725,-0.3758896589279175,-9.830592155456543,0.15083470940589905,0.012510511092841625,-0.013309055007994175,0.0138414166867733
2559423074887,-0.30885201692581177,-9.831789016723633,0.15322890877723694,0.0119781494140625,-0.010647243820130825,0.00692070834338665
2559424312025,-0.32441434264183044,-9.852140426635742,0.15562310814857483,0.01650322787463665,-0.012776692397892475,0.00452507846057415
2559425549175,-0.35434186458587646,-9.862914085388184,0.21308395266532898,0.014373779296875,-0.008251613937318325,0.00958251953125
2559426786325,-0.3531447649002075,-9.801861763000488,0.19393034279346466,0.012510511092841625,-0.012510511092841625,0.006122165359556675
2559428023462,-0.3734954595565796,-9.828198432922363,0.16879121959209442,0.015438503585755825,-0.01463996060192585,0.0077192517928779125
2559429260612,-0.3447650372982025,-9.799468040466309,0.16998831927776337,0.00958251953125,-0.01224433071911335,0.005855984054505825
2559430497762,-0.3016694188117981,-9.789891242980957,0.15801730751991272,0.0114457868039608,-0.01410759799182415,0.006122165359556675
