timestamp_ns,accel_x,accel_y,accel_z,gyro_x,gyro_y,gyro_z
18426320424762,-0.9301473498344421,-9.646238327026367,-0.6871358752250671,-0.0053236219100654125,-0.01224433071911335,0.033272635191679
18426321661900,-0.9636662006378174,-9.671378135681152,-0.6835445761680603,-0.0037265352439135313,-0.01117960549890995,0.0359344482421875
18426322899025,-0.9744400978088379,-9.695320129394531,-0.6811503767967224,-0.0021294488105922937,-0.005855984054505825,0.0372653529047966
18426324136150,-0.9660604000091553,-9.697713851928711,-0.6943184733390808,0.0018632676219567657,-0.00931633822619915,0.0369991734623909
18426325373300,-0.9636662006378174,-9.66539192199707,-0.6727706789970398,-0.0023956298828125,-0.010647243820130825,0.0356682650744915
18426326610437,-0.9768342971801758,-9.691728591918945,-0.645237386226654,-0.0026618109550327063,-0.010647243820130825,0.033538818359375
18426327847562,-0.9684545993804932,-9.695320129394531,-0.6488286852836609,-0.0018632676219567657,-0.013309055007994175,0.033272635191679
18426329084712,-0.973242998123169,-9.712079048156738,-0.6739677786827087,0.0021294488105922937,-0.007985432632267475,0.0322079136967659
18426330321825,-1.0019733905792236,-9.728838920593262,-0.6607996821403503,-0.0031941730994731188,-0.00452507846057415,0.03087700717151165
18426331558962,-0.9983820915222168,-9.746795654296875,-0.6560112833976746,-0.0013309054775163531,-0.0029279920272529125,0.0319417305290699
18426332796100,-0.9564836025238037,-9.714473724365234,-0.690727174282074,0.0010647244052961469,-0.008517795242369175,0.033538818359375
18426334033237,-0.9756371974945068,-9.744400978088379,-0.7050924301147461,-0.0005323622026480734,-0.0063883461989462376,0.0295461006462574
18426335270350,-0.9911994934082031,-9.703699111938477,-0.6751648783683777,-0.003460354171693325,-0.005589802749454975,0.0268842913210392
18426336507512,-0.9744400978088379,-9.782708168029785,-0.6823474764823914,-0.0037265352439135313,-0.005057440605014563,0.02741665206849575
18426337744637,-0.9457097053527832,-9.718064308166504,-0.6919242739677429,-0.0002661811013240367,-0.0063883461989462376,0.0292799212038517
18426338981762,-0.94930100440979,-9.710882186889648,-0.6763619780540466,-0.0015970865497365594,-0.007453070487827063,0.02794901467859745
18426340218900,-1.0007762908935547,-9.747992515563965,-0.7015011310577393,0.0002661811013240367,-0.00692070834338665,0.02901373989880085
18426341456037,-1.0043675899505615,-9.740809440612793,-0.7134721279144287,-0.0018632676219567657,-0.0037265352439135313,0.0295461006462574
18426342693162,-0.9864110946655273,-9.750386238098145,-0.6715735793113708,0.0007985432748682797,-0.005589802749454975,0.0330064557492733
18426343930300,-1.0043675899505615,-9.75158405303955,-0.6715735793113708,0.00452507846057415,-0.0023956298828125,0.0330064557492733
18426345167437,-0.9876081943511963,-9.708487510681152,-0.6799532771110535,0.0010647244052961469,-0.0039927163161337376,0.0247548408806324
18426346404562,-0.9804255962371826,-9.712079048156738,-0.6763619780540466,-0.0005323622026480734,-0.0029279920272529125,0.0247548408806324
18426347641687,-0.9540894031524658,-9.71926212310791,-0.6847416758537292,-0.0013309054775163531,0.0010647244052961469,0.0268842913210392
18426348878825,-0.9421183466911316,-9.738415718078613,-0.6524199843406677,0.0,-0.005057440605014563,0.02661811001598835
18426350115962,-0.9792284965515137,-9.71926212310791,-0.6548141837120056,-0.0007985432748682797,-0.0066545275039970875,0.02422248013317585
18426351353125,-0.9469068050384521,-9.732430458068848,-0.6823474764823914,-0.0007985432748682797,-0.0031941730994731188,0.02661811001598835
18426352590237,-0.9900023937225342,-9.72285270690918,-0.6823474764823914,-0.0010647244052961469,-0.0037265352439135313,0.0263519287109375
18426353827375,-0.9756371974945068,-9.691728591918945,-0.6165069341659546,0.0021294488105922937,-0.0042588976211845875,0.02369011752307415
18426355064512,-1.0199298858642578,-9.694122314453125,-0.7218518257141113,-0.0013309054775163531,-0.0026618109550327063,0.0252872034907341
18426356301650,-0.99479079246521,-9.72165584564209,-0.7050924301147461,-0.0002661811013240367,-0.0013309054775163531,0.0215606689453125
18426357538787,-1.0199298858642578,-9.726444244384766,-0.6967126727104187,-0.0021294488105922937,0.0005323622026480734,0.0204959437251091
18426358775912,-0.970848798751831,-9.749189376831055,-0.6835445761680603,-0.007453070487827063,-0.0018632676219567657,0.02182685025036335
18426360013037,-0.993593692779541,-9.696516990661621,-0.6775590777397156,-0.00452507846057415,-0.0018632676219567657,0.02076212503015995
18426361250187,-0.99479079246521,-9.68694019317627,-0.6703764796257019,-0.004791259765625,-0.005855984054505825,0.0186326764523983
18426362487312,-0.9911994934082031,-9.710882186889648,-0.6751648783683777,0.0005323622026480734,-0.0031941730994731188,0.02076212503015995
18426363724450,-0.9864110946655273,-9.733627319335938,-0.6751648783683777,0.0013309054775163531,0.0,0.0196974016726017
18426364961575,-0.9720458984375,-9.714473724365234,-0.6943184733390808,-0.0005323622026480734,0.0029279920272529125,0.01224433071911335
18426366198700,-0.9684545993804932,-9.697713851928711,-0.6739677786827087,0.0005323622026480734,0.0021294488105922937,0.014906140975654125
18426367435825,-0.9900023937225342,-9.677363395690918,-0.6883329749107361,0.0026618109550327063,-0.0015970865497365594,0.01889885775744915
18426368672987,-0.9911994934082031,-9.649829864501953,-0.690727174282074,0.003460354171693325,-0.00452507846057415,0.01996358297765255
18426369910125,-0.9828197956085205,-9.725247383117676,-0.6703764796257019,0.00452507846057415,0.0005323622026480734,0.02129448764026165
18426371147250,-0.9744400978088379,-9.714473724365234,-0.690727174282074,0.0021294488105922937,0.0007985432748682797,0.0234239362180233
18426372384375,-1.0067617893218994,-9.716867446899414,-0.6799532771110535,-0.0023956298828125,0.0021294488105922937,0.0191650390625
18426373621512,-0.9409212470054626,-9.695320129394531,-0.6775590777397156,-0.0005323622026480734,0.0010647244052961469,0.0167694091796875
18426374858662,-0.9277531504631042,-9.697713851928711,-0.6596025824546814,-0.0053236219100654125,0.003460354171693325,0.0191650390625
18426376095787,-0.9181763529777527,-9.677363395690918,-0.6955155730247498,-0.0021294488105922937,0.0018632676219567657,0.0196974016726017
18426377332912,-0.9696516990661621,-9.708487510681152,-0.6596025824546814,0.003460354171693325,0.0018632676219567657,0.0162370465695858
18426378570050,-0.9971849918365479,-9.736021041870117,-0.7038953304290771,-0.0010647244052961469,0.0042588976211845875,0.013042873702943325
18426379807175,-0.9696516990661621,-9.715670585632324,-0.6955155730247498,0.004791259765625,-0.0015970865497365594,0.0181003138422966
18426381044325,-0.9672574996948242,-9.703699111938477,-0.7098808288574219,0.007985432632267475,-0.013042873702943325,0.02369011752307415
18426382281450,-0.9720458984375,-9.704896926879883,-0.7038953304290771,-0.0002661811013240367,-0.0026618109550327063,0.0204959437251091
18426383518587,-0.9672574996948242,-9.764751434326172,-0.6811503767967224,0.0013309054775163531,0.0023956298828125,0.01463996060192585
18426384755725,-0.9660604000091553,-9.75278091430664,-0.6727706789970398,-0.0037265352439135313,0.0037265352439135313,0.01836649514734745
18426385992862,-0.9385270476341248,-9.715670585632324,-0.667982280254364,0.0029279920272529125,-0.0002661811013240367,0.02182685025036335
18426387229987,-0.9876081943511963,-9.726444244384766,-0.6787561774253845,0.0031941730994731188,0.0018632676219567657,0.0114457868039608
18426388467125,-0.9840168952941895,-9.743204116821289,-0.7086837291717529,0.0031941730994731188,0.0023956298828125,0.0173017717897892
18426389704275,-0.9672574996948242,-9.780314445495605,-0.689530074596405,0.0021294488105922937,0.0007985432748682797,0.01943122036755085
18426390941387,-0.9696516990661621,-9.77672290802002,-0.6512228846549988,0.00452507846057415,-0.005589802749454975,0.01703559048473835
18426392178512,-0.9672574996948242,-9.740809440612793,-0.6500257849693298,0.00452507846057415,-0.0015970865497365594,0.02182685025036335
18426393415650,-0.9792284965515137,-9.714473724365234,-0.6356605291366577,0.0026618109550327063,0.0002661811013240367,0.01410759799182415
18426394652787,-0.9481039047241211,-9.743204116821289,-0.6572083830833435,0.0023956298828125,0.0029279920272529125,0.013309055007994175
18426395889912,-0.9600749015808105,-9.739612579345703,-0.7086837291717529,-0.0071868896484375,-0.0005323622026480734,0.0191650390625
18426397127062,-0.9672574996948242,-9.77672290802002,-0.7110779285430908,0.0002661811013240367,0.0023956298828125,0.01836649514734745
18426398364200,-0.9624691009521484,-9.747992515563965,-0.6703764796257019,0.0026618109550327063,0.0026618109550327063,0.0138414166867733
18426399601337,-0.9588778018951416,-9.75517463684082,-0.6619967818260193,0.0013309054775163531,0.006122165359556675,0.01597086526453495
18426400838462,-0.9876081943511963,-9.767146110534668,-0.6967126727104187,-0.00452507846057415,0.0037265352439135313,0.014373779296875
18426402075587,-0.970848798751831,-9.728838920593262,-0.6703764796257019,0.007453070487827063,0.0031941730994731188,0.00958251953125
18426403312737,-0.9457097053527832,-9.718064308166504,-0.6763619780540466,0.0010647244052961469,0.0018632676219567657,0.015172322280704975
18426404549837,-0.9564836025238037,-9.72285270690918,-0.6739677786827087,0.0026618109550327063,-0.0002661811013240367,0.0138414166867733
18426405786987,-0.93254154920578,-9.761160850524902,-0.7003040313720703,0.0010647244052961469,0.0002661811013240367,0.00984870083630085
18426407024125,-0.950498104095459,-9.740809440612793,-0.6727706789970398,-0.0002661811013240367,0.0013309054775163531,0.0021294488105922937
18426408261262,-0.9636662006378174,-9.708487510681152,-0.7170634269714355,0.0015970865497365594,-0.0007985432748682797,0.006122165359556675
18426409498387,-0.970848798751831,-9.725247383117676,-0.6763619780540466,-0.0002661811013240367,-0.0026618109550327063,0.008517795242369175
18426410735537,-0.9756371974945068,-9.695320129394531,-0.6751648783683777,0.0,-0.0021294488105922937,0.008783976547420025
18426411972662,-0.9744400978088379,-9.709685325622559,-0.6727706789970398,0.005589802749454975,-0.0023956298828125,0.005855984054505825
18426413209800,-0.9516952037811279,-9.728838920593262,-0.6775590777397156,0.0007985432748682797,-0.0010647244052961469,-0.0005323622026480734
18426414446925,-0.933738648891449,-9.694122314453125,-0.6440402865409851,0.0015970865497365594,-0.0053236219100654125,0.00692070834338665
18426415684075,-0.9349357485771179,-9.712079048156738,-0.6835445761680603,0.0026618109550327063,-0.0023956298828125,0.0066545275039970875
18426416921200,-0.9433155059814453,-9.701305389404297,-0.6787561774253845,0.0039927163161337376,-0.0021294488105922937,0.0053236219100654125
18426418158350,-1.0103530883789062,-9.725247383117676,-0.6835445761680603,0.003460354171693325,-0.0018632676219567657,0.0042588976211845875
18426419395475,-0.9409212470054626,-9.7420072555542,-0.6811503767967224,0.0039927163161337376,-0.0013309054775163531,0.003460354171693325
18426420632600,-0.9397241473197937,-9.725247383117676,-0.6607996821403503,0.0023956298828125,-0.0013309054775163531,0.0029279920272529125
18426421869737,-0.9876081943511963,-9.709685325622559,-0.7350199222564697,0.004791259765625,-0.0021294488105922937,0.0026618109550327063
18426423106862,-0.973242998123169,-9.7420072555542,-0.6979097723960876,0.005855984054505825,-0.0018632676219567657,-0.0007985432748682797
18426424343987,-0.9696516990661621,-9.730035781860352,-0.6931213736534119,0.006122165359556675,-0.0029279920272529125,0.006122165359556675
18426425581125,-0.9205705523490906,-9.72285270690918,-0.6775590777397156,0.0066545275039970875,-0.004791259765625,0.0031941730994731188
18426426818262,-0.9373299479484558,-9.731232643127441,-0.707486629486084,0.0031941730994731188,-0.0029279920272529125,0.0023956298828125
18426428055400,-0.9792284965515137,-9.696516990661621,-0.6919242739677429,0.004791259765625,-0.0002661811013240367,0.003460354171693325
18426429292550,-0.9385270476341248,-9.744400978088379,-0.6584054827690125,0.00452507846057415,-0.0018632676219567657,-0.0029279920272529125
18426430529675,-0.9421183466911316,-9.786299705505371,-0.6631938815116882,0.0071868896484375,-0.0023956298828125,-0.0018632676219567657
18426431766812,-0.9720458984375,-9.72165584564209,-0.6320692300796509,0.004791259765625,-0.0077192517928779125,-0.006122165359556675
18426433003925,-0.9624691009521484,-9.731232643127441,-0.6619967818260193,0.007985432632267475,-0.0010647244052961469,0.0015970865497365594
18426434241062,-0.9576807022094727,-9.71926212310791,-0.669179379940033,0.00931633822619915,-0.0005323622026480734,0.00452507846057415
18426435478200,-0.9792284965515137,-9.744400978088379,-0.6799532771110535,0.0039927163161337376,-0.00452507846057415,-0.0039927163161337376
18426436715325,-0.9516952037811279,-9.743204116821289,-0.6787561774253845,0.0031941730994731188,-0.0066545275039970875,-0.0039927163161337376
18426437952475,-0.9624691009521484,-9.759963035583496,-0.6524199843406677,0.010381062515079975,-0.008251613937318325,-0.0002661811013240367
18426439189612,-0.9852139949798584,-9.763554573059082,-0.6476315855979919,0.0023956298828125,-0.007985432632267475,-0.0066545275039970875
18426440426750,-0.9157821536064148,-9.770737648010254,-0.689530074596405,0.0023956298828125,-0.0053236219100654125,-0.005057440605014563
18426441663875,-0.9229647517204285,-9.763554573059082,-0.690727174282074,0.003460354171693325,-0.0042588976211845875,-0.0010647244052961469
18426442901012,-0.9564836025238037,-9.75517463684082,-0.7158663272857666,0.0015970865497365594,-0.0042588976211845875,-0.0018632676219567657
18426444138150,-0.9469068050384521,-9.72165584564209,-0.6440402865409851,0.0023956298828125,-0.0002661811013240367,-0.0071868896484375
18426445375275,-0.950498104095459,-9.737218856811523,-0.6967126727104187,0.007985432632267475,-0.0029279920272529125,-0.0071868896484375
18426446612400,-0.9229647517204285,-9.759963035583496,-0.6727706789970398,0.00692070834338665,-0.00692070834338665,-0.004791259765625
18426447849550,-0.9768342971801758,-9.746795654296875,-0.6859387755393982,0.008517795242369175,-0.005057440605014563,-0.005057440605014563
18426449086687,-0.970848798751831,-9.68694019317627,-0.7015011310577393,0.0119781494140625,-0.00452507846057415,-0.0053236219100654125
18426450323837,-0.9145850539207458,-9.738415718078613,-0.707486629486084,0.008251613937318325,-0.00452507846057415,-0.0039927163161337376
18426451560950,-0.94930100440979,-9.75158405303955,-0.6272808313369751,0.0114457868039608,-0.0063883461989462376,-0.005589802749454975
18426452798087,-0.9062053561210632,-9.690531730651855,-0.6536170840263367,0.010114881210029125,-0.00452507846057415,-0.010913425125181675
18426454035200,-0.94930100440979,-9.732430458068848,-0.6739677786827087,0.007453070487827063,-0.0066545275039970875,-0.006122165359556675
18426455272350,-0.9277531504631042,-9.740809440612793,-0.6739677786827087,0.005057440605014563,-0.0077192517928779125,-0.0023956298828125
18426456509487,-0.9361328482627869,-9.739612579345703,-0.6272808313369751,0.008783976547420025,-0.0029279920272529125,-0.008783976547420025
18426457746612,-0.9457097053527832,-9.674968719482422,-0.6667851805686951,0.00692070834338665,0.0002661811013240367,-0.003460354171693325
18426458983737,-0.9971849918365479,-9.725247383117676,-0.6871358752250671,0.010114881210029125,-0.0023956298828125,-0.00452507846057415
18426460220875,-0.9864110946655273,-9.71926212310791,-0.6619967818260193,0.01410759799182415,-0.007985432632267475,-0.006122165359556675
18426461458012,-0.9600749015808105,-9.731232643127441,-0.689530074596405,0.007985432632267475,-0.007985432632267475,-0.00984870083630085
18426462695137,-0.9600749015808105,-9.737218856811523,-0.669179379940033,0.00452507846057415,-0.00452507846057415,-0.0066545275039970875
18426463932275,-0.9481039047241211,-9.725247383117676,-0.6979097723960876,0.003460354171693325,0.0037265352439135313,-0.0063883461989462376
18426465169412,-0.9481039047241211,-9.706093788146973,-0.6883329749107361,0.0090501569211483,-0.0021294488105922937,-0.0063883461989462376
18426466406550,-0.9229647517204285,-9.716867446899414,-0.6655880808830261,0.00931633822619915,-0.0066545275039970875,-0.008783976547420025
18426467643700,-0.9672574996948242,-9.731232643127441,-0.7122750282287598,0.00931633822619915,-0.0031941730994731188,-0.008251613937318325
18426468880812,-1.0079588890075684,-9.724050521850586,-0.6703764796257019,0.010114881210029125,-0.0029279920272529125,-0.0077192517928779125
18426470117950,-0.9792284965515137,-9.727641105651855,-0.7158663272857666,0.00984870083630085,-0.0090501569211483,-0.0039927163161337376
18426471355075,-0.9433155059814453,-9.702502250671387,-0.6727706789970398,0.0119781494140625,-0.0066545275039970875,-0.0031941730994731188
18426472592225,-0.9181763529777527,-9.720458984375,-0.7003040313720703,0.00984870083630085,-0.006122165359556675,-0.007453070487827063
18426473829362,-0.9361328482627869,-9.718064308166504,-0.706289529800415,0.008251613937318325,-0.007453070487827063,-0.01171196810901165
18426475066487,-0.9217676520347595,-9.713275909423828,-0.6871358752250671,0.00958251953125,-0.0037265352439135313,-0.0066545275039970875
18426476303612,-0.9457097053527832,-9.713275909423828,-0.6967126727104187,0.010913425125181675,-0.0021294488105922937,-0.004791259765625
18426477540750,-0.912190854549408,-9.658209800720215,-0.6847416758537292,0.0114457868039608,-0.010913425125181675,-0.0071868896484375
18426478777900,-0.889445960521698,-9.667786598205566,-0.6488286852836609,0.01171196810901165,-0.0066545275039970875,-0.0037265352439135313
18426480015025,-0.9457097053527832,-9.702502250671387,-0.6787561774253845,0.010647243820130825,-0.0090501569211483,-0.0037265352439135313
18426481252175,-0.970848798751831,-9.6618013381958,-0.6715735793113708,0.012776692397892475,-0.0042588976211845875,-0.005589802749454975
18426482489287,-0.9014169573783875,-9.66299819946289,-0.6631938815116882,0.015438503585755825,-0.0031941730994731188,-0.005855984054505825
18426483726425,-0.8906430602073669,-9.680954933166504,-0.6787561774253845,0.013042873702943325,-0.008783976547420025,-0.0077192517928779125
18426484963562,-0.9229647517204285,-9.679757118225098,-0.6619967818260193,0.01224433071911335,-0.004791259765625,-0.00984870083630085
18426486200700,-0.9074024558067322,-9.68933391571045,-0.7218518257141113,0.01117960549890995,-0.008517795242369175,-0.004791259765625
18426487437812,-0.8978256583213806,-9.68694019317627,-0.7170634269714355,0.0119781494140625,-0.01117960549890995,-0.0018632676219567657
18426488674962,-0.9457097053527832,-9.712079048156738,-0.6488286852836609,0.0119781494140625,-0.010913425125181675,-0.0029279920272529125
18426489912100,-0.9624691009521484,-9.671378135681152,-0.6967126727104187,0.0157046839594841,-0.0077192517928779125,-0.0042588976211845875
18426491149225,-0.8990227580070496,-9.713275909423828,-0.7158663272857666,0.014906140975654125,-0.013309055007994175,-0.004791259765625
18426492386350,-0.9253589510917664,-9.68694019317627,-0.7386112213134766,0.0138414166867733,-0.014373779296875,-0.006122165359556675
18426493623487,-0.9157821536064148,-9.690531730651855,-0.6991068720817566,0.01117960549890995,-0.003460354171693325,-0.005057440605014563
18426494860625,-0.9409212470054626,-9.726444244384766,-0.7362170219421387,0.0173017717897892,-0.0071868896484375,-0.0066545275039970875
18426496097775,-0.94930100440979,-9.697713851928711,-0.7170634269714355,0.0210283063352108,-0.00692070834338665,-0.00452507846057415
18426497334887,-0.9457097053527832,-9.744400978088379,-0.6919242739677429,0.01650322787463665,-0.008783976547420025,-0.00452507846057415
18426498572037,-0.9540894031524658,-9.733627319335938,-0.646434485912323,0.015172322280704975,-0.008783976547420025,-0.01117960549890995
18426499809162,-0.9816226959228516,-9.724050521850586,-0.7110779285430908,0.01650322787463665,-0.010114881210029125,-0.00931633822619915
18426501046300,-0.9433155059814453,-9.709685325622559,-0.689530074596405,0.012510511092841625,-0.008251613937318325,-0.0002661811013240367
18426502283425,-0.9229647517204285,-9.740809440612793,-0.6835445761680603,0.0173017717897892,-0.00692070834338665,-0.005589802749454975
18426503520575,-0.9445126056671143,-9.737218856811523,-0.6596025824546814,0.0196974016726017,-0.010114881210029125,-0.008251613937318325
18426504757712,-0.9301473498344421,-9.739612579345703,-0.6823474764823914,0.0215606689453125,-0.008783976547420025,-0.00958251953125
18426505994825,-0.93254154920578,-9.716867446899414,-0.6943184733390808,0.01703559048473835,-0.008783976547420025,-0.0090501569211483
18426507231962,-0.973242998123169,-9.694122314453125,-0.6799532771110535,0.01703559048473835,-0.010114881210029125,-0.008783976547420025
18426508469100,-0.9445126056671143,-9.715670585632324,-0.7110779285430908,0.01783413253724575,-0.005589802749454975,-0.0037265352439135313
18426509706237,-0.9062053561210632,-9.715670585632324,-0.6607996821403503,0.0162370465695858,-0.00958251953125,-0.005057440605014563
18426510943387,-0.9648633003234863,-9.709685325622559,-0.6979097723960876,0.01357523538172245,-0.010647243820130825,-0.00692070834338665
18426512180487,-0.93254154920578,-9.733627319335938,-0.6619967818260193,0.01783413253724575,-0.0053236219100654125,-0.008783976547420025
18426513417650,-0.9253589510917664,-9.716867446899414,-0.6943184733390808,0.0204959437251091,-0.013042873702943325,-0.0071868896484375
18426514654775,-0.9624691009521484,-9.731232643127441,-0.6823474764823914,0.0173017717897892,-0.010381062515079975,-0.005589802749454975
18426515891900,-0.9421183466911316,-9.736021041870117,-0.6847416758537292,0.012776692397892475,-0.012776692397892475,-0.008517795242369175
18426517129050,-0.9181763529777527,-9.724050521850586,-0.750582218170166,0.01597086526453495,-0.015172322280704975,-0.0063883461989462376
18426518366175,-0.9409212470054626,-9.734824180603027,-0.7242460250854492,0.013309055007994175,-0.007985432632267475,-0.0077192517928779125
18426519603312,-0.9612720012664795,-9.702502250671387,-0.6619967818260193,0.01410759799182415,-0.005057440605014563,-0.0063883461989462376
18426520840450,-0.9085995554924011,-9.697713851928711,-0.669179379940033,0.0191650390625,-0.00692070834338665,-0.005855984054505825
18426522077550,-0.8643068075180054,-9.714473724365234,-0.6967126727104187,0.0196974016726017,-0.010114881210029125,-0.006122165359556675
18426523314725,-0.9074024558067322,-9.702502250671387,-0.6967126727104187,0.02129448764026165,-0.012776692397892475,-0.008783976547420025
18426524551825,-0.9445126056671143,-9.706093788146973,-0.727837324142456,0.0196974016726017,-0.0071868896484375,-0.00692070834338665
18426525788962,-0.9241618514060974,-9.708487510681152,-0.6667851805686951,0.01597086526453495,-0.0010647244052961469,-0.00931633822619915
18426527026125,-0.9349357485771179,-9.712079048156738,-0.6823474764823914,0.0157046839594841,-0.00958251953125,-0.008783976547420025
18426528263250,-0.8966285586357117,-9.704896926879883,-0.6332663297653198,0.012510511092841625,-0.005855984054505825,-0.0066545275039970875
18426529500362,-0.9528923034667969,-9.670180320739746,-0.669179379940033,0.015438503585755825,-0.007985432632267475,-0.005589802749454975
18426530737512,-0.93254154920578,-9.696516990661621,-0.6440402865409851,0.01650322787463665,-0.0077192517928779125,-0.007453070487827063
18426531974650,-0.9433155059814453,-9.68574333190918,-0.6512228846549988,0.010647243820130825,-0.0026618109550327063,-0.0053236219100654125
18426533211787,-0.9564836025238037,-9.697713851928711,-0.6835445761680603,0.015438503585755825,-0.008517795242369175,-0.00452507846057415
18426534448912,-0.9181763529777527,-9.660603523254395,-0.7194576263427734,0.015438503585755825,-0.0077192517928779125,-0.00692070834338665
18426535686037,-0.8930372595787048,-9.68694019317627,-0.6751648783683777,0.0157046839594841,-0.005855984054505825,-0.0018632676219567657
18426536923175,-0.8954314589500427,-9.68813705444336,-0.6871358752250671,0.01703559048473835,-0.00452507846057415,-0.00958251953125
18426538160325,-0.9373299479484558,-9.678560256958008,-0.645237386226654,0.01783413253724575,-0.0026618109550327063,-0.00984870083630085
18426539397450,-0.9026140570640564,-9.695320129394531,-0.6787561774253845,0.0162370465695858,-0.005589802749454975,-0.0039927163161337376
18426540634587,-0.9074024558067322,-9.734824180603027,-0.6787561774253845,0.015172322280704975,-0.007985432632267475,-0.0023956298828125
18426541871725,-0.9624691009521484,-9.75278091430664,-0.6715735793113708,0.01410759799182415,-0.00958251953125,-0.0023956298828125
18426543108850,-0.9624691009521484,-9.730035781860352,-0.6775590777397156,0.0210283063352108,-0.0029279920272529125,-0.0013309054775163531
18426544345987,-0.9133879542350769,-9.736021041870117,-0.7050924301147461,0.0223592109978199,-0.0042588976211845875,-0.0031941730994731188
18426545583125,-0.9014169573783875,-9.700108528137207,-0.706289529800415,0.014906140975654125,-0.0042588976211845875,-0.0031941730994731188
18426546820262,-0.9014169573783875,-9.743204116821289,-0.6572083830833435,0.0181003138422966,-0.00692070834338665,-0.006122165359556675
18426548057387,-0.889445960521698,-9.738415718078613,-0.6859387755393982,0.023956298828125,-0.005589802749454975,-0.0013309054775163531
18426549294512,-0.9014169573783875,-9.763554573059082,-0.6596025824546814,0.01889885775744915,-0.007453070487827063,-0.0010647244052961469
18426550531662,-0.8822633624076843,-9.757569313049316,-0.6488286852836609,0.02608574740588665,-0.01117960549890995,-0.0005323622026480734
18426551768787,-0.910993754863739,-9.764751434326172,-0.6643909811973572,0.02422248013317585,-0.008783976547420025,0.0013309054775163531
18426553005912,-0.8774749040603638,-9.780314445495605,-0.645237386226654,0.023956298828125,-0.008517795242369175,-0.0002661811013240367
18426554243050,-0.8954314589500427,-9.77672290802002,-0.6153098344802856,0.02076212503015995,-0.010114881210029125,0.0031941730994731188
18426555480175,-0.8930372595787048,-9.733627319335938,-0.6177040338516235,0.0215606689453125,-0.005855984054505825,0.0031941730994731188
18426556717337,-0.872686505317688,-9.770737648010254,-0.629675030708313,0.02022976242005825,-0.0063883461989462376,0.00452507846057415
18426557954475,-0.8523358106613159,-9.787496566772461,-0.6404489874839783,0.01756795309484005,-0.006122165359556675,0.007985432632267475
18426559191587,-0.8415619134902954,-9.7420072555542,-0.6368576288223267,0.0173017717897892,-0.005057440605014563,0.0037265352439135313
18426560428712,-0.9229647517204285,-9.75397777557373,-0.629675030708313,0.0157046839594841,-0.0090501569211483,0.00452507846057415
18426561665862,-0.9445126056671143,-9.803058624267578,-0.6141127347946167,0.014373779296875,-0.01410759799182415,0.00692070834338665
18426562903000,-0.9229647517204285,-9.799468040466309,-0.6380547285079956,0.01357523538172245,-0.010114881210029125,0.005855984054505825
18426564140137,-0.9445126056671143,-9.805453300476074,-0.6356605291366577,0.015438503585755825,-0.00452507846057415,0.0042588976211845875
18426565377275,-0.9409212470054626,-9.782708168029785,-0.6619967818260193,0.01703559048473835,-0.004791259765625,0.003460354171693325
18426566614400,-0.9241618514060974,-9.771934509277344,-0.6631938815116882,0.014373779296875,-0.00692070834338665,0.0026618109550327063
18426567851537,-0.9157821536064148,-9.757569313049316,-0.6093243360519409,0.012776692397892475,-0.0031941730994731188,0.005057440605014563
18426569088687,-0.9528923034667969,-9.786299705505371,-0.6380547285079956,0.015172322280704975,-0.003460354171693325,0.0018632676219567657
18426570325812,-0.9373299479484558,-9.791088104248047,-0.6380547285079956,0.0167694091796875,-0.0026618109550327063,0.0021294488105922937
18426571562950,-0.8918401598930359,-9.818621635437012,-0.6368576288223267,0.012510511092841625,-0.008783976547420025,0.005057440605014563
18426572800075,-0.9277531504631042,-9.799468040466309,-0.6655880808830261,0.012776692397892475,-0.008783976547420025,0.004791259765625
18426574037200,-0.9157821536064148,-9.798270225524902,-0.6572083830833435,0.00692070834338665,-0.003460354171693325,0.005855984054505825
18426575274337,-0.9217676520347595,-9.761160850524902,-0.6560112833976746,0.010913425125181675,-0.007985432632267475,0.0021294488105922937
18426576511475,-0.9373299479484558,-9.768342971801758,-0.6619967818260193,0.012776692397892475,-0.0023956298828125,0.0
18426577748600,-0.912190854549408,-9.743204116821289,-0.6751648783683777,0.01117960549890995,-0.005589802749454975,-0.0029279920272529125
18426578985750,-0.9169792532920837,-9.75517463684082,-0.6212953329086304,0.00958251953125,-0.00692070834338665,0.004791259765625
18426580222862,-0.8834604620933533,-9.762357711791992,-0.6105214357376099,0.00984870083630085,-0.0037265352439135313,0.007453070487827063
18426581460000,-0.8655039072036743,-9.813833236694336,-0.6009446382522583,0.01650322787463665,-0.005855984054505825,0.00452507846057415
18426582697162,-0.9133879542350769,-9.805453300476074,-0.6344634294509888,0.01224433071911335,-0.007985432632267475,0.0018632676219567657
18426583934275,-0.8762778043746948,-9.750386238098145,-0.6416460871696472,0.013309055007994175,-0.00958251953125,0.00452507846057415
18426585171412,-0.8583213090896606,-9.672574996948242,-0.6129156351089478,0.014373779296875,-0.007453070487827063,0.008517795242369175
18426586408537,-0.8930372595787048,-9.7420072555542,-0.6344634294509888,0.0173017717897892,-0.0090501569211483,0.010381062515079975
18426587645675,-0.8535329103469849,-9.716867446899414,-0.6117185354232788,0.014906140975654125,-0.0063883461989462376,0.008783976547420025
18426588882812,-0.8331822156906128,-9.690531730651855,-0.6224924325942993,0.01224433071911335,-0.00931633822619915,0.008251613937318325
18426590119950,-0.8463503122329712,-9.6989107131958,-0.5985504388809204,0.01224433071911335,-0.012510511092841625,0.01224433071911335
18426591357075,-0.872686505317688,-9.713275909423828,-0.586579442024231,0.01224433071911335,-0.0077192517928779125,0.008517795242369175
18426592594237,-0.8331822156906128,-9.680954933166504,-0.6165069341659546,0.0210283063352108,-0.01836649514734745,0.005057440605014563
18426593831362,-0.8607155084609985,-9.732430458068848,-0.5518634915351868,0.01703559048473835,-0.01357523538172245,0.008783976547420025
18426595068487,-0.8822633624076843,-9.673771858215332,-0.6416460871696472,0.01756795309484005,-0.0077192517928779125,0.007985432632267475
18426596305637,-0.8271967172622681,-9.68574333190918,-0.629675030708313,0.01650322787463665,-0.0090501569211483,0.007453070487827063
18426597542762,-0.8595184087753296,-9.683348655700684,-0.5961562395095825,0.01756795309484005,-0.0114457868039608,0.007453070487827063
18426598779900,-0.871489405632019,-9.704896926879883,-0.629675030708313,0.02129448764026165,-0.01410759799182415,0.0042588976211845875
18426600017025,-0.8798691034317017,-9.75278091430664,-0.6248866319656372,0.01943122036755085,-0.0119781494140625,0.0037265352439135313
18426601254162,-0.888248860836029,-9.703699111938477,-0.6536170840263367,0.0228915736079216,-0.01224433071911335,0.005057440605014563
18426602491312,-0.9026140570640564,-9.704896926879883,-0.6380547285079956,0.02502102218568325,-0.01650322787463665,0.0138414166867733
18426603728437,-0.888248860836029,-9.720458984375,-0.6500257849693298,0.0215606689453125,-0.0181003138422966,0.0063883461989462376
18426604965562,-0.8559271097183228,-9.728838920593262,-0.6189011335372925,0.0228915736079216,-0.014906140975654125,0.006122165359556675
18426606202712,-0.8762778043746948,-9.734824180603027,-0.689530074596405,0.0215606689453125,-0.01357523538172245,0.003460354171693325
18426607439837,-0.9097966551780701,-9.783905029296875,-0.6787561774253845,0.01756795309484005,-0.0181003138422966,0.003460354171693325
18426608676975,-0.9097966551780701,-9.7791166305542,-0.6428431868553162,0.0196974016726017,-0.0186326764523983,0.0039927163161337376
18426609914112,-0.8954314589500427,-9.819818496704102,-0.6057330369949341,0.02129448764026165,-0.0157046839594841,0.0037265352439135313
18426611151250,-0.8906430602073669,-9.75158405303955,-0.6045359373092651,0.0220930315554142,-0.0157046839594841,0.0066545275039970875
18426612388362,-0.8930372595787048,-9.758766174316406,-0.6560112833976746,0.0210283063352108,-0.01597086526453495,0.003460354171693325
18426613625512,-0.8834604620933533,-9.75517463684082,-0.6572083830833435,0.0258195661008358,-0.01597086526453495,0.0023956298828125
18426614862662,-0.8954314589500427,-9.771934509277344,-0.6655880808830261,0.02262539230287075,-0.0223592109978199,0.0063883461989462376
18426616099775,-0.9014169573783875,-9.743204116821289,-0.6536170840263367,0.0204959437251091,-0.01836649514734745,0.0071868896484375
18426617336925,-0.8858546614646912,-9.75158405303955,-0.6332663297653198,0.0215606689453125,-0.0138414166867733,0.0077192517928779125
18426618574050,-0.8738836050033569,-9.792284965515137,-0.6524199843406677,0.023956298828125,-0.01996358297765255,0.0021294488105922937
18426619811187,-0.8918401598930359,-9.782708168029785,-0.6260837316513062,0.0247548408806324,-0.02182685025036335,0.0053236219100654125
18426621048325,-0.8846575617790222,-9.75158405303955,-0.6643909811973572,0.0271504707634449,-0.02315775491297245,0.003460354171693325
18426622285462,-0.933738648891449,-9.81024169921875,-0.6823474764823914,0.0204959437251091,-0.01889885775744915,0.0018632676219567657
18426623522587,-0.9157821536064148,-9.78869342803955,-0.6667851805686951,0.01996358297765255,-0.0191650390625,0.0010647244052961469
18426624759725,-0.9074024558067322,-9.800664901733398,-0.6584054827690125,0.02315775491297245,-0.02129448764026165,0.0039927163161337376
18426625996850,-0.933738648891449,-9.813833236694336,-0.6607996821403503,0.02422248013317585,-0.01996358297765255,0.005057440605014563
18426627233987,-0.9038111567497253,-9.78869342803955,-0.6703764796257019,0.01943122036755085,-0.0228915736079216,0.00984870083630085
18426628471125,-0.9229647517204285,-9.817423820495605,-0.6416460871696472,0.01783413253724575,-0.0215606689453125,0.008783976547420025
18426629708262,-0.9624691009521484,-9.793481826782227,-0.6320692300796509,0.01996358297765255,-0.01889885775744915,0.00958251953125
18426630945412,-0.9014169573783875,-9.795876502990723,-0.6512228846549988,0.0220930315554142,-0.02262539230287075,0.01117960549890995
18426632182512,-0.9038111567497253,-9.838972091674805,-0.6356605291366577,0.0186326764523983,-0.02129448764026165,0.008517795242369175
18426633419650,-0.9361328482627869,-9.832986831665039,-0.6320692300796509,0.015438503585755825,-0.01597086526453495,0.006122165359556675
18426634656800,-0.9169792532920837,-9.81024169921875,-0.6428431868553162,0.0173017717897892,-0.01836649514734745,0.007985432632267475
18426635893925,-0.9181763529777527,-9.794679641723633,-0.606930136680603,0.013309055007994175,-0.0204959437251091,0.0114457868039608
18426637131062,-0.9217676520347595,-9.824606895446777,-0.6272808313369751,0.01943122036755085,-0.0223592109978199,0.010647243820130825
18426638368200,-0.9169792532920837,-9.81263542175293,-0.6045359373092651,0.01756795309484005,-0.0252872034907341,0.013042873702943325
18426639605325,-0.9277531504631042,-9.782708168029785,-0.6093243360519409,0.01703559048473835,-0.0282151959836483,0.010913425125181675
18426640842462,-0.9241618514060974,-9.794679641723633,-0.6009446382522583,0.01597086526453495,-0.0244886614382267,0.01224433071911335
18426642079600,-0.9253589510917664,-9.785102844238281,-0.5925649404525757,0.014906140975654125,-0.02182685025036335,0.013309055007994175
18426643316725,-0.9672574996948242,-9.81024169921875,-0.5985504388809204,0.0077192517928779125,-0.02182685025036335,0.01357523538172245
18426644553862,-0.9445126056671143,-9.81024169921875,-0.6057330369949341,0.013042873702943325,-0.0223592109978199,0.01357523538172245
18426645791012,-0.9469068050384521,-9.765949249267578,-0.6248866319656372,0.015438503585755825,-0.0186326764523983,0.01224433071911335
18426647028125,-0.9193734526634216,-9.799468040466309,-0.6153098344802856,0.01357523538172245,-0.01836649514734745,0.013309055007994175
18426648265275,-0.9624691009521484,-9.800664901733398,-0.629675030708313,0.0077192517928779125,-0.0196974016726017,0.00984870083630085
18426649502412,-0.9780313968658447,-9.764751434326172,-0.6428431868553162,0.00692070834338665,-0.0263519287109375,0.010647243820130825
18426650739525,-0.9852139949798584,-9.840168952941895,-0.5937620401382446,0.00931633822619915,-0.02022976242005825,0.013042873702943325
18426651976675,-0.9576807022094727,-9.832986831665039,-0.6440402865409851,0.010647243820130825,-0.0162370465695858,0.01171196810901165
18426653213787,-0.9576807022094727,-9.807847023010254,-0.6320692300796509,0.01117960549890995,-0.02315775491297245,0.010913425125181675
18426654450937,-0.9792284965515137,-9.805453300476074,-0.6344634294509888,0.010647243820130825,-0.023956298828125,0.008517795242369175
18426655688075,-0.9660604000091553,-9.819818496704102,-0.6524199843406677,0.006122165359556675,-0.02262539230287075,0.0090501569211483
18426656925212,-0.9911994934082031,-9.800664901733398,-0.6224924325942993,0.0,-0.01889885775744915,0.010647243820130825
18426658162337,-0.9469068050384521,-9.793481826782227,-0.6584054827690125,0.004791259765625,-0.01996358297765255,0.0071868896484375
18426659399500,-0.94930100440979,-9.84615421295166,-0.6320692300796509,0.0037265352439135313,-0.0196974016726017,0.003460354171693325
18426660636625,-0.9313444495201111,-9.81143856048584,-0.6117185354232788,0.0042588976211845875,-0.0215606689453125,0.00931633822619915
18426661873762,-0.9588778018951416,-9.763554573059082,-0.6117185354232788,0.0015970865497365594,-0.01889885775744915,0.00931633822619915
18426663110875,-0.950498104095459,-9.803058624267578,-0.6536170840263367,-0.0021294488105922937,-0.0204959437251091,0.0026618109550327063
18426664348025,-0.9744400978088379,-9.799468040466309,-0.6045359373092651,0.0018632676219567657,-0.01889885775744915,0.0021294488105922937
18426665585150,-0.9409212470054626,-9.771934509277344,-0.6272808313369751,0.0066545275039970875,-0.01650322787463665,0.0029279920272529125
18426666822300,-0.9217676520347595,-9.77672290802002,-0.629675030708313,0.008783976547420025,-0.0157046839594841,0.0042588976211845875
18426668059425,-0.9373299479484558,-9.77672290802002,-0.6045359373092651,0.0013309054775163531,-0.01836649514734745,0.0026618109550327063
18426669296550,-0.9780313968658447,-9.765949249267578,-0.5710170865058899,0.0031941730994731188,-0.015172322280704975,-0.003460354171693325
18426670533687,-0.9433155059814453,-9.733627319335938,-0.5578489899635315,0.005855984054505825,-0.01650322787463665,0.0021294488105922937
18426671770812,-0.9313444495201111,-9.708487510681152,-0.628477931022644,-0.0002661811013240367,-0.01410759799182415,-0.0021294488105922937
18426673007962,-0.9301473498344421,-9.709685325622559,-0.6200982332229614,0.0007985432748682797,-0.0157046839594841,-0.0053236219100654125
18426674245100,-0.9193734526634216,-9.697713851928711,-0.6141127347946167,-0.0005323622026480734,-0.00931633822619915,-0.0071868896484375
18426675482237,-0.9457097053527832,-9.7420072555542,-0.5937620401382446,0.0031941730994731188,-0.008783976547420025,-0.007985432632267475
18426676719375,-0.9397241473197937,-9.683348655700684,-0.6404489874839783,0.0007985432748682797,-0.008251613937318325,-0.005057440605014563
18426677956475,-0.9361328482627869,-9.703699111938477,-0.6512228846549988,-0.0042588976211845875,-0.01171196810901165,-0.0066545275039970875
18426679193625,-0.9205705523490906,-9.701305389404297,-0.629675030708313,0.0015970865497365594,-0.0181003138422966,-0.01117960549890995
18426680430775,-0.9469068050384521,-9.713275909423828,-0.6009446382522583,0.004791259765625,-0.0157046839594841,-0.007453070487827063
18426681667900,-0.8966285586357117,-9.695320129394531,-0.6165069341659546,0.0007985432748682797,-0.010647243820130825,-0.007453070487827063
18426682905025,-0.8786720037460327,-9.677363395690918,-0.6428431868553162,0.0010647244052961469,-0.00931633822619915,-0.005855984054505825
18426684142175,-0.9469068050384521,-9.739612579345703,-0.5973533391952515,0.0042588976211845875,-0.01171196810901165,-0.007985432632267475
18426685379287,-0.9301473498344421,-9.727641105651855,-0.6117185354232788,0.007985432632267475,-0.0173017717897892,-0.007453070487827063
18426686616412,-0.912190854549408,-9.68574333190918,-0.5949591398239136,0.0071868896484375,-0.0114457868039608,-0.008783976547420025
18426687853562,-0.9145850539207458,-9.66299819946289,-0.6105214357376099,0.00692070834338665,-0.008517795242369175,-0.010647243820130825
18426689090712,-0.8978256583213806,-9.68694019317627,-0.5889736413955688,0.0066545275039970875,-0.010913425125181675,-0.014373779296875
18426690327837,-0.9157821536064148,-9.690531730651855,-0.6165069341659546,0.01117960549890995,-0.00931633822619915,-0.00958251953125
18426691564975,-0.9181763529777527,-9.702502250671387,-0.6404489874839783,0.0090501569211483,-0.00692070834338665,-0.010647243820130825
18426692802087,-0.889445960521698,-9.671378135681152,-0.6200982332229614,0.008517795242369175,-0.012776692397892475,-0.010114881210029125
18426694039250,-0.8607155084609985,-9.648633003234863,-0.6165069341659546,0.010913425125181675,-0.00692070834338665,-0.00984870083630085
18426695276362,-0.8774749040603638,-9.643844604492188,-0.6224924325942993,0.0138414166867733,-0.0071868896484375,-0.013042873702943325
18426696513500,-0.8954314589500427,-9.648633003234863,-0.6236895322799683,0.0114457868039608,-0.0077192517928779125,-0.00931633822619915
18426697750650,-0.9014169573783875,-9.68694019317627,-0.6153098344802856,0.007985432632267475,-0.012776692397892475,-0.00958251953125
18426698987775,-0.888248860836029,-9.653421401977539,-0.6177040338516235,0.01357523538172245,-0.008783976547420025,-0.012776692397892475
18426700224912,-0.8810662031173706,-9.643844604492188,-0.6153098344802856,0.010114881210029125,-0.0013309054775163531,-0.0157046839594841
18426701462062,-0.888248860836029,-9.726444244384766,-0.6177040338516235,0.0138414166867733,-0.0026618109550327063,-0.0167694091796875
18426702699175,-0.8918401598930359,-9.68813705444336,-0.606930136680603,0.014906140975654125,-0.00692070834338665,-0.014373779296875
18426703936312,-0.9050082564353943,-9.682151794433594,-0.6009446382522583,0.01836649514734745,-0.0066545275039970875,-0.01650322787463665
18426705173450,-0.9074024558067322,-9.666589736938477,-0.6057330369949341,0.012510511092841625,-0.008783976547420025,-0.01703559048473835
18426706410587,-0.8990227580070496,-9.682151794433594,-0.5889736413955688,0.01597086526453495,-0.007453070487827063,-0.010647243820130825
18426707647725,-0.871489405632019,-9.659406661987305,-0.6428431868553162,0.0186326764523983,-0.0029279920272529125,-0.012776692397892475
18426708884862,-0.9062053561210632,-9.696516990661621,-0.6548141837120056,0.0162370465695858,-0.0039927163161337376,-0.014373779296875
18426710121987,-0.8822633624076843,-9.695320129394531,-0.6428431868553162,0.0173017717897892,-0.0063883461989462376,-0.0191650390625
18426711359137,-0.8750807046890259,-9.667786598205566,-0.6129156351089478,0.02022976242005825,-0.008517795242369175,-0.01650322787463665
18426712596262,-0.9014169573783875,-9.712079048156738,-0.6009446382522583,0.0186326764523983,-0.0031941730994731188,-0.01357523538172245
18426713833400,-0.8978256583213806,-9.690531730651855,-0.6189011335372925,0.015438503585755825,-0.0031941730994731188,-0.014906140975654125
18426715070537,-0.872686505317688,-9.714473724365234,-0.6368576288223267,0.01756795309484005,-0.0031941730994731188,-0.0186326764523983
18426716307662,-0.8978256583213806,-9.683348655700684,-0.6368576288223267,0.02422248013317585,-0.005589802749454975,-0.01224433071911335
18426717544800,-0.9074024558067322,-9.696516990661621,-0.6488286852836609,0.0223592109978199,-0.008783976547420025,-0.010913425125181675
18426718781925,-0.8571242094039917,-9.712079048156738,-0.6368576288223267,0.0234239362180233,-0.005057440605014563,-0.01410759799182415
18426720019062,-0.8834604620933533,-9.72165584564209,-0.6248866319656372,0.02315775491297245,-0.00452507846057415,-0.013042873702943325
18426721256187,-0.8678981065750122,-9.702502250671387,-0.645237386226654,0.0276828333735466,-0.0023956298828125,-0.010913425125181675
18426722493337,-0.8954314589500427,-9.720458984375,-0.6512228846549988,0.02502102218568325,-0.0031941730994731188,-0.013042873702943325
18426723730475,-0.8870517611503601,-9.736021041870117,-0.6308721303939819,0.0252872034907341,-0.008251613937318325,-0.01117960549890995
18426724967600,-0.8870517611503601,-9.725247383117676,-0.608127236366272,0.0244886614382267,-0.003460354171693325,-0.00931633822619915
18426726204737,-0.8834604620933533,-9.740809440612793,-0.586579442024231,0.02182685025036335,-0.0026618109550327063,-0.01117960549890995
18426727441862,-0.9085995554924011,-9.724050521850586,-0.6404489874839783,0.0271504707634449,-0.0031941730994731188,-0.0138414166867733
18426728679000,-0.8918401598930359,-9.75278091430664,-0.6320692300796509,0.02901373989880085,-0.0018632676219567657,-0.01463996060192585
18426729916162,-0.8810662031173706,-9.758766174316406,-0.646434485912323,0.0263519287109375,0.0018632676219567657,-0.010114881210029125
18426731153262,-0.9193734526634216,-9.7791166305542,-0.5674257874488831,0.0252872034907341,-0.0018632676219567657,-0.008251613937318325
18426732390412,-0.9050082564353943,-9.758766174316406,-0.6021417379379272,0.02182685025036335,-0.0015970865497365594,-0.00931633822619915
18426733627537,-0.9014169573783875,-9.774328231811523,-0.5674257874488831,0.02022976242005825,-0.0037265352439135313,-0.010114881210029125
18426734864675,-0.9014169573783875,-9.771934509277344,-0.585382342338562,0.0223592109978199,-0.0007985432748682797,-0.01224433071911335
18426736101825,-0.8762778043746948,-9.756372451782227,-0.6260837316513062,0.0191650390625,-0.0015970865497365594,-0.01836649514734745
18426737338937,-0.9026140570640564,-9.792284965515137,-0.5602431893348694,0.0210283063352108,0.0010647244052961469,-0.01650322787463665
18426738576087,-0.8690952062606812,-9.825803756713867,-0.5781997442245483,0.0252872034907341,-0.00452507846057415,-0.00984870083630085
18426739813212,-0.9074024558067322,-9.786299705505371,-0.6129156351089478,0.0276828333735466,-0.0007985432748682797,-0.0090501569211483
18426741050362,-0.8930372595787048,-9.816226959228516,-0.6212953329086304,0.0228915736079216,0.0042588976211845875,-0.01117960549890995
18426742287475,-0.871489405632019,-9.798270225524902,-0.606930136680603,0.02422248013317585,-0.0018632676219567657,-0.012776692397892475
18426743524625,-0.8966285586357117,-9.77672290802002,-0.6093243360519409,0.0204959437251091,-0.0002661811013240367,-0.01410759799182415
18426744761750,-0.8930372595787048,-9.801861763000488,-0.6117185354232788,0.0191650390625,0.0031941730994731188,-0.0114457868039608
18426745998912,-0.8966285586357117,-9.794679641723633,-0.6356605291366577,0.02022976242005825,0.0002661811013240367,-0.013042873702943325
18426747236025,-0.8834604620933533,-9.799468040466309,-0.5985504388809204,0.0210283063352108,-0.0026618109550327063,-0.0119781494140625
18426748473150,-0.8822633624076843,-9.783905029296875,-0.5949591398239136,0.01650322787463665,-0.0007985432748682797,-0.0114457868039608
18426749710300,-0.8846575617790222,-9.800664901733398,-0.569819986820221,0.0157046839594841,0.0010647244052961469,-0.008517795242369175
18426750947425,-0.8786720037460327,-9.801861763000488,-0.6200982332229614,0.01463996060192585,0.0042588976211845875,-0.010647243820130825
18426752184575,-0.910993754863739,-9.789891242980957,-0.6153098344802856,0.01410759799182415,0.0015970865497365594,-0.00984870083630085
18426753421700,-0.9145850539207458,-9.785102844238281,-0.5722141861915588,0.0162370465695858,0.0013309054775163531,-0.007985432632267475
18426754658825,-0.9217676520347595,-9.795876502990723,-0.6272808313369751,0.01943122036755085,-0.0002661811013240367,-0.00931633822619915
18426755895975,-0.9253589510917664,-9.763554573059082,-0.608127236366272,0.0162370465695858,-0.0013309054775163531,-0.015438503585755825
18426757133100,-0.851138710975647,-9.789891242980957,-0.6021417379379272,0.01224433071911335,0.0063883461989462376,-0.010114881210029125
18426758370225,-0.8870517611503601,-9.783905029296875,-0.6404489874839783,0.012510511092841625,0.0042588976211845875,-0.0042588976211845875
18426759607375,-0.8667010068893433,-9.770737648010254,-0.5997475385665894,0.0114457868039608,0.0029279920272529125,-0.008783976547420025
18426760844500,-0.872686505317688,-9.787496566772461,-0.5398924946784973,0.0090501569211483,0.004791259765625,-0.013042873702943325
18426762081650,-0.8212112188339233,-9.797073364257812,-0.5602431893348694,0.012776692397892475,0.0077192517928779125,-0.0071868896484375
18426763318787,-0.8403648138046265,-9.791088104248047,-0.5793968439102173,0.008517795242369175,0.010114881210029125,-0.008517795242369175
18426764555912,-0.8319851160049438,-9.758766174316406,-0.5937620401382446,0.00984870083630085,0.007985432632267475,-0.0026618109550327063
18426765793050,-0.8619126081466675,-9.739612579345703,-0.6021417379379272,0.010114881210029125,0.006122165359556675,-0.00452507846057415
18426767030175,-0.8355764150619507,-9.762357711791992,-0.5770025849342346,0.014906140975654125,0.0039927163161337376,-0.0039927163161337376
18426768267300,-0.8224083185195923,-9.75397777557373,-0.5997475385665894,0.0119781494140625,0.0063883461989462376,-0.0010647244052961469
18426769504450,-0.8475474119186401,-9.7791166305542,-0.5997475385665894,0.010913425125181675,0.00958251953125,-0.0066545275039970875
18426770741587,-0.8415619134902954,-9.716867446899414,-0.6045359373092651,0.00931633822619915,0.0066545275039970875,-0.0018632676219567657
18426771978725,-0.8547300100326538,-9.732430458068848,-0.5889736413955688,0.01410759799182415,0.0039927163161337376,0.0010647244052961469
18426773215862,-0.871489405632019,-9.759963035583496,-0.5746083855628967,0.01357523538172245,0.0,0.0037265352439135313
18426774452975,-0.8379706144332886,-9.743204116821289,-0.5722141861915588,0.0119781494140625,0.00452507846057415,0.0029279920272529125
18426775690125,-0.8391677141189575,-9.728838920593262,-0.568622887134552,0.00984870083630085,0.0005323622026480734,0.00452507846057415
18426776927262,-0.8080430626869202,-9.731232643127441,-0.5889736413955688,0.00931633822619915,0.0010647244052961469,0.004791259765625
18426778164412,-0.8307880163192749,-9.710882186889648,-0.5602431893348694,0.0071868896484375,0.0002661811013240367,0.0042588976211845875
18426779401525,-0.8487445116043091,-9.706093788146973,-0.585382342338562,0.015172322280704975,-0.0010647244052961469,0.005589802749454975
18426780638637,-0.8379706144332886,-9.712079048156738,-0.5925649404525757,0.015438503585755825,0.0005323622026480734,0.008783976547420025
18426781875787,-0.8152256608009338,-9.709685325622559,-0.6009446382522583,0.01171196810901165,0.0005323622026480734,0.008783976547420025
18426783112925,-0.8391677141189575,-9.700108528137207,-0.6057330369949341,0.00931633822619915,0.0023956298828125,0.008783976547420025
18426784350062,-0.7948749661445618,-9.734824180603027,-0.5734112858772278,0.0157046839594841,0.004791259765625,0.0066545275039970875
18426785587187,-0.828393816947937,-9.709685325622559,-0.6236895322799683,0.01650322787463665,0.0018632676219567657,0.0071868896484375
18426786824337,-0.8307880163192749,-9.724050521850586,-0.6105214357376099,0.01650322787463665,-0.0021294488105922937,0.008517795242369175
18426788061475,-0.7733271718025208,-9.728838920593262,-0.5961562395095825,0.0181003138422966,-0.0015970865497365594,0.01171196810901165
18426789298587,-0.8475474119186401,-9.720458984375,-0.6057330369949341,0.01703559048473835,0.0023956298828125,0.01650322787463665
18426790535737,-0.8188169598579407,-9.739612579345703,-0.5710170865058899,0.01357523538172245,0.0010647244052961469,0.013309055007994175
18426791772875,-0.828393816947937,-9.757569313049316,-0.6105214357376099,0.01783413253724575,0.0005323622026480734,0.00692070834338665
18426793010012,-0.812831461429596,-9.749189376831055,-0.5590460896492004,0.01597086526453495,-0.0042588976211845875,0.013309055007994175
18426794247162,-0.8080430626869202,-9.797073364257812,-0.5554547905921936,0.014373779296875,0.0029279920272529125,0.01117960549890995
18426795484300,-0.8152256608009338,-9.785102844238281,-0.6404489874839783,0.01463996060192585,-0.0007985432748682797,0.01224433071911335
18426796721400,-0.8463503122329712,-9.774328231811523,-0.6009446382522583,0.0186326764523983,-0.0015970865497365594,0.01597086526453495
18426797958550,-0.8475474119186401,-9.770737648010254,-0.5746083855628967,0.015172322280704975,-0.0037265352439135313,0.0173017717897892
18426799195700,-0.8583213090896606,-9.800664901733398,-0.5877765417098999,0.01889885775744915,-0.006122165359556675,0.02182685025036335
18426800432825,-0.8259996175765991,-9.81143856048584,-0.6033388376235962,0.01703559048473835,0.0,0.014906140975654125
18426801669975,-0.8367735147476196,-9.747992515563965,-0.6129156351089478,0.0196974016726017,-0.0010647244052961469,0.014906140975654125
18426802907075,-0.8092401623725891,-9.797073364257812,-0.6021417379379272,0.015438503585755825,-0.0037265352439135313,0.01783413253724575
18426804144225,-0.811634361743927,-9.792284965515137,-0.6332663297653198,0.015438503585755825,-0.004791259765625,0.015172322280704975
18426805381350,-0.8403648138046265,-9.813833236694336,-0.6189011335372925,0.01996358297765255,-0.006122165359556675,0.013042873702943325
18426806618475,-0.8523358106613159,-9.81263542175293,-0.5734112858772278,0.0162370465695858,-0.0063883461989462376,0.01650322787463665
18426807855625,-0.872686505317688,-9.786299705505371,-0.6021417379379272,0.01650322787463665,-0.0042588976211845875,0.0223592109978199
18426809092762,-0.8463503122329712,-9.792284965515137,-0.5937620401382446,0.010381062515079975,-0.004791259765625,0.0223592109978199
18426810329887,-0.8080430626869202,-9.800664901733398,-0.5925649404525757,0.012776692397892475,-0.006122165359556675,0.0167694091796875
18426811567037,-0.8236054182052612,-9.794679641723633,-0.5781997442245483,0.0162370465695858,-0.005057440605014563,0.01597086526453495
18426812804162,-0.8248025178909302,-9.7791166305542,-0.5937620401382446,0.0077192517928779125,-0.007453070487827063,0.014373779296875
18426814041300,-0.8619126081466675,-9.782708168029785,-0.5674257874488831,0.007453070487827063,-0.014906140975654125,0.01597086526453495
18426815278425,-0.8224083185195923,-9.770737648010254,-0.5985504388809204,0.0114457868039608,-0.010381062515079975,0.01836649514734745
18426816515562,-0.8487445116043091,-9.781511306762695,-0.568622887134552,0.007985432632267475,-0.007985432632267475,0.01597086526453495
18426817752712,-0.8583213090896606,-9.736021041870117,-0.5746083855628967,0.0063883461989462376,-0.0066545275039970875,0.01463996060192585
18426818989825,-0.8367735147476196,-9.744400978088379,-0.5889736413955688,0.0119781494140625,-0.010913425125181675,0.01597086526453495
18426820226987,-0.8475474119186401,-9.7420072555542,-0.6021417379379272,0.005057440605014563,-0.00958251953125,0.014373779296875
18426821464125,-0.8475474119186401,-9.694122314453125,-0.5925649404525757,0.005589802749454975,-0.0077192517928779125,0.012776692397892475
18426822701250,-0.8307880163192749,-9.725247383117676,-0.6440402865409851,0.01117960549890995,-0.00958251953125,0.01224433071911335
18426823938362,-0.8104372620582581,-9.725247383117676,-0.5829881429672241,0.014373779296875,-0.0119781494140625,0.01836649514734745
18426825175500,-0.8607155084609985,-9.763554573059082,-0.5530605912208557,0.004791259765625,-0.0053236219100654125,0.01889885775744915
18426826412650,-0.872686505317688,-9.75278091430664,-0.5758054852485657,0.0063883461989462376,-0.010647243820130825,0.0162370465695858
18426827649775,-0.8571242094039917,-9.757569313049316,-0.569819986820221,0.013309055007994175,-0.01463996060192585,0.0167694091796875
18426828886912,-0.872686505317688,-9.761160850524902,-0.6153098344802856,0.0114457868039608,-0.01171196810901165,0.014373779296875
18426830124050,-0.8978256583213806,-9.75397777557373,-0.6224924325942993,0.01597086526453495,-0.010381062515079975,0.0210283063352108
18426831361200,-0.8738836050033569,-9.765949249267578,-0.5901707410812378,0.01117960549890995,-0.0090501569211483,0.023956298828125
18426832598325,-0.8822633624076843,-9.824606895446777,-0.608127236366272,0.0066545275039970875,-0.01410759799182415,0.01783413253724575
18426833835462,-0.851138710975647,-9.829395294189453,-0.6476315855979919,0.008783976547420025,-0.01597086526453495,0.0210283063352108
18426835072575,-0.8475474119186401,-9.84256362915039,-0.608127236366272,0.0071868896484375,-0.012776692397892475,0.02555338479578495
18426836309725,-0.8966285586357117,-9.853337287902832,-0.5650315880775452,0.008517795242369175,-0.0186326764523983,0.0223592109978199
18426837546875,-0.8978256583213806,-9.840168952941895,-0.6380547285079956,0.00692070834338665,-0.01597086526453495,0.0220930315554142
18426838784000,-0.8607155084609985,-9.876082420349121,-0.5889736413955688,0.00692070834338665,-0.01463996060192585,0.0263519287109375
18426840021125,-0.8858546614646912,-9.855731010437012,-0.628477931022644,0.007985432632267475,-0.01410759799182415,0.0196974016726017
18426841258275,-0.8738836050033569,-9.911994934082031,-0.5781997442245483,0.01117960549890995,-0.0173017717897892,0.02315775491297245
18426842495425,-0.8906430602073669,-9.885659217834473,-0.6200982332229614,0.0071868896484375,-0.012510511092841625,0.0263519287109375
18426843732537,-0.8571242094039917,-9.84495735168457,-0.5889736413955688,0.0053236219100654125,-0.01410759799182415,0.0300784632563591
18426844969687,-0.8942343592643738,-9.848548889160156,-0.5614402890205383,0.007453070487827063,-0.0204959437251091,0.0346035435795784
18426846206800,-0.8750807046890259,-9.854534149169922,-0.6308721303939819,0.004791259765625,-0.015172322280704975,0.0324740931391716
18426847443950,-0.8678981065750122,-9.805453300476074,-0.6117185354232788,-0.0018632676219567657,-0.01357523538172245,0.0327402763068676
18426848681075,-0.8475474119186401,-9.821015357971191,-0.5351040959358215,-0.0007985432748682797,-0.0114457868039608,0.033272635191679
18426849918212,-0.7793126702308655,-9.81143856048584,-0.6009446382522583,0.0037265352439135313,-0.0138414166867733,0.0375315360724926
18426851155362,-0.8738836050033569,-9.780314445495605,-0.5614402890205383,0.0026618109550327063,-0.01996358297765255,0.0407257080078125
18426852392475,-0.8547300100326538,-9.764751434326172,-0.5997475385665894,0.0002661811013240367,-0.0191650390625,0.0367329902946949
18426853629637,-0.849941611289978,-9.75278091430664,-0.5506663918495178,0.0029279920272529125,-0.0204959437251091,0.0340711809694767
18426854866775,-0.8427590131759644,-9.75517463684082,-0.5889736413955688,0.0023956298828125,-0.0186326764523983,0.0330064557492733
18426856103900,-0.8690952062606812,-9.708487510681152,-0.5949591398239136,-0.0010647244052961469,-0.01996358297765255,0.0314093679189682
18426857341012,-0.8571242094039917,-9.762357711791992,-0.5949591398239136,0.0005323622026480734,-0.02369011752307415,0.0367329902946949
18426858578150,-0.8678981065750122,-9.77672290802002,-0.6009446382522583,-0.0021294488105922937,-0.0234239362180233,0.0372653529047966
18426859815300,-0.8966285586357117,-9.797073364257812,-0.5949591398239136,0.0,-0.02262539230287075,0.0369991734623909
18426861052425,-0.8738836050033569,-9.821015357971191,-0.6200982332229614,0.0002661811013240367,-0.0223592109978199,0.038330078125
18426862289550,-0.8870517611503601,-9.81263542175293,-0.629675030708313,-0.0018632676219567657,-0.02608574740588665,0.0362006276845932
18426863526712,-0.8870517611503601,-9.831789016723633,-0.585382342338562,-0.0021294488105922937,-0.0220930315554142,0.0367329902946949
18426864763837,-0.9181763529777527,-9.837775230407715,-0.5925649404525757,-0.0018632676219567657,-0.0228915736079216,0.0404595248401165
18426866000987,-0.9612720012664795,-9.871294021606445,-0.5925649404525757,-0.0010647244052961469,-0.02502102218568325,0.0385962575674057
18426867238112,-0.910993754863739,-9.852140426635742,-0.6033388376235962,-0.0037265352439135313,-0.02262539230287075,0.0338049978017807
18426868475237,-0.8978256583213806,-9.852140426635742,-0.646434485912323,-0.007453070487827063,-0.02315775491297245,0.0372653529047966
18426869712362,-0.9241618514060974,-9.859322547912598,-0.6428431868553162,-0.0077192517928779125,-0.02555338479578495,0.0356682650744915
18426870949512,-0.9205705523490906,-9.864110946655273,-0.6236895322799683,-0.00958251953125,-0.0234239362180233,0.0369991734623909
18426872186625,-0.93254154920578,-9.838972091674805,-0.6308721303939819,-0.010381062515079975,-0.0263519287109375,0.0356682650744915
18426873423775,-0.9421183466911316,-9.870096206665039,-0.5985504388809204,-0.01117960549890995,-0.02129448764026165,0.0340711809694767
18426874660912,-0.8906430602073669,-9.895236015319824,-0.5901707410812378,-0.012510511092841625,-0.0247548408806324,0.0391286201775074
18426875898050,-0.8846575617790222,-9.872490882873535,-0.5722141861915588,-0.0114457868039608,-0.02661811001598835,0.0409918874502182
18426877135162,-0.8942343592643738,-9.836577415466309,-0.5997475385665894,-0.01357523538172245,-0.023956298828125,0.0367329902946949
18426878372325,-0.8846575617790222,-9.837775230407715,-0.6177040338516235,-0.013309055007994175,-0.0228915736079216,0.0356682650744915
18426879609462,-0.8822633624076843,-9.855731010437012,-0.6344634294509888,-0.01171196810901165,-0.0244886614382267,0.0401933453977108
18426880846562,-0.8954314589500427,-9.791088104248047,-0.646434485912323,-0.01756795309484005,-0.02608574740588665,0.0354020856320858
18426882083712,-0.8930372595787048,-9.813833236694336,-0.5949591398239136,-0.0167694091796875,-0.0282151959836483,0.0295461006462574
18426883320850,-0.8906430602073669,-9.803058624267578,-0.5770025849342346,-0.01756795309484005,-0.02741665206849575,0.0316755510866642
18426884557987,-0.8607155084609985,-9.75517463684082,-0.6177040338516235,-0.010381062515079975,-0.0276828333735466,0.0377977155148983
18426885795112,-0.8930372595787048,-9.78869342803955,-0.606930136680603,-0.013309055007994175,-0.02848137728869915,0.0340711809694767
18426887032250,-0.8391677141189575,-9.762357711791992,-0.6021417379379272,-0.0157046839594841,-0.02901373989880085,0.0338049978017807
18426888269400,-0.8762778043746948,-9.749189376831055,-0.5758054852485657,-0.01650322787463665,-0.02874755859375,0.0322079136967659
18426889506525,-0.8798691034317017,-9.758766174316406,-0.5817910432815552,-0.01703559048473835,-0.0346035435795784,0.0324740931391716
18426890743662,-0.8535329103469849,-9.743204116821289,-0.5925649404525757,-0.0186326764523983,-0.02848137728869915,0.02608574740588665
18426891980800,-0.8798691034317017,-9.730035781860352,-0.6500257849693298,-0.01836649514734745,-0.0330064557492733,0.02741665206849575
18426893217925,-0.8559271097183228,-9.764751434326172,-0.6368576288223267,-0.01650322787463665,-0.0343373604118824,0.02315775491297245
18426894455075,-0.8451532125473022,-9.759963035583496,-0.5913678407669067,-0.01836649514734745,-0.0324740931391716,0.0263519287109375
18426895692200,-0.8427590131759644,-9.734824180603027,-0.6332663297653198,-0.0181003138422966,-0.0295461006462574,0.0234239362180233
18426896929337,-0.8236054182052612,-9.758766174316406,-0.6248866319656372,-0.012510511092841625,-0.0306108258664608,0.0295461006462574
18426898166462,-0.8523358106613159,-9.774328231811523,-0.6440402865409851,-0.01410759799182415,-0.0369991734623909,0.0268842913210392
18426899403600,-0.829590916633606,-9.743204116821289,-0.6536170840263367,-0.01703559048473835,-0.0375315360724926,0.0247548408806324
18426900640750,-0.8343793153762817,-9.720458984375,-0.6248866319656372,-0.01650322787463665,-0.0375315360724926,0.02315775491297245
18426901877887,-0.8164227604866028,-9.697713851928711,-0.6105214357376099,-0.013309055007994175,-0.0364668108522892,0.02262539230287075
18426903115037,-0.8068459630012512,-9.714473724365234,-0.6416460871696472,-0.014373779296875,-0.038330078125,0.0228915736079216
18426904352150,-0.7936778664588928,-9.714473724365234,-0.6141127347946167,-0.010647243820130825,-0.0452507846057415,0.0228915736079216
18426905589275,-0.8212112188339233,-9.654618263244629,-0.6428431868553162,-0.01224433071911335,-0.0465816929936409,0.0220930315554142
18426906826425,-0.829590916633606,-9.696516990661621,-0.6272808313369751,-0.010913425125181675,-0.0447184219956398,0.01836649514734745
18426908063550,-0.7769184708595276,-9.684545516967773,-0.6009446382522583,-0.012510511092841625,-0.047646414488554,0.01943122036755085
18426909300687,-0.8008604645729065,-9.6989107131958,-0.6260837316513062,-0.0119781494140625,-0.0471140518784523,0.014906140975654125
18426910537825,-0.7829039692878723,-9.670180320739746,-0.6500257849693298,-0.00452507846057415,-0.04791259765625,0.0138414166867733
18426911774950,-0.7625532746315002,-9.700108528137207,-0.6248866319656372,-0.006122165359556675,-0.0492435023188591,0.01836649514734745
18426913012100,-0.7661445736885071,-9.701305389404297,-0.6045359373092651,-0.0077192517928779125,-0.0500420443713665,0.01756795309484005
18426914249225,-0.7709329724311829,-9.714473724365234,-0.6356605291366577,-0.0063883461989462376,-0.047646414488554,0.00984870083630085
18426915486362,-0.788889467716217,-9.732430458068848,-0.646434485912323,-0.007453070487827063,-0.0516391322016716,0.010647243820130825
18426916723500,-0.7912836670875549,-9.736021041870117,-0.6739677786827087,-0.008517795242369175,-0.0553656667470932,0.008517795242369175
18426917960637,-0.8367735147476196,-9.720458984375,-0.6380547285079956,-0.006122165359556675,-0.0598907470703125,0.0053236219100654125
18426919197775,-0.7864952683448792,-9.746795654296875,-0.5793968439102173,-0.005057440605014563,-0.0601569265127182,0.0002661811013240367
18426920434900,-0.7793126702308655,-9.71926212310791,-0.628477931022644,-0.00452507846057415,-0.0606892891228199,0.0005323622026480734
18426921672037,-0.7984662652015686,-9.730035781860352,-0.628477931022644,-0.0077192517928779125,-0.0604231096804142,0.0029279920272529125
18426922909175,-0.7996633648872375,-9.7420072555542,-0.608127236366272,-0.0023956298828125,-0.0641496405005455,-0.0021294488105922937
18426924146325,-0.8236054182052612,-9.690531730651855,-0.6308721303939819,-0.0029279920272529125,-0.0662790909409523,-0.0042588976211845875
18426925383450,-0.829590916633606,-9.690531730651855,-0.5710170865058899,-0.005057440605014563,-0.0660129114985466,-0.008783976547420025
18426926620587,-0.8032546639442444,-9.700108528137207,-0.6105214357376099,-0.0063883461989462376,-0.0684085413813591,-0.00692070834338665
18426927857712,-0.8487445116043091,-9.692925453186035,-0.6320692300796509,0.0018632676219567657,-0.0689409002661705,-0.00452507846057415
18426929094862,-0.8331822156906128,-9.679757118225098,-0.6440402865409851,0.0010647244052961469,-0.0689409002661705,-0.005855984054505825
18426930332000,-0.9014169573783875,-9.65222454071045,-0.6572083830833435,-0.0042588976211845875,-0.0710703507065773,-0.0066545275039970875
18426931569125,-0.910993754863739,-9.66299819946289,-0.6488286852836609,0.0007985432748682797,-0.071336530148983,-0.010913425125181675
18426932806262,-0.9169792532920837,-9.65222454071045,-0.6236895322799683,0.0018632676219567657,-0.071336530148983,-0.01783413253724575
18426934043375,-0.8702923059463501,-9.621099472045898,-0.6105214357376099,-0.0007985432748682797,-0.0684085413813591,-0.00984870083630085
18426935280537,-0.8667010068893433,-9.635464668273926,-0.6141127347946167,-0.0005323622026480734,-0.0729336217045784,-0.0157046839594841
18426936517662,-0.8415619134902954,-9.624691009521484,-0.6548141837120056,0.0029279920272529125,-0.0777248814702034,-0.01783413253724575
18426937754800,-0.8607155084609985,-9.63067626953125,-0.6248866319656372,0.0010647244052961469,-0.0742645263671875,-0.0173017717897892
18426938991937,-0.851138710975647,-9.646238327026367,-0.6141127347946167,0.0039927163161337376,-0.0771925151348114,-0.0181003138422966
18426940229062,-0.8415619134902954,-9.627084732055664,-0.6488286852836609,0.005855984054505825,-0.081451416015625,-0.014373779296875
18426941466200,-0.8343793153762817,-9.560047149658203,-0.6847416758537292,0.0090501569211483,-0.0795881450176239,-0.014906140975654125
18426942703325,-0.8307880163192749,-9.57321548461914,-0.6787561774253845,0.0138414166867733,-0.0750630721449852,-0.0167694091796875
18426943940475,-0.8607155084609985,-9.586383819580078,-0.6727706789970398,0.010114881210029125,-0.0769263356924057,-0.01650322787463665
18426945177625,-0.8367735147476196,-9.59596061706543,-0.6619967818260193,0.010381062515079975,-0.0785234197974205,-0.01783413253724575
18426946414750,-0.8690952062606812,-9.567230224609375,-0.6560112833976746,0.014373779296875,-0.0774587020277977,-0.014373779296875
18426947651875,-0.8954314589500427,-9.600749015808105,-0.6153098344802856,0.02129448764026165,-0.0822499617934227,-0.01410759799182415
18426948889012,-0.8786720037460327,-9.591172218322754,-0.6212953329086304,0.01889885775744915,-0.0833146795630455,-0.007985432632267475
18426950126175,-0.8702923059463501,-9.587580680847168,-0.6584054827690125,0.01996358297765255,-0.0881059393286705,-0.00931633822619915
18426951363300,-0.9002198576927185,-9.611522674560547,-0.6763619780540466,0.0234239362180233,-0.0859764963388443,-0.007453070487827063
18426952600425,-0.9133879542350769,-9.615114212036133,-0.6548141837120056,0.0234239362180233,-0.0835808664560318,-0.0042588976211845875
18426953837562,-0.9277531504631042,-9.613917350769043,-0.6320692300796509,0.0276828333735466,-0.0881059393286705,-0.00958251953125
18426955074687,-0.9481039047241211,-9.641449928283691,-0.6200982332229614,0.0258195661008358,-0.0859764963388443,-0.005589802749454975
18426956311850,-0.9540894031524658,-9.636661529541016,-0.6631938815116882,0.0324740931391716,-0.0883721262216568,-0.003460354171693325
18426957548962,-0.9433155059814453,-9.654618263244629,-0.6272808313369751,0.0322079136967659,-0.0873074010014534,-0.00692070834338665
18426958786100,-0.9780313968658447,-9.639056205749512,-0.6356605291366577,0.02981228195130825,-0.0833146795630455,-0.0090501569211483
18426960023237,-0.9888052940368652,-9.617507934570312,-0.6476315855979919,0.0300784632563591,-0.0886383056640625,-0.007453070487827063
18426961260375,-0.9684545993804932,-9.655815124511719,-0.6643909811973572,0.03087700717151165,-0.0915662944316864,-0.005589802749454975
18426962497512,-0.9828197956085205,-9.678560256958008,-0.5985504388809204,0.0311431884765625,-0.0883721262216568,-0.0023956298828125
18426963734662,-0.9744400978088379,-9.707290649414062,-0.6308721303939819,0.0359344482421875,-0.0825161412358284,-0.004791259765625
18426964971787,-0.9768342971801758,-9.728838920593262,-0.5925649404525757,0.0367329902946949,-0.0827823206782341,-0.006122165359556675
18426966208912,-1.015141487121582,-9.71926212310791,-0.6344634294509888,0.0330064557492733,-0.0833146795630455,-0.008783976547420025
18426967446062,-1.0091559886932373,-9.758766174316406,-0.646434485912323,0.0327402763068676,-0.085710309445858,-0.005057440605014563
18426968683187,-1.0199298858642578,-9.727641105651855,-0.6368576288223267,0.02874755859375,-0.0827823206782341,-0.0066545275039970875
18426969920337,-1.0390836000442505,-9.704896926879883,-0.5841852426528931,0.0346035435795784,-0.0811852365732193,-0.006122165359556675
18426971157462,-1.049857497215271,-9.736021041870117,-0.5949591398239136,0.0340711809694767,-0.0827823206782341,-0.0037265352439135313
18426972394600,-1.0115501880645752,-9.733627319335938,-0.6105214357376099,0.0311431884765625,-0.0854441300034523,-0.005855984054505825
18426973631725,-1.016338586807251,-9.708487510681152,-0.6105214357376099,0.0351359061896801,-0.0785234197974205,-0.005589802749454975
18426974868850,-1.0319008827209473,-9.725247383117676,-0.667982280254364,0.0311431884765625,-0.0779910609126091,0.0015970865497365594
18426976106000,-1.0462661981582642,-9.805453300476074,-0.6380547285079956,0.03034464456140995,-0.0769263356924057,0.00452507846057415
18426977343137,-1.0426748991012573,-9.769539833068848,-0.568622887134552,0.0316755510866642,-0.0753292515873909,0.0029279920272529125
18426978580262,-1.048660397529602,-9.737218856811523,-0.5901707410812378,0.03034464456140995,-0.0729336217045784,-0.0005323622026480734
18426979817400,-1.0594342947006226,-9.761160850524902,-0.6177040338516235,0.0282151959836483,-0.0739983469247818,0.0013309054775163531
18426981054525,-1.0809820890426636,-9.739612579345703,-0.5985504388809204,0.0271504707634449,-0.0702718123793602,-0.0005323622026480734
18426982291675,-1.047463297843933,-9.75278091430664,-0.5781997442245483,0.0306108258664608,-0.0737321600317955,0.00452507846057415
18426983528812,-1.0582371950149536,-9.764751434326172,-0.6021417379379272,0.03034464456140995,-0.0758616104722023,0.0042588976211845875
18426984765962,-1.070208191871643,-9.746795654296875,-0.6177040338516235,0.0282151959836483,-0.0692070871591568,0.005057440605014563
18426986003075,-1.0845733880996704,-9.765949249267578,-0.6129156351089478,0.02661811001598835,-0.0641496405005455,0.0063883461989462376
18426987240200,-1.1097124814987183,-9.756372451782227,-0.5997475385665894,0.0271504707634449,-0.0625525563955307,0.0026618109550327063
18426988477350,-1.1037269830703735,-9.797073364257812,-0.6332663297653198,0.0268842913210392,-0.062020193785429,0.0005323622026480734
18426989714487,-1.1037269830703735,-9.787496566772461,-0.5841852426528931,0.02661811001598835,-0.0646820068359375,0.00958251953125
18426990951637,-1.1049240827560425,-9.821015357971191,-0.6332663297653198,0.0268842913210392,-0.0598907470703125,0.01171196810901165
18426992188762,-1.115697979927063,-9.801861763000488,-0.5889736413955688,0.02076212503015995,-0.0588260218501091,0.007985432632267475
18426993425900,-1.1444283723831177,-9.80904483795166,-0.6248866319656372,0.0210283063352108,-0.057228934019804,0.0077192517928779125
18426994663025,-1.1480196714401245,-9.815030097961426,-0.608127236366272,0.02129448764026165,-0.0550994873046875,0.010114881210029125
18426995900150,-1.1575965881347656,-9.847352027893066,-0.5770025849342346,0.0210283063352108,-0.0532362200319767,0.0090501569211483
18426997137287,-1.1432312726974487,-9.81024169921875,-0.5973533391952515,0.0210283063352108,-0.0548333041369915,0.0071868896484375
18426998374437,-1.1552022695541382,-9.793481826782227,-0.568622887134552,0.0223592109978199,-0.0519053116440773,0.008251613937318325
18426999611562,-1.1264718770980835,-9.792284965515137,-0.5650315880775452,0.01783413253724575,-0.0505744069814682,0.00931633822619915
18427000848700,-1.114500880241394,-9.798270225524902,-0.6045359373092651,0.0173017717897892,-0.0433875173330307,0.0071868896484375
18427002085825,-1.1085153818130493,-9.758766174316406,-0.6009446382522583,0.014373779296875,-0.0423227921128273,0.008517795242369175
18427003322987,-1.1252747774124146,-9.7791166305542,-0.5674257874488831,0.01996358297765255,-0.0393948033452034,0.00984870083630085
18427004560112,-1.1264718770980835,-9.793481826782227,-0.5602431893348694,0.0157046839594841,-0.0385962575674057,0.010114881210029125
18427005797237,-1.1324573755264282,-9.7791166305542,-0.5554547905921936,0.01357523538172245,-0.0372653529047966,0.007985432632267475
18427007034375,-1.115697979927063,-9.771934509277344,-0.586579442024231,0.0114457868039608,-0.0364668108522892,0.00692070834338665
18427008271525,-1.1348515748977661,-9.757569313049316,-0.5602431893348694,0.012510511092841625,-0.0346035435795784,0.00452507846057415
18427009508662,-1.1252747774124146,-9.7420072555542,-0.5805939435958862,0.013042873702943325,-0.0314093679189682,0.00931633822619915
18427010745787,-1.1324573755264282,-9.7791166305542,-0.5494692921638489,0.013042873702943325,-0.0268842913210392,0.0138414166867733
18427011982912,-1.1599907875061035,-9.771934509277344,-0.5817910432815552,0.01117960549890995,-0.0276828333735466,0.013042873702943325
18427013220062,-1.1552022695541382,-9.728838920593262,-0.5518634915351868,0.014373779296875,-0.02981228195130825,0.008517795242369175
18427014457187,-1.115697979927063,-9.756372451782227,-0.5781997442245483,0.008251613937318325,-0.0234239362180233,0.005057440605014563
18427015694312,-1.1085153818130493,-9.768342971801758,-0.5614402890205383,0.0037265352439135313,-0.0191650390625,0.00958251953125
18427016931450,-1.1049240827560425,-9.750386238098145,-0.5662286877632141,0.010114881210029125,-0.02129448764026165,0.012776692397892475
18427018168587,-1.1504138708114624,-9.769539833068848,-0.586579442024231,0.0090501569211483,-0.01889885775744915,0.012510511092841625
18427019405750,-1.139639973640442,-9.771934509277344,-0.52552729845047,0.008783976547420025,-0.01756795309484005,0.008783976547420025
18427020642875,-1.1336544752120972,-9.7791166305542,-0.5327098965644836,0.01171196810901165,-0.0173017717897892,0.008783976547420025
18427021880000,-1.1504138708114624,-9.795876502990723,-0.5746083855628967,0.010381062515079975,-0.0162370465695858,0.008517795242369175
18427023117137,-1.138442873954773,-9.77552604675293,-0.5422866940498352,0.0066545275039970875,-0.01117960549890995,0.008517795242369175
18427024354275,-1.1312602758407593,-9.803058624267578,-0.5351040959358215,0.004791259765625,-0.0026618109550327063,0.0077192517928779125
18427025591425,-1.1611878871917725,-9.785102844238281,-0.5398924946784973,0.0029279920272529125,-0.0007985432748682797,0.0077192517928779125
18427026828537,-1.138442873954773,-9.769539833068848,-0.5542576909065247,0.008517795242369175,-0.0013309054775163531,0.01117960549890995
18427028065687,-1.1180921792984009,-9.800664901733398,-0.5770025849342346,0.0066545275039970875,-0.003460354171693325,0.010913425125181675
18427029302825,-1.1228805780410767,-9.804256439208984,-0.5315127968788147,0.0018632676219567657,0.0007985432748682797,0.013042873702943325
18427030539950,-1.1240776777267456,-9.769539833068848,-0.5614402890205383,0.0021294488105922937,0.0077192517928779125,0.007453070487827063
18427031777075,-1.1552022695541382,-9.804256439208984,-0.5398924946784973,0.0018632676219567657,0.005057440605014563,0.004791259765625
18427033014225,-1.1504138708114624,-9.77672290802002,-0.5351040959358215,0.0002661811013240367,0.0077192517928779125,0.004791259765625
18427034251375,-1.1863269805908203,-9.771934509277344,-0.5554547905921936,0.0010647244052961469,0.0090501569211483,0.0053236219100654125
18427035488500,-1.1504138708114624,-9.816226959228516,-0.5410895943641663,0.0002661811013240367,0.015172322280704975,0.010114881210029125
18427036725637,-1.1599907875061035,-9.807847023010254,-0.5602431893348694,-0.0018632676219567657,0.0173017717897892,0.0138414166867733
18427037962762,-1.1623849868774414,-9.785102844238281,-0.524330198764801,-0.0026618109550327063,0.0191650390625,0.008517795242369175
18427039199900,-1.114500880241394,-9.781511306762695,-0.568622887134552,-0.0005323622026480734,0.01703559048473835,0.005057440605014563
18427040437050,-1.114500880241394,-9.767146110534668,-0.5614402890205383,0.0005323622026480734,0.01783413253724575,0.005855984054505825
18427041674175,-1.1671733856201172,-9.817423820495605,-0.5662286877632141,0.0002661811013240367,0.01943122036755085,0.004791259765625
18427042911312,-1.1444283723831177,-9.787496566772461,-0.5614402890205383,0.0015970865497365594,0.02076212503015995,0.008251613937318325
18427044148450,-1.1300631761550903,-9.764751434326172,-0.5937620401382446,0.0002661811013240367,0.02794901467859745,0.006122165359556675
18427045385575,-1.1049240827560425,-9.737218856811523,-0.5746083855628967,-0.005057440605014563,0.0306108258664608,0.0029279920272529125
18427046622737,-1.1288660764694214,-9.786299705505371,-0.5279214978218079,-0.0005323622026480734,0.0295461006462574,0.0042588976211845875
18427047859850,-1.1001356840133667,-9.791088104248047,-0.5410895943641663,0.0015970865497365594,0.0295461006462574,0.0039927163161337376
18427049096987,-1.0893617868423462,-9.816226959228516,-0.5111620426177979,-0.0005323622026480734,0.0268842913210392,0.0
18427050334137,-1.047463297843933,-9.792284965515137,-0.5315127968788147,-0.0026618109550327063,0.033272635191679,0.00452507846057415
18427051571250,-1.0881646871566772,-9.774328231811523,-0.5291185975074768,-0.005855984054505825,0.0375315360724926,0.0026618109550327063
18427052808400,-1.0630255937576294,-9.739612579345703,-0.5590460896492004,-0.0015970865497365594,0.038063894957304,0.0010647244052961469
18427054045525,-1.01753568649292,-9.701305389404297,-0.5494692921638489,-0.0026618109550327063,0.0338049978017807,0.0013309054775163531
18427055282662,-1.0366894006729126,-9.756372451782227,-0.5506663918495178,-0.0007985432748682797,0.0348697230219841,0.005057440605014563
18427056519812,-1.0558429956436157,-9.75158405303955,-0.524330198764801,-0.0015970865497365594,0.0409918874502182,0.0053236219100654125
18427057756937,-0.9900023937225342,-9.733627319335938,-0.52552729845047,-0.0021294488105922937,0.0388624407351017,0.006122165359556675
18427058994075,-1.0606313943862915,-9.767146110534668,-0.5003881454467773,-0.003460354171693325,0.0393948033452034,0.0039927163161337376
18427060231200,-1.0438719987869263,-9.771934509277344,-0.5291185975074768,-0.0039927163161337376,0.043121337890625,0.0031941730994731188
18427061468350,-1.0211269855499268,-9.763554573059082,-0.5303156971931458,-0.005057440605014563,0.043121337890625,0.0039927163161337376
18427062705475,-1.0043675899505615,-9.745597839355469,-0.5506663918495178,-0.0005323622026480734,0.0449846051633358,-0.0007985432748682797
18427063942612,-1.0187327861785889,-9.75158405303955,-0.5374982953071594,0.005057440605014563,0.0439198799431324,-0.0007985432748682797
18427065179762,-0.9911994934082031,-9.780314445495605,-0.5590460896492004,-0.0015970865497365594,0.0463155098259449,0.0018632676219567657
18427066416887,-0.9911994934082031,-9.769539833068848,-0.547075092792511,-0.0039927163161337376,0.0487111397087574,0.0005323622026480734
18427067654025,-0.9840168952941895,-9.77672290802002,-0.5770025849342346,-0.0037265352439135313,0.0489773228764534,0.004791259765625
18427068891162,-1.0055646896362305,-9.791088104248047,-0.545877993106842,-0.0015970865497365594,0.0455169677734375,0.0090501569211483
18427070128300,-1.0055646896362305,-9.804256439208984,-0.5626373887062073,-0.0029279920272529125,0.0484449602663517,0.0021294488105922937
18427071365425,-0.9660604000091553,-9.782708168029785,-0.5422866940498352,-0.0039927163161337376,0.0508405901491642,0.00452507846057415
18427072602575,-0.9888052940368652,-9.771934509277344,-0.5099649429321289,-0.008783976547420025,0.047646414488554,-0.0002661811013240367
18427073839687,-0.973242998123169,-9.840168952941895,-0.5207388997077942,-0.0031941730994731188,0.0463155098259449,0.0031941730994731188
18427075076825,-0.9852139949798584,-9.829395294189453,-0.5674257874488831,-0.005589802749454975,0.0543009415268898,-0.0026618109550327063
18427076313962,-1.0043675899505615,-9.81143856048584,-0.5434837937355042,-0.005589802749454975,0.0550994873046875,-0.0026618109550327063
18427077551100,-1.0247182846069336,-9.830592155456543,-0.5446808934211731,-0.005057440605014563,0.0503082275390625,0.0010647244052961469
18427078788237,-0.9828197956085205,-9.807847023010254,-0.5339069962501526,-0.007453070487827063,0.0537685826420784,0.0026618109550327063
18427080025375,-0.9959878921508789,-9.806650161743164,-0.5841852426528931,-0.0090501569211483,0.0535023994743824,-0.0042588976211845875
18427081262512,-0.9481039047241211,-9.84615421295166,-0.5614402890205383,-0.007453070487827063,0.0588260218501091,-0.004791259765625
18427082499650,-0.993593692779541,-9.805453300476074,-0.5590460896492004,-0.0114457868039608,0.0596245639026165,-0.0007985432748682797
18427083736762,-0.970848798751831,-9.819818496704102,-0.569819986820221,-0.01410759799182415,0.0532362200319767,0.0002661811013240367
18427084973937,-0.9397241473197937,-9.805453300476074,-0.5805939435958862,-0.01171196810901165,0.0580274797976017,-0.0053236219100654125
18427086211050,-0.9301473498344421,-9.789891242980957,-0.5841852426528931,-0.010114881210029125,0.0593583844602108,-0.005589802749454975
18427087448187,-0.9349357485771179,-9.791088104248047,-0.5554547905921936,-0.01357523538172245,0.0550994873046875,-0.0037265352439135313
18427088685325,-0.9361328482627869,-9.75397777557373,-0.5829881429672241,-0.01463996060192585,0.0553656667470932,-0.005057440605014563
18427089922450,-0.9169792532920837,-9.768342971801758,-0.6009446382522583,-0.010114881210029125,0.0550994873046875,-0.005057440605014563
18427091159587,-0.9193734526634216,-9.762357711791992,-0.5542576909065247,-0.010381062515079975,0.0574951171875,0.0
18427092396737,-0.8954314589500427,-9.726444244384766,-0.5949591398239136,-0.013309055007994175,0.0609554722905159,-0.0063883461989462376
18427093633875,-0.888248860836029,-9.75278091430664,-0.5638344883918762,-0.012776692397892475,0.0569627545773983,-0.0037265352439135313
18427094870987,-0.8487445116043091,-9.731232643127441,-0.5111620426177979,-0.0138414166867733,0.0561642125248909,-0.00452507846057415
18427096108137,-0.8547300100326538,-9.6989107131958,-0.569819986820221,-0.010913425125181675,0.0540347620844841,-0.0042588976211845875
18427097345262,-0.8918401598930359,-9.733627319335938,-0.4920084476470947,-0.0114457868039608,0.0540347620844841,-0.004791259765625
18427098582400,-0.8750807046890259,-9.709685325622559,-0.5674257874488831,-0.0090501569211483,0.052703857421875,-0.0063883461989462376
18427099819550,-0.8415619134902954,-9.682151794433594,-0.5410895943641663,-0.01224433071911335,0.0489773228764534,-0.008251613937318325
18427101056687,-0.8391677141189575,-9.708487510681152,-0.5374982953071594,-0.0114457868039608,0.0497758649289608,-0.0071868896484375
18427102293825,-0.828393816947937,-9.697713851928711,-0.5542576909065247,-0.007985432632267475,0.0545671246945858,-0.0021294488105922937
18427103530962,-0.851138710975647,-9.730035781860352,-0.5889736413955688,-0.010114881210029125,0.0566965714097023,-0.00452507846057415
18427104768087,-0.8631097078323364,-9.692925453186035,-0.5566518902778625,-0.00958251953125,0.0521714948117733,-0.0026618109550327063
18427106005212,-0.8954314589500427,-9.725247383117676,-0.5123591423034668,-0.00931633822619915,0.0508405901491642,-0.0005323622026480734
18427107242362,-0.8667010068893433,-9.734824180603027,-0.5650315880775452,-0.004791259765625,0.0521714948117733,-0.0026618109550327063
18427108479487,-0.8535329103469849,-9.765949249267578,-0.5386953949928284,-0.0077192517928779125,0.0516391322016716,-0.008517795242369175
18427109716625,-0.8738836050033569,-9.744400978088379,-0.5315127968788147,-0.00692070834338665,0.0537685826420784,-0.006122165359556675
18427110953750,-0.872686505317688,-9.771934509277344,-0.5542576909065247,-0.008517795242369175,0.052437674254179,-0.0013309054775163531
18427112190912,-0.8822633624076843,-9.807847023010254,-0.5793968439102173,-0.005855984054505825,0.0447184219956398,-0.00452507846057415
18427113428025,-0.8391677141189575,-9.80904483795166,-0.586579442024231,-0.01117960549890995,0.0465816929936409,-0.0077192517928779125
18427114665175,-0.8631097078323364,-9.84495735168457,-0.5566518902778625,-0.010381062515079975,0.0484449602663517,-0.003460354171693325
18427115902300,-0.8631097078323364,-9.781511306762695,-0.5590460896492004,-0.005589802749454975,0.0463155098259449,0.0
18427117139437,-0.8595184087753296,-9.805453300476074,-0.5925649404525757,-0.008517795242369175,0.0463155098259449,-0.0021294488105922937
18427118376562,-0.8834604620933533,-9.84376049041748,-0.5997475385665894,-0.008517795242369175,0.0471140518784523,-0.005855984054505825
18427119613725,-0.8595184087753296,-9.850942611694336,-0.5734112858772278,-0.00452507846057415,0.0460493303835392,0.0015970865497365594
18427120850850,-0.849941611289978,-9.847352027893066,-0.5913678407669067,-0.010647243820130825,0.0495096817612648,-0.00452507846057415
18427122087987,-0.8559271097183228,-9.803058624267578,-0.5590460896492004,-0.01463996060192585,0.04791259765625,-0.0018632676219567657
18427123325112,-0.8583213090896606,-9.830592155456543,-0.5961562395095825,-0.013042873702943325,0.0436537005007267,-0.0013309054775163531
18427124562237,-0.8463503122329712,-9.789891242980957,-0.5710170865058899,-0.00984870083630085,0.0436537005007267,-0.0042588976211845875
18427125799400,-0.8583213090896606,-9.791088104248047,-0.5327098965644836,-0.010647243820130825,0.0449846051633358,-0.005057440605014563
18427127036525,-0.8188169598579407,-9.765949249267578,-0.5303156971931458,-0.0186326764523983,0.0377977155148983,-0.0026618109550327063
18427128273650,-0.8164227604866028,-9.765949249267578,-0.569819986820221,-0.01171196810901165,0.0388624407351017,-0.003460354171693325
18427129510800,-0.8248025178909302,-9.750386238098145,-0.5315127968788147,-0.015172322280704975,0.0385962575674057,-0.0053236219100654125
18427130747925,-0.7996633648872375,-9.757569313049316,-0.5590460896492004,-0.0181003138422966,0.0393948033452034,-0.0026618109550327063
18427131985062,-0.8607155084609985,-9.762357711791992,-0.5913678407669067,-0.01783413253724575,0.0391286201775074,-0.0026618109550327063
18427133222187,-0.8176198601722717,-9.745597839355469,-0.6033388376235962,-0.01410759799182415,0.0377977155148983,-0.0031941730994731188
18427134459350,-0.788889467716217,-9.71926212310791,-0.5710170865058899,-0.01117960549890995,0.0377977155148983,-0.008517795242369175
18427135696462,-0.7948749661445618,-9.764751434326172,-0.6272808313369751,-0.01171196810901165,0.033538818359375,-0.005855984054505825
18427136933612,-0.790086567401886,-9.769539833068848,-0.5793968439102173,-0.0157046839594841,0.0338049978017807,-0.0063883461989462376
18427138170725,-0.8032546639442444,-9.764751434326172,-0.5746083855628967,-0.01224433071911335,0.0324740931391716,-0.005057440605014563
18427139407887,-0.8080430626869202,-9.797073364257812,-0.5817910432815552,-0.00984870083630085,0.0300784632563591,-0.0042588976211845875
18427140645012,-0.7745242714881897,-9.774328231811523,-0.6021417379379272,-0.0138414166867733,0.0319417305290699,-0.005855984054505825
18427141882137,-0.8152256608009338,-9.77791976928711,-0.5877765417098999,-0.015172322280704975,0.02794901467859745,-0.0021294488105922937
18427143119287,-0.811634361743927,-9.763554573059082,-0.5889736413955688,-0.01836649514734745,0.0276828333735466,-0.0026618109550327063
18427144356412,-0.8008604645729065,-9.728838920593262,-0.6021417379379272,-0.01783413253724575,0.0306108258664608,-0.005855984054505825
18427145593550,-0.8056488633155823,-9.789891242980957,-0.5829881429672241,-0.014373779296875,0.02502102218568325,-0.0023956298828125
18427146830700,-0.7829039692878723,-9.768342971801758,-0.586579442024231,-0.014906140975654125,0.0271504707634449,-0.007453070487827063
18427148067825,-0.7757213711738586,-9.792284965515137,-0.5506663918495178,-0.0138414166867733,0.0223592109978199,-0.0015970865497365594
18427149304962,-0.7457938194274902,-9.804256439208984,-0.5997475385665894,-0.01410759799182415,0.01889885775744915,0.0015970865497365594
18427150542100,-0.7709329724311829,-9.780314445495605,-0.5434837937355042,-0.0162370465695858,0.01463996060192585,-0.0002661811013240367
18427151779225,-0.790086567401886,-9.72165584564209,-0.5315127968788147,-0.015438503585755825,0.0204959437251091,-0.0039927163161337376
18427153016375,-0.730231523513794,-9.746795654296875,-0.5398924946784973,-0.01597086526453495,0.0181003138422966,-0.008251613937318325
18427154253512,-0.7469909191131592,-9.757569313049316,-0.569819986820221,-0.0167694091796875,0.01703559048473835,-0.0026618109550327063
18427155490662,-0.7649474740028381,-9.726444244384766,-0.6153098344802856,-0.01650322787463665,0.01943122036755085,-0.005057440605014563
18427156727775,-0.7577648162841797,-9.738415718078613,-0.5841852426528931,-0.0162370465695858,0.013042873702943325,-0.0063883461989462376
18427157964912,-0.7398083209991455,-9.725247383117676,-0.5542576909065247,-0.014373779296875,0.0138414166867733,0.0007985432748682797
18427159202062,-0.7601590752601624,-9.709685325622559,-0.5327098965644836,-0.01889885775744915,0.0157046839594841,0.0010647244052961469
18427160439175,-0.7637503743171692,-9.68933391571045,-0.585382342338562,-0.01756795309484005,0.014373779296875,-0.0026618109550327063
18427161676325,-0.7433996200561523,-9.714473724365234,-0.5650315880775452,-0.015172322280704975,0.010913425125181675,-0.0013309054775163531
18427162913462,-0.7912836670875549,-9.725247383117676,-0.5758054852485657,-0.01597086526453495,0.003460354171693325,0.0026618109550327063
18427164150600,-0.768538773059845,-9.68933391571045,-0.5746083855628967,-0.01224433071911335,0.0042588976211845875,-0.0018632676219567657
18427165387750,-0.7433996200561523,-9.671378135681152,-0.6560112833976746,-0.01171196810901165,0.005589802749454975,0.0
18427166624862,-0.7817068696022034,-9.724050521850586,-0.6177040338516235,-0.012510511092841625,0.003460354171693325,0.0039927163161337376
18427167862000,-0.7541735172271729,-9.740809440612793,-0.586579442024231,-0.01117960549890995,0.0029279920272529125,0.0005323622026480734
18427169099125,-0.750582218170166,-9.683348655700684,-0.5961562395095825,-0.0063883461989462376,0.0010647244052961469,0.005855984054505825
18427170336275,-0.7793126702308655,-9.696516990661621,-0.585382342338562,-0.013309055007994175,0.00452507846057415,0.0037265352439135313
18427171573412,-0.7565677165985107,-9.740809440612793,-0.5901707410812378,-0.01650322787463665,0.0026618109550327063,0.0010647244052961469
18427172810562,-0.750582218170166,-9.716867446899414,-0.6129156351089478,-0.010647243820130825,-0.0021294488105922937,0.00958251953125
18427174047687,-0.7793126702308655,-9.706093788146973,-0.6177040338516235,-0.008251613937318325,-0.0026618109550327063,0.0077192517928779125
18427175284812,-0.8056488633155823,-9.740809440612793,-0.6033388376235962,-0.010913425125181675,-0.0010647244052961469,0.0002661811013240367
18427176521962,-0.7601590752601624,-9.745597839355469,-0.5889736413955688,-0.00931633822619915,-0.0039927163161337376,0.0090501569211483
18427177759075,-0.7565677165985107,-9.731232643127441,-0.5997475385665894,-0.010647243820130825,-0.0037265352439135313,0.00984870083630085
18427178996237,-0.751779317855835,-9.75517463684082,-0.5889736413955688,-0.010647243820130825,-0.007453070487827063,0.006122165359556675
18427180233362,-0.7960720658302307,-9.72165584564209,-0.5985504388809204,-0.005855984054505825,-0.014373779296875,0.006122165359556675
18427181470512,-0.7793126702308655,-9.725247383117676,-0.5746083855628967,-0.0071868896484375,-0.010114881210029125,0.007453070487827063
18427182707637,-0.7924807667732239,-9.747992515563965,-0.5997475385665894,-0.008783976547420025,-0.00931633822619915,0.00452507846057415
18427183944762,-0.7721300721168518,-9.77791976928711,-0.606930136680603,-0.00984870083630085,-0.0077192517928779125,0.0031941730994731188
18427185181887,-0.767341673374176,-9.768342971801758,-0.5506663918495178,-0.010381062515079975,-0.010114881210029125,0.005855984054505825
18427186419037,-0.7661445736885071,-9.736021041870117,-0.6033388376235962,-0.012510511092841625,-0.0162370465695858,0.0071868896484375
18427187656175,-0.7912836670875549,-9.736021041870117,-0.6045359373092651,-0.0119781494140625,-0.012776692397892475,0.008783976547420025
18427188893312,-0.8152256608009338,-9.724050521850586,-0.606930136680603,-0.006122165359556675,-0.0114457868039608,0.014373779296875
18427190130450,-0.788889467716217,-9.726444244384766,-0.5817910432815552,-0.008251613937318325,-0.01224433071911335,0.01171196810901165
18427191367587,-0.7936778664588928,-9.68574333190918,-0.5566518902778625,-0.00984870083630085,-0.012776692397892475,0.012510511092841625
18427192604737,-0.8044517636299133,-9.712079048156738,-0.5961562395095825,-0.01410759799182415,-0.0157046839594841,0.008783976547420025
18427193841862,-0.7948749661445618,-9.700108528137207,-0.5793968439102173,-0.012776692397892475,-0.0138414166867733,0.01357523538172245
18427195079025,-0.7637503743171692,-9.718064308166504,-0.6212953329086304,-0.0077192517928779125,-0.0191650390625,0.0119781494140625
18427196316125,-0.751779317855835,-9.676166534423828,-0.5901707410812378,-0.01224433071911335,-0.01783413253724575,0.013042873702943325
18427197553275,-0.7661445736885071,-9.66419506072998,-0.6009446382522583,-0.012510511092841625,-0.01410759799182415,0.0119781494140625
18427198790400,-0.8008604645729065,-9.641449928283691,-0.6200982332229614,-0.0053236219100654125,-0.01996358297765255,0.01224433071911335
18427200027537,-0.7625532746315002,-9.649829864501953,-0.6368576288223267,-0.005589802749454975,-0.0196974016726017,0.014373779296875
18427201264675,-0.7829039692878723,-9.653421401977539,-0.6141127347946167,-0.007985432632267475,-0.02129448764026165,0.014906140975654125
18427202501812,-0.7769184708595276,-9.653421401977539,-0.5626373887062073,-0.007985432632267475,-0.0244886614382267,0.015438503585755825
18427203738950,-0.790086567401886,-9.622296333312988,-0.5638344883918762,-0.005855984054505825,-0.0204959437251091,0.013309055007994175
18427204976075,-0.7912836670875549,-9.653421401977539,-0.645237386226654,-0.0063883461989462376,-0.01996358297765255,0.014906140975654125
18427206213200,-0.7841010689735413,-9.65222454071045,-0.6189011335372925,-0.004791259765625,-0.01889885775744915,0.01357523538172245
18427207450350,-0.7876923680305481,-9.621099472045898,-0.5770025849342346,-0.00452507846057415,-0.0247548408806324,0.014906140975654125
18427208687500,-0.8080430626869202,-9.671378135681152,-0.606930136680603,-0.0042588976211845875,-0.0268842913210392,0.01889885775744915
18427209924612,-0.7781155705451965,-9.715670585632324,-0.6308721303939819,-0.0015970865497365594,-0.02901373989880085,0.01783413253724575
18427211161762,-0.788889467716217,-9.62947940826416,-0.6260837316513062,0.0021294488105922937,-0.0271504707634449,0.01756795309484005
18427212398900,-0.7841010689735413,-9.660603523254395,-0.5746083855628967,0.005057440605014563,-0.0220930315554142,0.01703559048473835
18427213636037,-0.7817068696022034,-9.658209800720215,-0.6380547285079956,0.0053236219100654125,-0.02661811001598835,0.01836649514734745
18427214873175,-0.7912836670875549,-9.625887870788574,-0.629675030708313,0.00452507846057415,-0.0263519287109375,0.02741665206849575
18427216110312,-0.8164227604866028,-9.642647743225098,-0.6368576288223267,0.0066545275039970875,-0.02661811001598835,0.02262539230287075
18427217347437,-0.8008604645729065,-9.677363395690918,-0.5985504388809204,0.0071868896484375,-0.0314093679189682,0.0196974016726017
18427218584587,-0.7793126702308655,-9.648633003234863,-0.5710170865058899,0.00958251953125,-0.0276828333735466,0.0258195661008358
18427219821712,-0.7661445736885071,-9.66419506072998,-0.6440402865409851,0.010913425125181675,-0.0258195661008358,0.02369011752307415
18427221058850,-0.8140285611152649,-9.697713851928711,-0.645237386226654,0.00931633822619915,-0.02794901467859745,0.0210283063352108
18427222295987,-0.7960720658302307,-9.6618013381958,-0.5770025849342346,0.0114457868039608,-0.0340711809694767,0.0268842913210392
18427223533137,-0.767341673374176,-9.612719535827637,-0.6021417379379272,0.014906140975654125,-0.033272635191679,0.02848137728869915
18427224770275,-0.7841010689735413,-9.593565940856934,-0.6129156351089478,0.01756795309484005,-0.02981228195130825,0.0258195661008358
18427226007400,-0.767341673374176,-9.601945877075195,-0.6488286852836609,0.02369011752307415,-0.0295461006462574,0.02608574740588665
18427227244550,-0.8068459630012512,-9.611522674560547,-0.6033388376235962,0.02182685025036335,-0.0276828333735466,0.023956298828125
18427228481662,-0.7924807667732239,-9.617507934570312,-0.6368576288223267,0.02262539230287075,-0.0316755510866642,0.0244886614382267
18427229718812,-0.7841010689735413,-9.600749015808105,-0.6596025824546814,0.02129448764026165,-0.0338049978017807,0.02901373989880085
18427230955937,-0.812831461429596,-9.636661529541016,-0.608127236366272,0.0228915736079216,-0.0348697230219841,0.02981228195130825
18427232193075,-0.8319851160049438,-9.622296333312988,-0.5722141861915588,0.0215606689453125,-0.0330064557492733,0.02555338479578495
18427233430225,-0.788889467716217,-9.657012939453125,-0.6584054827690125,0.02901373989880085,-0.0311431884765625,0.02874755859375
18427234667350,-0.7829039692878723,-9.627084732055664,-0.6189011335372925,0.0324740931391716,-0.0324740931391716,0.0282151959836483
18427235904475,-0.7769184708595276,-9.624691009521484,-0.6093243360519409,0.0263519287109375,-0.0351359061896801,0.02901373989880085
18427237141612,-0.8451532125473022,-9.605537414550781,-0.6619967818260193,0.02874755859375,-0.0359344482421875,0.02741665206849575
18427238378750,-0.8200140595436096,-9.633070945739746,-0.6428431868553162,0.0359344482421875,-0.0340711809694767,0.03087700717151165
18427239615900,-0.811634361743927,-9.647436141967773,-0.6799532771110535,0.0359344482421875,-0.0367329902946949,0.0300784632563591
18427240853037,-0.811634361743927,-9.659406661987305,-0.6260837316513062,0.0316755510866642,-0.0351359061896801,0.0292799212038517
18427242090175,-0.811634361743927,-9.6989107131958,-0.6344634294509888,0.0351359061896801,-0.0356682650744915,0.0354020856320858
18427243327300,-0.8607155084609985,-9.691728591918945,-0.6368576288223267,0.0367329902946949,-0.0436537005007267,0.0367329902946949
18427244564437,-0.8224083185195923,-9.692925453186035,-0.6488286852836609,0.0401933453977108,-0.0433875173330307,0.0377977155148983
18427245801575,-0.8487445116043091,-9.718064308166504,-0.6189011335372925,0.0354020856320858,-0.0367329902946949,0.0359344482421875
18427247038700,-0.851138710975647,-9.724050521850586,-0.6536170840263367,0.0393948033452034,-0.0385962575674057,0.0377977155148983
18427248275862,-0.8487445116043091,-9.75158405303955,-0.6500257849693298,0.042855154722929,-0.0404595248401165,0.0369991734623909
18427249512987,-0.8631097078323364,-9.773131370544434,-0.629675030708313,0.0417904332280159,-0.0401933453977108,0.03034464456140995
18427250750112,-0.8619126081466675,-9.77672290802002,-0.6631938815116882,0.043121337890625,-0.0399271659553051,0.0300784632563591
18427251987250,-0.8786720037460327,-9.757569313049316,-0.6488286852836609,0.0412580706179142,-0.0375315360724926,0.0385962575674057
18427253224387,-0.8858546614646912,-9.77552604675293,-0.6524199843406677,0.043121337890625,-0.0377977155148983,0.0409918874502182
18427254461525,-0.9050082564353943,-9.7791166305542,-0.6560112833976746,0.0423227921128273,-0.0417904332280159,0.0377977155148983
18427255698662,-0.8942343592643738,-9.789891242980957,-0.5889736413955688,0.043121337890625,-0.0423227921128273,0.0367329902946949
18427256935800,-0.8822633624076843,-9.819818496704102,-0.6189011335372925,0.0468478724360466,-0.0409918874502182,0.038063894957304
18427258172925,-0.9038111567497253,-9.795876502990723,-0.6260837316513062,0.038330078125,-0.0439198799431324,0.0396609827876091
18427259410075,-0.8954314589500427,-9.831789016723633,-0.6332663297653198,0.0409918874502182,-0.0423227921128273,0.0388624407351017
18427260647225,-0.8990227580070496,-9.861717224121094,-0.6619967818260193,0.0417904332280159,-0.0468478724360466,0.038063894957304
18427261884350,-0.8990227580070496,-9.829395294189453,-0.6236895322799683,0.0399271659553051,-0.0447184219956398,0.038063894957304
18427263121475,-0.9074024558067322,-9.822212219238281,-0.6200982332229614,0.033538818359375,-0.0420566126704216,0.0372653529047966
18427264358612,-0.9588778018951416,-9.832986831665039,-0.6607996821403503,0.0343373604118824,-0.0452507846057415,0.0388624407351017
18427265595750,-0.9074024558067322,-9.874884605407715,-0.6009446382522583,0.0391286201775074,-0.0399271659553051,0.0447184219956398
18427266832887,-0.8702923059463501,-9.8784761428833,-0.6189011335372925,0.0388624407351017,-0.0412580706179142,0.0412580706179142
18427268070037,-0.8786720037460327,-9.849745750427246,-0.5973533391952515,0.0367329902946949,-0.0439198799431324,0.042855154722929
18427269307150,-0.9026140570640564,-9.850942611694336,-0.586579442024231,0.0396609827876091,-0.0473802350461483,0.0444522425532341
18427270544287,-0.933738648891449,-9.822212219238281,-0.5590460896492004,0.0367329902946949,-0.0465816929936409,0.0396609827876091
18427271781412,-0.9217676520347595,-9.829395294189453,-0.5781997442245483,0.0354020856320858,-0.04791259765625,0.0391286201775074
18427273018550,-0.9433155059814453,-9.856928825378418,-0.5949591398239136,0.0324740931391716,-0.0481787770986557,0.042855154722929
18427274255712,-0.9564836025238037,-9.90241813659668,-0.5590460896492004,0.0340711809694767,-0.0489773228764534,0.042855154722929
18427275492825,-0.9445126056671143,-9.897629737854004,-0.5746083855628967,0.0316755510866642,-0.04791259765625,0.0393948033452034
18427276729962,-0.9373299479484558,-9.898826599121094,-0.545877993106842,0.033272635191679,-0.0452507846057415,0.0385962575674057
18427277967112,-0.8966285586357117,-9.884461402893066,-0.5422866940498352,0.0300784632563591,-0.0417904332280159,0.0330064557492733
18427279204250,-0.9385270476341248,-9.928754806518555,-0.5829881429672241,0.02981228195130825,-0.0468478724360466,0.0348697230219841
18427280441400,-0.9385270476341248,-9.906009674072266,-0.5841852426528931,0.02608574740588665,-0.047646414488554,0.038063894957304
18427281678500,-0.9397241473197937,-9.914389610290527,-0.5159504413604736,0.02502102218568325,-0.0452507846057415,0.0359344482421875
18427282915650,-1.0007762908935547,-9.931148529052734,-0.569819986820221,0.02901373989880085,-0.0465816929936409,0.0322079136967659
18427284152787,-0.9816226959228516,-9.932345390319824,-0.5973533391952515,0.02502102218568325,-0.0471140518784523,0.0311431884765625
18427285389925,-0.9576807022094727,-9.950302124023438,-0.5650315880775452,0.0263519287109375,-0.0449846051633358,0.0311431884765625
18427286627075,-0.9804255962371826,-9.979032516479492,-0.5578489899635315,0.023956298828125,-0.0433875173330307,0.02661811001598835
18427287864187,-0.9576807022094727,-9.959878921508789,-0.5291185975074768,0.0223592109978199,-0.0455169677734375,0.02661811001598835
18427289101337,-0.9612720012664795,-9.995792388916016,-0.5506663918495178,0.0228915736079216,-0.0441860631108284,0.0220930315554142
18427290338475,-0.9864110946655273,-9.96945571899414,-0.568622887134552,0.01650322787463665,-0.0463155098259449,0.0223592109978199
18427291575600,-1.0259153842926025,-9.97065258026123,-0.5363011956214905,0.01463996060192585,-0.042855154722929,0.0167694091796875
18427292812725,-1.0307037830352783,-9.974244117736816,-0.569819986820221,0.0138414166867733,-0.042855154722929,0.015438503585755825
18427294049862,-1.0199298858642578,-9.971850395202637,-0.5793968439102173,0.01703559048473835,-0.0420566126704216,0.0186326764523983
18427295287000,-1.0055646896362305,-9.980230331420898,-0.5638344883918762,0.008517795242369175,-0.0367329902946949,0.01943122036755085
18427296524162,-1.0019733905792236,-9.956287384033203,-0.5518634915351868,0.00931633822619915,-0.0449846051633358,0.0167694091796875
18427297761287,-0.973242998123169,-9.928754806518555,-0.5817910432815552,0.010647243820130825,-0.0423227921128273,0.013042873702943325
18427298998425,-0.9648633003234863,-9.927556991577148,-0.5434837937355042,0.01117960549890995,-0.0388624407351017,0.008517795242369175
18427300235562,-1.0079588890075684,-9.951498985290527,-0.5530605912208557,0.0077192517928779125,-0.0359344482421875,0.00931633822619915
18427301472700,-0.9971849918365479,-9.919178009033203,-0.50876784324646,-0.0021294488105922937,-0.0367329902946949,0.006122165359556675
18427302709825,-1.0031704902648926,-9.932345390319824,-0.5829881429672241,-0.0005323622026480734,-0.0388624407351017,0.0013309054775163531
18427303946962,-1.0115501880645752,-9.938331604003906,-0.5422866940498352,0.0007985432748682797,-0.0375315360724926,0.0010647244052961469
18427305184087,-1.0199298858642578,-9.922768592834473,-0.5422866940498352,-0.0023956298828125,-0.0356682650744915,0.0013309054775163531
18427306421237,-1.0259153842926025,-9.8784761428833,-0.5566518902778625,-0.0071868896484375,-0.0327402763068676,0.0007985432748682797
18427307658375,-1.0019733905792236,-9.885659217834473,-0.5171476006507874,-0.005855984054505825,-0.033272635191679,-0.0037265352439135313
18427308895512,-0.9959878921508789,-9.884461402893066,-0.507570743560791,-0.006122165359556675,-0.0322079136967659,-0.0029279920272529125
18427310132662,-1.0007762908935547,-9.832986831665039,-0.5650315880775452,-0.0037265352439135313,-0.0316755510866642,-0.0031941730994731188
18427311369775,-0.9888052940368652,-9.797073364257812,-0.5159504413604736,-0.008251613937318325,-0.0311431884765625,-0.0066545275039970875
18427312606912,-0.9660604000091553,-9.827000617980957,-0.5291185975074768,-0.0090501569211483,-0.0319417305290699,-0.008783976547420025
18427313844050,-1.0091559886932373,-9.81143856048584,-0.6021417379379272,-0.008251613937318325,-0.03087700717151165,-0.010114881210029125
18427315081212,-1.0019733905792236,-9.763554573059082,-0.5099649429321289,-0.01171196810901165,-0.0306108258664608,-0.012776692397892475
18427316318325,-0.9923965930938721,-9.762357711791992,-0.5530605912208557,-0.01117960549890995,-0.02981228195130825,-0.0090501569211483
18427317555475,-0.9481039047241211,-9.732430458068848,-0.5554547905921936,-0.01224433071911335,-0.02661811001598835,-0.010647243820130825
18427318792600,-0.9983820915222168,-9.730035781860352,-0.5398924946784973,-0.010647243820130825,-0.02076212503015995,-0.01357523538172245
18427320029737,-0.9720458984375,-9.72285270690918,-0.5339069962501526,-0.0066545275039970875,-0.02262539230287075,-0.012776692397892475
18427321266862,-1.0127472877502441,-9.738415718078613,-0.5446808934211731,-0.00931633822619915,-0.023956298828125,-0.0114457868039608
18427322504025,-1.0031704902648926,-9.75158405303955,-0.5901707410812378,-0.0119781494140625,-0.02315775491297245,-0.014373779296875
18427323741125,-1.0199298858642578,-9.714473724365234,-0.5482721924781799,-0.0114457868039608,-0.02182685025036335,-0.01463996060192585
18427324978262,-0.9971849918365479,-9.736021041870117,-0.5123591423034668,-0.008517795242369175,-0.0186326764523983,-0.012510511092841625
18427326215400,-0.99479079246521,-9.725247383117676,-0.5315127968788147,-0.010647243820130825,-0.0162370465695858,-0.01171196810901165
18427327452562,-1.0247182846069336,-9.767146110534668,-0.5542576909065247,-0.008517795242369175,-0.02022976242005825,-0.0114457868039608
18427328689675,-0.9768342971801758,-9.734824180603027,-0.5135562419891357,-0.0114457868039608,-0.01783413253724575,-0.01650322787463665
18427329926825,-0.9816226959228516,-9.703699111938477,-0.5734112858772278,-0.007453070487827063,-0.0167694091796875,-0.01357523538172245
18427331163950,-0.9888052940368652,-9.708487510681152,-0.5111620426177979,-0.01117960549890995,-0.01650322787463665,-0.01410759799182415
18427332401100,-1.0091559886932373,-9.714473724365234,-0.524330198764801,-0.01117960549890995,-0.01410759799182415,-0.01889885775744915
18427333638225,-0.9983820915222168,-9.679757118225098,-0.524330198764801,-0.01171196810901165,-0.01171196810901165,-0.01597086526453495
18427334875375,-1.0067617893218994,-9.68933391571045,-0.5446808934211731,-0.00958251953125,-0.015172322280704975,-0.013042873702943325
18427336112500,-1.0067617893218994,-9.676166534423828,-0.5327098965644836,-0.013042873702943325,-0.010913425125181675,-0.013042873702943325
18427337349637,-1.0283095836639404,-9.720458984375,-0.4908113479614258,-0.013309055007994175,-0.006122165359556675,-0.014906140975654125
18427338586775,-0.9971849918365479,-9.695320129394531,-0.5530605912208557,-0.010913425125181675,-0.004791259765625,-0.015438503585755825
18427339823912,-0.9923965930938721,-9.691728591918945,-0.5578489899635315,-0.010381062515079975,-0.0042588976211845875,-0.0167694091796875
18427341061050,-1.015141487121582,-9.68694019317627,-0.547075092792511,-0.01463996060192585,-0.0053236219100654125,-0.015172322280704975
18427342298187,-0.9840168952941895,-9.667786598205566,-0.5422866940498352,-0.01410759799182415,-0.0031941730994731188,-0.014906140975654125
18427343535312,-1.0019733905792236,-9.714473724365234,-0.5578489899635315,-0.007985432632267475,-0.0023956298828125,-0.010114881210029125
18427344772475,-0.9588778018951416,-9.701305389404297,-0.5434837937355042,-0.0077192517928779125,-0.0042588976211845875,-0.010114881210029125
18427346009600,-0.9840168952941895,-9.677363395690918,-0.49799394607543945,-0.010647243820130825,0.0015970865497365594,-0.01703559048473835
18427347246725,-0.9828197956085205,-9.68574333190918,-0.5446808934211731,-0.0090501569211483,0.0013309054775163531,-0.01357523538172245
18427348483862,-1.0031704902648926,-9.708487510681152,-0.5482721924781799,-0.007985432632267475,0.0010647244052961469,-0.007985432632267475
18427349721012,-1.0103530883789062,-9.71926212310791,-0.5351040959358215,-0.0029279920272529125,0.0029279920272529125,-0.0066545275039970875
18427350958137,-0.9995791912078857,-9.709685325622559,-0.5398924946784973,-0.010381062515079975,0.0018632676219567657,-0.0077192517928779125
18427352195275,-1.0055646896362305,-9.730035781860352,-0.547075092792511,-0.013309055007994175,0.005855984054505825,-0.007985432632267475
18427353432425,-1.0211269855499268,-9.750386238098145,-0.5578489899635315,-0.008783976547420025,0.01171196810901165,-0.010647243820130825
18427354669550,-0.9983820915222168,-9.787496566772461,-0.5662286877632141,-0.0090501569211483,0.0119781494140625,-0.00931633822619915
18427355906700,-0.99479079246521,-9.764751434326172,-0.5374982953071594,-0.0029279920272529125,0.010381062515079975,-0.0042588976211845875
18427357143825,-1.01753568649292,-9.774328231811523,-0.5363011956214905,-0.008783976547420025,0.01463996060192585,-0.005057440605014563
18427358380962,-0.9983820915222168,-9.75517463684082,-0.5841852426528931,-0.01463996060192585,0.0157046839594841,-0.010381062515079975
18427359618100,-1.0115501880645752,-9.746795654296875,-0.585382342338562,-0.013042873702943325,0.015438503585755825,-0.007985432632267475
18427360855237,-1.0247182846069336,-9.758766174316406,-0.5901707410812378,-0.010913425125181675,0.015172322280704975,-0.0018632676219567657
18427362092362,-1.0546458959579468,-9.815030097961426,-0.5829881429672241,-0.0114457868039608,0.02262539230287075,-0.005057440605014563
18427363329487,-1.049857497215271,-9.785102844238281,-0.5746083855628967,-0.015172322280704975,0.02315775491297245,-0.0114457868039608
18427364566650,-1.0283095836639404,-9.764751434326172,-0.6009446382522583,-0.0162370465695858,0.01836649514734745,-0.0063883461989462376
18427365803775,-1.0259153842926025,-9.77791976928711,-0.5734112858772278,-0.0181003138422966,0.02422248013317585,-0.003460354171693325
18427367040900,-1.0438719987869263,-9.774328231811523,-0.5937620401382446,-0.01889885775744915,0.02874755859375,-0.008251613937318325
18427368278037,-1.0582371950149536,-9.767146110534668,-0.6021417379379272,-0.0186326764523983,0.0295461006462574,-0.0077192517928779125
18427369515187,-1.0115501880645752,-9.750386238098145,-0.5506663918495178,-0.0167694091796875,0.03087700717151165,-0.0018632676219567657
18427370752312,-1.0426748991012573,-9.836577415466309,-0.5566518902778625,-0.01996358297765255,0.0306108258664608,-0.0018632676219567657
18427371989462,-0.9864110946655273,-9.800664901733398,-0.5829881429672241,-0.0228915736079216,0.03087700717151165,-0.0005323622026480734
18427373226600,-0.9852139949798584,-9.77672290802002,-0.5758054852485657,-0.02422248013317585,0.033538818359375,0.0013309054775163531
18427374463725,-0.9756371974945068,-9.762357711791992,-0.6057330369949341,-0.02022976242005825,0.0319417305290699,0.0002661811013240367
18427375700875,-1.0067617893218994,-9.757569313049316,-0.6045359373092651,-0.02022976242005825,0.033272635191679,0.0002661811013240367
18427376937987,-1.0259153842926025,-9.75517463684082,-0.5758054852485657,-0.02182685025036335,0.0396609827876091,-0.0013309054775163531
18427378175125,-1.01753568649292,-9.758766174316406,-0.5710170865058899,-0.0234239362180233,0.0423227921128273,-0.0007985432748682797
18427379412275,-1.0079588890075684,-9.763554573059082,-0.6416460871696472,-0.02874755859375,0.0455169677734375,-0.004791259765625
18427380649425,-0.9864110946655273,-9.727641105651855,-0.5530605912208557,-0.02608574740588665,0.0471140518784523,0.0010647244052961469
18427381886550,-1.0067617893218994,-9.736021041870117,-0.5746083855628967,-0.02901373989880085,0.0460493303835392,0.0015970865497365594
18427383123687,-1.0007762908935547,-9.749189376831055,-0.628477931022644,-0.03034464456140995,0.0452507846057415,0.0010647244052961469
18427384360825,-0.993593692779541,-9.77552604675293,-0.5973533391952515,-0.0295461006462574,0.04791259765625,0.0015970865497365594
18427385597950,-0.9564836025238037,-9.765949249267578,-0.5889736413955688,-0.0316755510866642,0.0532362200319767,0.003460354171693325
18427386835112,-0.970848798751831,-9.72165584564209,-0.5973533391952515,-0.033272635191679,0.0495096817612648,0.008783976547420025
18427388072237,-0.9516952037811279,-9.762357711791992,-0.5901707410812378,-0.0292799212038517,0.0508405901491642,0.00984870083630085
18427389309375,-0.9205705523490906,-9.713275909423828,-0.5925649404525757,-0.0300784632563591,0.0553656667470932,0.0071868896484375
18427390546512,-0.9457097053527832,-9.712079048156738,-0.5758054852485657,-0.0388624407351017,0.0553656667470932,0.01171196810901165
18427391783650,-0.9600749015808105,-9.732430458068848,-0.5817910432815552,-0.0369991734623909,0.0540347620844841,0.00692070834338665
18427393020800,-0.912190854549408,-9.739612579345703,-0.585382342338562,-0.0338049978017807,0.0569627545773983,0.0071868896484375
18427394257912,-0.9349357485771179,-9.68813705444336,-0.6033388376235962,-0.0324740931391716,0.0561642125248909,0.0138414166867733
18427395495050,-0.9636662006378174,-9.684545516967773,-0.5829881429672241,-0.0327402763068676,0.0585598424077034,0.01117960549890995
18427396732187,-0.9564836025238037,-9.682151794433594,-0.5746083855628967,-0.0338049978017807,0.057228934019804,0.0138414166867733
18427397969325,-0.9457097053527832,-9.702502250671387,-0.6009446382522583,-0.03087700717151165,0.0569627545773983,0.0162370465695858
18427399206450,-0.9157821536064148,-9.690531730651855,-0.6057330369949341,-0.0324740931391716,0.0558980293571949,0.01650322787463665
18427400443612,-0.9038111567497253,-9.690531730651855,-0.6212953329086304,-0.0319417305290699,0.0561642125248909,0.0157046839594841
18427401680712,-0.9361328482627869,-9.691728591918945,-0.6009446382522583,-0.0346035435795784,0.0569627545773983,0.01650322787463665
18427402917875,-0.8942343592643738,-9.707290649414062,-0.5913678407669067,-0.0324740931391716,0.0590922012925148,0.01836649514734745
18427404155025,-0.8918401598930359,-9.649829864501953,-0.5793968439102173,-0.0340711809694767,0.0564303919672966,0.0196974016726017
18427405392150,-0.871489405632019,-9.667786598205566,-0.6105214357376099,-0.0343373604118824,0.0553656667470932,0.02022976242005825
18427406629287,-0.8619126081466675,-9.695320129394531,-0.586579442024231,-0.0324740931391716,0.0540347620844841,0.0191650390625
