timestamp_ns,accel_x,accel_y,accel_z,gyro_x,gyro_y,gyro_z
2799292678825,0.7757213711738586,-9.756372451782227,1.072602391242981,0.008251613937318325,-0.005057440605014563,0.01783413253724575
2799293916175,0.7817068696022034,-9.701305389404297,1.1252747774124146,0.010114881210029125,-0.006122165359556675,0.015438503585755825
2799295153487,0.8020575642585754,-9.731232643127441,1.1312602758407593,0.013309055007994175,-0.0063883461989462376,0.010114881210029125
2799296390812,0.8008604645729065,-9.736021041870117,1.0522516965866089,0.0162370465695858,-0.0042588976211845875,0.010114881210029125
2799297628150,0.7601590752601624,-9.743204116821289,1.0438719987869263,0.015438503585755825,-0.004791259765625,0.01224433071911335
2799298865462,0.7769184708595276,-9.724050521850586,1.070208191871643,0.008517795242369175,-0.0007985432748682797,0.014373779296875
2799300102812,0.7613561749458313,-9.731232643127441,1.0977414846420288,0.00958251953125,-0.0002661811013240367,0.0167694091796875
2799301340137,0.7829039692878723,-9.7420072555542,1.1037269830703735,0.01171196810901165,-0.0015970865497365594,0.0196974016726017
2799302577462,0.7793126702308655,-9.767146110534668,1.0821791887283325,0.0114457868039608,-0.00692070834338665,0.01597086526453495
2799303814800,0.7481880187988281,-9.785102844238281,1.091755986213684,0.01410759799182415,-0.0063883461989462376,0.015172322280704975
2799305052112,0.7577648162841797,-9.769539833068848,1.1001356840133667,0.0167694091796875,-0.0090501569211483,0.0157046839594841
2799306289450,0.750582218170166,-9.791088104248047,1.0199298858642578,0.0157046839594841,-0.00931633822619915,0.01357523538172245
2799307526800,0.7457938194274902,-9.799468040466309,1.1025298833847046,0.0119781494140625,-0.008251613937318325,0.01756795309484005
2799308764125,0.7649474740028381,-9.84256362915039,1.0378865003585815,0.010913425125181675,-0.008783976547420025,0.01224433071911335
2799310001450,0.727837324142456,-9.805453300476074,1.0773907899856567,0.008251613937318325,-0.010913425125181675,0.01171196810901165
2799311238762,0.7924807667732239,-9.822212219238281,1.0642226934432983,0.0071868896484375,-0.013309055007994175,0.01357523538172245
2799312476112,0.7565677165985107,-9.825803756713867,1.0845733880996704,0.007985432632267475,-0.00958251953125,0.02182685025036335
2799313713437,0.7709329724311829,-9.798270225524902,1.0630255937576294,0.010381062515079975,-0.010647243820130825,0.015172322280704975
2799314950737,0.7589619159698486,-9.81263542175293,1.1049240827560425,0.012776692397892475,-0.010913425125181675,0.0090501569211483
2799316188075,0.7481880187988281,-9.84256362915039,1.095347285270691,0.007453070487827063,-0.0119781494140625,0.0162370465695858
2799317425412,0.7781155705451965,-9.838972091674805,1.1037269830703735,0.010913425125181675,-0.00984870083630085,0.01410759799182415
2799318662750,0.7829039692878723,-9.800664901733398,1.0821791887283325,0.01117960549890995,-0.007985432632267475,0.014906140975654125
2799319900062,0.7266402244567871,-9.835380554199219,1.0845733880996704,0.010647243820130825,-0.0077192517928779125,0.01224433071911335
2799321137375,0.7170634269714355,-9.803058624267578,1.0833762884140015,0.003460354171693325,-0.007453070487827063,0.0119781494140625
2799322374725,0.7709329724311829,-9.830592155456543,1.1264718770980835,0.0077192517928779125,-0.00692070834338665,0.012510511092841625
2799323612075,0.7661445736885071,-9.831789016723633,1.094150185585022,0.005589802749454975,-0.010913425125181675,0.01357523538172245
2799324849387,0.727837324142456,-9.78869342803955,1.1025298833847046,0.0066545275039970875,-0.010381062515079975,0.010913425125181675
2799326086725,0.7326257228851318,-9.797073364257812,1.0761936902999878,0.005589802749454975,-0.010647243820130825,0.00958251953125
2799327324062,0.7457938194274902,-9.805453300476074,1.0989385843276978,0.0031941730994731188,-0.01357523538172245,0.01224433071911335
2799328561387,0.7422025203704834,-9.783905029296875,1.1097124814987183,0.0077192517928779125,-0.010913425125181675,0.012776692397892475
2799329798712,0.707486629486084,-9.822212219238281,1.1001356840133667,0.0063883461989462376,-0.0005323622026480734,0.00692070834338665
2799331036050,0.7266402244567871,-9.786299705505371,1.1025298833847046,0.0007985432748682797,-0.00692070834338665,0.01117960549890995
2799332273375,0.7050924301147461,-9.762357711791992,1.07379949092865,0.0042588976211845875,-0.007453070487827063,0.01171196810901165
2799333510687,0.7386112213134766,-9.81263542175293,1.0546458959579468,0.0031941730994731188,-0.007453070487827063,0.005855984054505825
2799334748025,0.768538773059845,-9.805453300476074,1.0678139925003052,0.00452507846057415,-0.0077192517928779125,0.010114881210029125
2799335985350,0.7481880187988281,-9.807847023010254,1.1061211824417114,0.0053236219100654125,-0.0066545275039970875,0.01597086526453495
2799337222675,0.7433996200561523,-9.84615421295166,1.139639973640442,0.0023956298828125,-0.004791259765625,0.00931633822619915
2799338460012,0.7493851184844971,-9.805453300476074,1.072602391242981,0.0077192517928779125,-0.00692070834338665,0.00958251953125
2799339697325,0.7398083209991455,-9.787496566772461,1.1037269830703735,0.005589802749454975,-0.0053236219100654125,0.010647243820130825
2799340934662,0.7553706169128418,-9.856928825378418,1.0845733880996704,0.0066545275039970875,-0.0007985432748682797,0.00984870083630085
2799342172000,0.7158663272857666,-9.818621635437012,1.1097124814987183,0.005057440605014563,-0.0023956298828125,0.007453070487827063
2799343409325,0.7386112213134766,-9.804256439208984,1.094150185585022,0.0,-0.0007985432748682797,0.00692070834338665
2799344646662,0.7146692276000977,-9.804256439208984,1.0761936902999878,0.00452507846057415,0.0002661811013240367,0.008251613937318325
2799345884000,0.7122750282287598,-9.862914085388184,1.1121066808700562,0.0066545275039970875,-0.005855984054505825,0.0090501569211483
2799347121312,0.7386112213134766,-9.817423820495605,1.1061211824417114,0.007985432632267475,-0.00984870083630085,0.00931633822619915
2799348358650,0.7326257228851318,-9.852140426635742,1.0642226934432983,0.0037265352439135313,-0.00452507846057415,0.008517795242369175
2799349595975,0.7781155705451965,-9.861717224121094,1.049857497215271,0.0066545275039970875,-0.0015970865497365594,0.005589802749454975
2799350833300,0.7050924301147461,-9.884461402893066,1.0881646871566772,0.003460354171693325,-0.0039927163161337376,0.005057440605014563
2799352070637,0.7134721279144287,-9.904812812805176,1.0690110921859741,0.0039927163161337376,-0.00692070834338665,0.0077192517928779125
2799353307962,0.7158663272857666,-9.894038200378418,1.07379949092865,0.0010647244052961469,-0.004791259765625,0.004791259765625
2799354545275,0.7158663272857666,-9.913191795349121,1.1073182821273804,-0.0015970865497365594,0.00452507846057415,0.0007985432748682797
2799355782612,0.7158663272857666,-9.886856079101562,1.0761936902999878,-0.0018632676219567657,0.0002661811013240367,0.0042588976211845875
2799357019937,0.7242460250854492,-9.9000244140625,1.0582371950149536,0.0026618109550327063,-0.010114881210029125,0.0039927163161337376
2799358257262,0.7386112213134766,-9.897629737854004,1.092953085899353,-0.0031941730994731188,-0.0029279920272529125,0.0063883461989462376
2799359494600,0.7182605266571045,-9.885659217834473,1.071405291557312,-0.0005323622026480734,-0.0013309054775163531,0.005057440605014563
2799360731912,0.727837324142456,-9.894038200378418,1.0833762884140015,0.0010647244052961469,-0.0026618109550327063,0.0021294488105922937
2799361969262,0.7422025203704834,-9.909601211547852,1.0821791887283325,-0.0031941730994731188,-0.0015970865497365594,-0.0005323622026480734
2799363206600,0.6955155730247498,-9.915586471557617,1.1288660764694214,-0.0042588976211845875,-0.0018632676219567657,0.0037265352439135313
2799364443912,0.7182605266571045,-9.908403396606445,1.0845733880996704,-0.0031941730994731188,0.0,0.0037265352439135313
2799365681250,0.7386112213134766,-9.90241813659668,1.1288660764694214,-0.0077192517928779125,-0.0010647244052961469,0.0015970865497365594
2799366918575,0.7003040313720703,-9.876082420349121,1.0761936902999878,-0.006122165359556675,0.0010647244052961469,-0.0037265352439135313
2799368155912,0.7230489253997803,-9.860519409179688,1.091755986213684,-0.00452507846057415,0.0013309054775163531,-0.0007985432748682797
2799369393250,0.7445967197418213,-9.86770248413086,1.048660397529602,-0.0071868896484375,0.0023956298828125,0.0010647244052961469
2799370630562,0.6739677786827087,-9.86650562286377,1.0785878896713257,-0.005589802749454975,-0.0013309054775163531,-0.0015970865497365594
2799371867887,0.7194576263427734,-9.847352027893066,1.1109095811843872,-0.0066545275039970875,0.0005323622026480734,-0.0071868896484375
2799373105225,0.7577648162841797,-9.84495735168457,1.0869675874710083,-0.012510511092841625,0.0029279920272529125,-0.0029279920272529125
2799374342562,0.7254431247711182,-9.829395294189453,1.0869675874710083,-0.0077192517928779125,-0.0002661811013240367,-0.0013309054775163531
2799375579875,0.7601590752601624,-9.77791976928711,1.0534487962722778,-0.005589802749454975,0.003460354171693325,-0.0026618109550327063
2799376817225,0.7218518257141113,-9.816226959228516,1.1085153818130493,-0.0090501569211483,0.0029279920272529125,-0.008251613937318325
2799378054537,0.7422025203704834,-9.801861763000488,1.0773907899856567,-0.006122165359556675,0.00452507846057415,-0.00931633822619915
2799379291862,0.7577648162841797,-9.773131370544434,1.1228805780410767,-0.00984870083630085,0.0039927163161337376,-0.0071868896484375
2799380529200,0.7218518257141113,-9.747992515563965,1.1085153818130493,-0.010381062515079975,0.006122165359556675,-0.0071868896484375
2799381766512,0.7637503743171692,-9.789891242980957,1.1085153818130493,-0.004791259765625,0.008251613937318325,-0.00958251953125
2799383003850,0.7829039692878723,-9.773131370544434,1.1288660764694214,-0.0031941730994731188,0.004791259765625,-0.005057440605014563
2799384241187,0.7577648162841797,-9.785102844238281,1.1037269830703735,-0.008251613937318325,0.0039927163161337376,-0.0071868896484375
2799385478512,0.7541735172271729,-9.77672290802002,1.091755986213684,-0.0066545275039970875,0.0013309054775163531,-0.014906140975654125
2799386715837,0.7637503743171692,-9.787496566772461,1.092953085899353,-0.0026618109550327063,0.004791259765625,-0.0119781494140625
2799387953175,0.751779317855835,-9.77552604675293,1.0797849893569946,-0.0063883461989462376,0.0077192517928779125,-0.010647243820130825
2799389190512,0.7589619159698486,-9.787496566772461,1.0773907899856567,-0.007985432632267475,0.0063883461989462376,-0.012776692397892475
2799390427837,0.7529764175415039,-9.762357711791992,1.0642226934432983,-0.00452507846057415,0.005855984054505825,-0.0119781494140625
2799391665150,0.7709329724311829,-9.727641105651855,1.0690110921859741,-0.005855984054505825,0.007453070487827063,-0.010647243820130825
2799392902500,0.7601590752601624,-9.770737648010254,1.091755986213684,-0.0023956298828125,0.012510511092841625,-0.010647243820130825
2799394139825,0.7350199222564697,-9.763554573059082,1.1037269830703735,0.0013309054775163531,0.00931633822619915,-0.010647243820130825
2799395377150,0.7745242714881897,-9.743204116821289,1.1001356840133667,0.0005323622026480734,0.0066545275039970875,-0.014373779296875
2799396614475,0.7589619159698486,-9.747992515563965,1.094150185585022,0.0021294488105922937,0.0063883461989462376,-0.014906140975654125
2799397851800,0.750582218170166,-9.77791976928711,1.1085153818130493,0.0010647244052961469,0.0039927163161337376,-0.01171196810901165
2799399089137,0.7912836670875549,-9.780314445495605,1.1025298833847046,-0.0053236219100654125,0.00984870083630085,-0.0138414166867733
2799400326462,0.828393816947937,-9.798270225524902,1.094150185585022,0.0005323622026480734,0.005057440605014563,-0.015172322280704975
2799401563787,0.7829039692878723,-9.783905029296875,1.07379949092865,0.0063883461989462376,0.005057440605014563,-0.013309055007994175
2799402801112,0.7852981686592102,-9.764751434326172,1.1073182821273804,0.00452507846057415,0.0031941730994731188,-0.0077192517928779125
2799404038450,0.788889467716217,-9.77672290802002,1.1348515748977661,0.0002661811013240367,0.0031941730994731188,-0.00931633822619915
2799405275775,0.7769184708595276,-9.787496566772461,1.0869675874710083,0.006122165359556675,0.005855984054505825,-0.007985432632267475
2799406513100,0.7661445736885071,-9.798270225524902,1.1109095811843872,0.0021294488105922937,0.008517795242369175,-0.0114457868039608
2799407750437,0.7709329724311829,-9.740809440612793,1.0654197931289673,0.0066545275039970875,0.00692070834338665,-0.01224433071911335
2799408987762,0.7817068696022034,-9.77672290802002,1.0749965906143188,0.010913425125181675,0.0039927163161337376,-0.006122165359556675
2799410225100,0.7745242714881897,-9.768342971801758,1.1109095811843872,0.004791259765625,0.0039927163161337376,-0.010114881210029125
2799411462412,0.7924807667732239,-9.734824180603027,1.0809820890426636,0.0010647244052961469,0.007985432632267475,-0.010913425125181675
2799412699750,0.812831461429596,-9.770737648010254,1.138442873954773,0.00931633822619915,0.010381062515079975,-0.00931633822619915
2799413937087,0.8200140595436096,-9.761160850524902,1.1252747774124146,0.008251613937318325,0.0023956298828125,-0.0053236219100654125
2799415174425,0.8080430626869202,-9.743204116821289,1.07379949092865,0.0077192517928779125,0.0005323622026480734,-0.0042588976211845875
2799416411750,0.7936778664588928,-9.743204116821289,1.1204863786697388,0.013042873702943325,0.004791259765625,-0.005057440605014563
2799417649075,0.8044517636299133,-9.724050521850586,1.048660397529602,0.010647243820130825,0.003460354171693325,-0.0053236219100654125
2799418886412,0.8224083185195923,-9.732430458068848,1.1192892789840698,0.010114881210029125,0.0077192517928779125,-0.005855984054505825
2799420123725,0.8188169598579407,-9.745597839355469,1.0905588865280151,0.01171196810901165,0.0023956298828125,-0.008783976547420025
2799421361075,0.7433996200561523,-9.731232643127441,1.0857704877853394,0.013042873702943325,0.0037265352439135313,-0.006122165359556675
2799422598400,0.7984662652015686,-9.743204116821289,1.095347285270691,0.0077192517928779125,0.00452507846057415,-0.00452507846057415
2799423835737,0.7852981686592102,-9.783905029296875,1.1252747774124146,0.010381062515079975,0.0042588976211845875,-0.0037265352439135313
2799425073050,0.7817068696022034,-9.746795654296875,1.0989385843276978,0.01463996060192585,0.0023956298828125,-0.0023956298828125
2799426310387,0.7948749661445618,-9.744400978088379,1.0893617868423462,0.012510511092841625,0.005057440605014563,-0.0007985432748682797
2799427547712,0.8415619134902954,-9.727641105651855,1.0390836000442505,0.01597086526453495,0.0015970865497365594,-0.0029279920272529125
2799428785050,0.8008604645729065,-9.75278091430664,1.0618284940719604,0.014373779296875,0.0039927163161337376,-0.004791259765625
2799430022350,0.7625532746315002,-9.745597839355469,1.072602391242981,0.01357523538172245,0.0023956298828125,-0.005589802749454975
2799431259700,0.7864952683448792,-9.75278091430664,1.1037269830703735,0.015438503585755825,-0.0023956298828125,-0.006122165359556675
2799432497025,0.8212112188339233,-9.795876502990723,1.0678139925003052,0.0181003138422966,-0.0031941730994731188,-0.0023956298828125
2799433734375,0.7829039692878723,-9.7791166305542,1.1121066808700562,0.013309055007994175,0.0018632676219567657,-0.0007985432748682797
2799434971675,0.812831461429596,-9.763554573059082,1.1180921792984009,0.015438503585755825,-0.0005323622026480734,0.0013309054775163531
2799436209025,0.788889467716217,-9.837775230407715,1.0905588865280151,0.0162370465695858,0.0010647244052961469,0.0026618109550327063
2799437446350,0.7589619159698486,-9.84615421295166,1.0462661981582642,0.01171196810901165,-0.0007985432748682797,-0.0018632676219567657
2799438683675,0.811634361743927,-9.791088104248047,1.0869675874710083,0.01117960549890995,-0.0018632676219567657,-0.0005323622026480734
2799439921000,0.7936778664588928,-9.828198432922363,1.095347285270691,0.01597086526453495,-0.0031941730994731188,0.0
2799441158337,0.7924807667732239,-9.797073364257812,1.091755986213684,0.014906140975654125,-0.0037265352439135313,-0.0002661811013240367
2799442395662,0.788889467716217,-9.835380554199219,1.1061211824417114,0.013042873702943325,0.0010647244052961469,-0.0039927163161337376
2799443633000,0.8164227604866028,-9.830592155456543,1.1288660764694214,0.014906140975654125,-0.0015970865497365594,-0.00452507846057415
2799444870325,0.7553706169128418,-9.841365814208984,1.0833762884140015,0.0191650390625,-0.0026618109550327063,0.0007985432748682797
2799446107650,0.7613561749458313,-9.856928825378418,1.0534487962722778,0.014373779296875,-0.0018632676219567657,0.0042588976211845875
2799447344987,0.7912836670875549,-9.831789016723633,1.095347285270691,0.014373779296875,-0.00692070834338665,0.003460354171693325
2799448582300,0.7745242714881897,-9.84495735168457,1.0845733880996704,0.012776692397892475,-0.0039927163161337376,-0.0005323622026480734
2799449819650,0.751779317855835,-9.858125686645508,1.0977414846420288,0.0090501569211483,-0.0013309054775163531,-0.0010647244052961469
2799451056962,0.7649474740028381,-9.859322547912598,1.0845733880996704,0.012776692397892475,-0.0053236219100654125,0.0015970865497365594
2799452294300,0.7637503743171692,-9.854534149169922,1.0761936902999878,0.015172322280704975,-0.0042588976211845875,0.0018632676219567657
2799453531650,0.7972691655158997,-9.847352027893066,1.0594342947006226,0.0138414166867733,-0.0013309054775163531,-0.0007985432748682797
2799454768962,0.8056488633155823,-9.791088104248047,1.0869675874710083,0.012510511092841625,-0.0029279920272529125,0.0023956298828125
2799456006275,0.7960720658302307,-9.818621635437012,1.1013327836990356,0.01171196810901165,-0.0021294488105922937,-0.0002661811013240367
2799457243612,0.7745242714881897,-9.865307807922363,1.0869675874710083,0.0162370465695858,-0.0042588976211845875,0.0037265352439135313
2799458480950,0.7541735172271729,-9.823410034179688,1.0845733880996704,0.00984870083630085,-0.004791259765625,0.0010647244052961469
2799459718275,0.7721300721168518,-9.86650562286377,1.0570400953292847,0.0037265352439135313,-0.003460354171693325,0.0021294488105922937
2799460955612,0.811634361743927,-9.818621635437012,1.048660397529602,0.006122165359556675,0.0,0.00452507846057415
2799462192937,0.7457938194274902,-9.837775230407715,1.0678139925003052,0.0090501569211483,-0.0007985432748682797,0.0002661811013240367
2799463430262,0.790086567401886,-9.832986831665039,1.0845733880996704,0.005855984054505825,-0.0023956298828125,-0.0013309054775163531
2799464667587,0.7924807667732239,-9.816226959228516,1.0690110921859741,0.0077192517928779125,-0.0071868896484375,0.0013309054775163531
2799465904912,0.8104372620582581,-9.822212219238281,1.0678139925003052,0.006122165359556675,-0.0026618109550327063,0.0013309054775163531
2799467142237,0.788889467716217,-9.800664901733398,1.0606313943862915,0.008783976547420025,-0.0026618109550327063,0.0007985432748682797
2799468379575,0.7852981686592102,-9.787496566772461,1.07379949092865,0.010647243820130825,-0.0026618109550327063,0.0
2799469616900,0.7876923680305481,-9.780314445495605,1.0893617868423462,0.0063883461989462376,-0.0023956298828125,0.0005323622026480734
2799470854237,0.8224083185195923,-9.795876502990723,1.0977414846420288,0.005855984054505825,-0.006122165359556675,0.0
2799472091562,0.7589619159698486,-9.81263542175293,1.0989385843276978,0.0063883461989462376,-0.0071868896484375,0.0018632676219567657
2799473328887,0.7805097699165344,-9.805453300476074,1.1300631761550903,0.005855984054505825,-0.010647243820130825,0.005855984054505825
2799474566237,0.7852981686592102,-9.782708168029785,1.113303780555725,0.00958251953125,-0.0002661811013240367,0.0
2799475803562,0.7852981686592102,-9.787496566772461,1.1097124814987183,0.005589802749454975,0.0010647244052961469,-0.0007985432748682797
2799477040887,0.7948749661445618,-9.743204116821289,1.1288660764694214,0.007453070487827063,-0.0039927163161337376,0.005057440605014563
2799478278200,0.7781155705451965,-9.801861763000488,1.0845733880996704,0.00931633822619915,-0.0077192517928779125,0.0026618109550327063
2799479515550,0.7649474740028381,-9.77791976928711,1.1085153818130493,0.008251613937318325,-0.00958251953125,0.0007985432748682797
2799480752862,0.7841010689735413,-9.75278091430664,1.1037269830703735,0.0023956298828125,-0.0029279920272529125,0.0018632676219567657
2799481990225,0.7829039692878723,-9.787496566772461,1.0630255937576294,0.00692070834338665,-0.0039927163161337376,0.0015970865497365594
2799483227537,0.790086567401886,-9.819818496704102,1.1121066808700562,0.0039927163161337376,-0.004791259765625,0.0031941730994731188
2799484464875,0.788889467716217,-9.81143856048584,1.07379949092865,0.00692070834338665,-0.008783976547420025,0.0029279920272529125
2799485702200,0.7948749661445618,-9.815030097961426,1.0989385843276978,0.01117960549890995,-0.0077192517928779125,0.0037265352439135313
2799486939512,0.8307880163192749,-9.786299705505371,1.0618284940719604,0.0071868896484375,-0.005855984054505825,-0.0002661811013240367
2799488176862,0.7936778664588928,-9.818621635437012,1.1025298833847046,0.010381062515079975,-0.0066545275039970875,0.0005323622026480734
2799489414187,0.8164227604866028,-9.801861763000488,1.1312602758407593,0.0053236219100654125,-0.0029279920272529125,0.004791259765625
2799490651500,0.7781155705451965,-9.81143856048584,1.1001356840133667,0.005057440605014563,-0.0023956298828125,0.006122165359556675
2799491888837,0.7864952683448792,-9.807847023010254,1.095347285270691,0.007985432632267475,-0.0077192517928779125,0.003460354171693325
2799493126162,0.7829039692878723,-9.819818496704102,1.0821791887283325,0.005057440605014563,-0.004791259765625,-0.0026618109550327063
2799494363512,0.8152256608009338,-9.782708168029785,1.0905588865280151,0.010647243820130825,-0.0031941730994731188,-0.003460354171693325
2799495600825,0.7841010689735413,-9.825803756713867,1.1540051698684692,0.008251613937318325,-0.008517795242369175,0.0029279920272529125
2799496838175,0.7972691655158997,-9.824606895446777,1.049857497215271,0.0077192517928779125,-0.010913425125181675,0.010114881210029125
2799498075475,0.7733271718025208,-9.819818496704102,1.0594342947006226,0.007453070487827063,-0.0066545275039970875,0.00958251953125
2799499312812,0.7948749661445618,-9.793481826782227,1.0977414846420288,0.0071868896484375,-0.0031941730994731188,0.005589802749454975
2799500550125,0.7781155705451965,-9.824606895446777,1.094150185585022,0.005057440605014563,-0.0026618109550327063,0.005589802749454975
2799501787462,0.8236054182052612,-9.797073364257812,1.092953085899353,0.007985432632267475,-0.0071868896484375,0.00452507846057415
2799503024800,0.7972691655158997,-9.807847023010254,1.0654197931289673,0.004791259765625,-0.005057440605014563,0.0031941730994731188
2799504262137,0.8188169598579407,-9.75517463684082,1.0881646871566772,0.005589802749454975,-0.0029279920272529125,0.0021294488105922937
2799505499475,0.7852981686592102,-9.806650161743164,1.1192892789840698,0.008251613937318325,-0.00452507846057415,0.0053236219100654125
2799506736812,0.7661445736885071,-9.838972091674805,1.0989385843276978,0.005589802749454975,-0.0077192517928779125,0.010114881210029125
2799507974125,0.7864952683448792,-9.837775230407715,1.1073182821273804,0.00984870083630085,-0.007453070487827063,0.01224433071911335
2799509211462,0.7769184708595276,-9.794679641723633,1.091755986213684,0.0029279920272529125,-0.0023956298828125,0.0090501569211483
2799510448787,0.7996633648872375,-9.818621635437012,1.0809820890426636,0.004791259765625,-0.010114881210029125,0.0077192517928779125
2799511686100,0.7924807667732239,-9.791088104248047,1.1037269830703735,0.007985432632267475,-0.010647243820130825,0.006122165359556675
2799512923450,0.7829039692878723,-9.822212219238281,1.1049240827560425,0.010114881210029125,-0.00692070834338665,0.0071868896484375
2799514160762,0.7805097699165344,-9.799468040466309,1.0965443849563599,0.007985432632267475,-0.00692070834338665,0.0010647244052961469
2799515398100,0.7733271718025208,-9.762357711791992,1.1049240827560425,0.0026618109550327063,-0.00452507846057415,0.00692070834338665
2799516635425,0.7984662652015686,-9.817423820495605,1.092953085899353,0.005589802749454975,-0.007453070487827063,0.00958251953125
2799517872750,0.7864952683448792,-9.799468040466309,1.1563994884490967,0.008251613937318325,-0.013042873702943325,0.008517795242369175
2799519110100,0.7398083209991455,-9.806650161743164,1.0558429956436157,0.006122165359556675,-0.00958251953125,0.01117960549890995
2799520347412,0.7733271718025208,-9.762357711791992,1.0905588865280151,0.0021294488105922937,-0.008783976547420025,0.008517795242369175
2799521584762,0.812831461429596,-9.817423820495605,1.095347285270691,0.0037265352439135313,-0.01357523538172245,0.0077192517928779125
2799522822087,0.7733271718025208,-9.84256362915039,1.1240776777267456,0.003460354171693325,-0.013309055007994175,0.0138414166867733
2799524059425,0.7793126702308655,-9.800664901733398,1.095347285270691,0.008251613937318325,-0.005057440605014563,0.01117960549890995
2799525296737,0.8224083185195923,-9.807847023010254,1.0845733880996704,0.00931633822619915,-0.006122165359556675,0.0042588976211845875
2799526534075,0.7661445736885071,-9.793481826782227,1.072602391242981,0.005855984054505825,-0.01224433071911335,0.010913425125181675
2799527771400,0.7745242714881897,-9.813833236694336,1.1432312726974487,0.0037265352439135313,-0.0157046839594841,0.015438503585755825
2799529008725,0.7852981686592102,-9.806650161743164,1.0570400953292847,0.0037265352439135313,-0.004791259765625,0.005589802749454975
2799530246062,0.7625532746315002,-9.827000617980957,1.095347285270691,0.00984870083630085,-0.010114881210029125,0.010114881210029125
2799531483400,0.7793126702308655,-9.81143856048584,1.1109095811843872,0.0039927163161337376,-0.012510511092841625,0.01357523538172245
2799532720725,0.767341673374176,-9.829395294189453,1.0857704877853394,0.003460354171693325,-0.010913425125181675,0.007453070487827063
2799533958050,0.8008604645729065,-9.785102844238281,1.0773907899856567,0.0039927163161337376,-0.008517795242369175,0.010381062515079975
2799535195387,0.7709329724311829,-9.841365814208984,1.0833762884140015,0.0031941730994731188,-0.010381062515079975,0.00452507846057415
2799536432712,0.7757213711738586,-9.815030097961426,1.0965443849563599,0.0037265352439135313,-0.0066545275039970875,0.010381062515079975
2799537670050,0.7577648162841797,-9.840168952941895,1.116895079612732,0.0037265352439135313,-0.0077192517928779125,0.012510511092841625
2799538907362,0.7721300721168518,-9.830592155456543,1.113303780555725,0.0071868896484375,-0.0090501569211483,0.010381062515079975
2799540144687,0.8008604645729065,-9.850942611694336,1.114500880241394,0.0039927163161337376,-0.01410759799182415,0.013309055007994175
2799541382025,0.7709329724311829,-9.798270225524902,1.0881646871566772,0.0021294488105922937,-0.0114457868039608,0.0119781494140625
2799542619350,0.8367735147476196,-9.840168952941895,1.0797849893569946,0.0021294488105922937,-0.007985432632267475,0.0090501569211483
2799543856675,0.811634361743927,-9.816226959228516,1.0977414846420288,0.005589802749454975,-0.00931633822619915,0.005589802749454975
2799545094012,0.8056488633155823,-9.860519409179688,1.0845733880996704,0.0015970865497365594,-0.00958251953125,0.0114457868039608
2799546331350,0.8008604645729065,-9.817423820495605,1.091755986213684,0.0005323622026480734,-0.01171196810901165,0.01836649514734745
2799547568687,0.7972691655158997,-9.822212219238281,1.114500880241394,0.0053236219100654125,-0.00984870083630085,0.012510511092841625
2799548806000,0.7841010689735413,-9.823410034179688,1.116895079612732,0.0010647244052961469,-0.005589802749454975,0.008251613937318325
2799550043337,0.729034423828125,-9.834183692932129,1.1312602758407593,0.00692070834338665,-0.01463996060192585,0.0138414166867733
2799551280662,0.7817068696022034,-9.794679641723633,1.1001356840133667,0.0018632676219567657,-0.01410759799182415,0.008783976547420025
2799552518000,0.7733271718025208,-9.787496566772461,1.047463297843933,0.0013309054775163531,-0.010381062515079975,0.0077192517928779125
2799553755337,0.7841010689735413,-9.795876502990723,1.1348515748977661,0.0023956298828125,-0.014906140975654125,0.008517795242369175
2799554992650,0.7805097699165344,-9.81263542175293,1.1085153818130493,0.0039927163161337376,-0.010913425125181675,0.010913425125181675
2799556230000,0.7757213711738586,-9.815030097961426,1.1240776777267456,0.0026618109550327063,-0.0037265352439135313,0.0138414166867733
2799557467325,0.7445967197418213,-9.77791976928711,1.1085153818130493,0.0007985432748682797,-0.005057440605014563,0.00692070834338665
2799558704637,0.768538773059845,-9.793481826782227,1.0749965906143188,0.0029279920272529125,-0.0063883461989462376,0.0077192517928779125
2799559941975,0.7410054206848145,-9.769539833068848,1.1025298833847046,0.0042588976211845875,-0.010647243820130825,0.012510511092841625
2799561179312,0.7864952683448792,-9.798270225524902,1.1049240827560425,0.0029279920272529125,-0.01357523538172245,0.007985432632267475
2799562416637,0.730231523513794,-9.794679641723633,1.0797849893569946,-0.0002661811013240367,-0.01224433071911335,0.0090501569211483
2799563653950,0.8056488633155823,-9.822212219238281,1.070208191871643,0.0018632676219567657,-0.010114881210029125,0.0138414166867733
2799564891300,0.7781155705451965,-9.81143856048584,1.0546458959579468,0.003460354171693325,-0.0119781494140625,0.014906140975654125
2799566128625,0.7864952683448792,-9.764751434326172,1.071405291557312,0.0037265352439135313,-0.008783976547420025,0.010114881210029125
2799567365950,0.7529764175415039,-9.795876502990723,1.1001356840133667,0.0018632676219567657,-0.00931633822619915,0.010381062515079975
2799568603300,0.751779317855835,-9.807847023010254,1.0773907899856567,-0.0002661811013240367,-0.01171196810901165,0.014906140975654125
2799569840600,0.812831461429596,-9.786299705505371,1.1216834783554077,0.005855984054505825,-0.01224433071911335,0.015172322280704975
2799571077925,0.8044517636299133,-9.77672290802002,1.1540051698684692,0.006122165359556675,-0.013042873702943325,0.0210283063352108
2799572315275,0.7314286231994629,-9.836577415466309,1.1240776777267456,0.0029279920272529125,-0.015438503585755825,0.014906140975654125
2799573552600,0.7841010689735413,-9.798270225524902,1.0761936902999878,0.0031941730994731188,-0.012776692397892475,0.013042873702943325
2799574789937,0.8044517636299133,-9.782708168029785,1.1192892789840698,-0.0005323622026480734,-0.010913425125181675,0.0114457868039608
2799576027250,0.8056488633155823,-9.804256439208984,1.1109095811843872,0.0,-0.01463996060192585,0.0157046839594841
2799577264600,0.7817068696022034,-9.769539833068848,1.094150185585022,0.0013309054775163531,-0.008783976547420025,0.0114457868039608
2799578501925,0.7457938194274902,-9.822212219238281,1.0881646871566772,0.00452507846057415,-0.0090501569211483,0.00931633822619915
2799579739250,0.7398083209991455,-9.767146110534668,1.0809820890426636,0.006122165359556675,-0.0071868896484375,0.00984870083630085
2799580976587,0.7661445736885071,-9.800664901733398,1.0989385843276978,0.0029279920272529125,-0.00984870083630085,0.00692070834338665
2799582213912,0.7936778664588928,-9.785102844238281,1.1192892789840698,0.005855984054505825,-0.0114457868039608,0.008783976547420025
2799583451250,0.7362170219421387,-9.837775230407715,1.116895079612732,0.004791259765625,-0.0119781494140625,0.0090501569211483
2799584688575,0.7829039692878723,-9.783905029296875,1.0989385843276978,0.005855984054505825,-0.0114457868039608,0.0119781494140625
2799585925912,0.7493851184844971,-9.805453300476074,1.0905588865280151,0.0071868896484375,-0.00984870083630085,0.007453070487827063
2799587163225,0.7362170219421387,-9.770737648010254,1.1288660764694214,0.004791259765625,-0.01357523538172245,0.00958251953125
2799588400550,0.7565677165985107,-9.793481826782227,1.0869675874710083,0.0037265352439135313,-0.0063883461989462376,0.010381062515079975
2799589637887,0.7733271718025208,-9.798270225524902,1.1228805780410767,-0.0013309054775163531,-0.007453070487827063,0.008251613937318325
2799590875237,0.7924807667732239,-9.815030097961426,1.071405291557312,0.0039927163161337376,-0.010114881210029125,0.0114457868039608
2799592112550,0.7996633648872375,-9.813833236694336,1.092953085899353,0.003460354171693325,-0.01597086526453495,0.01357523538172245
2799593349887,0.8200140595436096,-9.773131370544434,1.0833762884140015,0.0029279920272529125,-0.0162370465695858,0.0066545275039970875
2799594587212,0.7829039692878723,-9.815030097961426,1.1013327836990356,0.0039927163161337376,-0.010381062515079975,0.0114457868039608
2799595824537,0.7876923680305481,-9.81143856048584,1.1300631761550903,0.0031941730994731188,-0.01224433071911335,0.0114457868039608
2799597061875,0.7589619159698486,-9.77791976928711,1.1013327836990356,0.0053236219100654125,-0.013309055007994175,0.00931633822619915
2799598299187,0.7936778664588928,-9.771934509277344,1.0211269855499268,0.006122165359556675,-0.00931633822619915,0.01117960549890995
2799599536512,0.7793126702308655,-9.801861763000488,1.0773907899856567,0.0063883461989462376,-0.00984870083630085,0.01224433071911335
2799600773850,0.7936778664588928,-9.77791976928711,1.0606313943862915,0.005855984054505825,-0.012510511092841625,0.00984870083630085
2799602011200,0.7541735172271729,-9.807847023010254,1.0905588865280151,0.006122165359556675,-0.012510511092841625,0.010381062515079975
2799603248525,0.7864952683448792,-9.81143856048584,1.091755986213684,0.0063883461989462376,-0.010381062515079975,0.0066545275039970875
2799604485850,0.7829039692878723,-9.77552604675293,1.138442873954773,0.0039927163161337376,-0.008783976547420025,0.005855984054505825
2799605723187,0.7996633648872375,-9.793481826782227,1.1025298833847046,0.00452507846057415,-0.0114457868039608,0.008517795242369175
2799606960512,0.7721300721168518,-9.78869342803955,1.1240776777267456,0.00692070834338665,-0.014906140975654125,0.008251613937318325
2799608197837,0.8092401623725891,-9.782708168029785,1.091755986213684,0.0071868896484375,-0.010381062515079975,0.00452507846057415
2799609435162,0.8068459630012512,-9.804256439208984,1.0905588865280151,0.0053236219100654125,-0.00984870083630085,0.010114881210029125
2799610672500,0.7960720658302307,-9.80904483795166,1.1300631761550903,0.008783976547420025,-0.0114457868039608,0.0077192517928779125
2799611909837,0.7601590752601624,-9.819818496704102,1.1264718770980835,0.006122165359556675,-0.00931633822619915,0.0119781494140625
2799613147150,0.8044517636299133,-9.793481826782227,1.094150185585022,0.008251613937318325,-0.010913425125181675,0.012510511092841625
2799614384500,0.7948749661445618,-9.806650161743164,1.0797849893569946,0.0077192517928779125,-0.00931633822619915,0.0114457868039608
2799615621812,0.7876923680305481,-9.782708168029785,1.072602391242981,0.007985432632267475,-0.013309055007994175,0.0114457868039608
2799616859150,0.788889467716217,-9.806650161743164,1.1252747774124146,0.003460354171693325,-0.01597086526453495,0.0090501569211483
2799618096487,0.7637503743171692,-9.80904483795166,1.1252747774124146,0.0063883461989462376,-0.014906140975654125,0.010114881210029125
2799619333812,0.7864952683448792,-9.832986831665039,1.0785878896713257,0.0071868896484375,-0.01463996060192585,0.0090501569211483
2799620571125,0.8140285611152649,-9.834183692932129,1.05105459690094,0.005855984054505825,-0.01836649514734745,0.0077192517928779125
2799621808475,0.8152256608009338,-9.773131370544434,1.0809820890426636,0.010381062515079975,-0.01756795309484005,0.013309055007994175
2799623045787,0.7829039692878723,-9.789891242980957,1.0989385843276978,0.010114881210029125,-0.008783976547420025,0.0066545275039970875
2799624283125,0.7661445736885071,-9.77672290802002,1.1037269830703735,0.00692070834338665,-0.012776692397892475,0.0071868896484375
2799625520462,0.7924807667732239,-9.822212219238281,1.091755986213684,0.0077192517928779125,-0.013042873702943325,0.00984870083630085
2799626757787,0.8152256608009338,-9.77672290802002,1.1480196714401245,0.0077192517928779125,-0.0119781494140625,0.007453070487827063
2799627995125,0.7852981686592102,-9.759963035583496,1.1671733856201172,0.008251613937318325,-0.01224433071911335,0.008251613937318325
2799629232450,0.7733271718025208,-9.726444244384766,1.1288660764694214,0.0090501569211483,-0.010114881210029125,0.008517795242369175
2799630469787,0.7350199222564697,-9.7420072555542,1.1336544752120972,0.0119781494140625,-0.01597086526453495,0.01171196810901165
2799631707100,0.8140285611152649,-9.734824180603027,1.114500880241394,0.0063883461989462376,-0.0162370465695858,0.008251613937318325
2799632944437,0.8080430626869202,-9.750386238098145,1.0989385843276978,0.010114881210029125,-0.013042873702943325,0.012776692397892475
2799634181762,0.8104372620582581,-9.7420072555542,1.138442873954773,0.010647243820130825,-0.01224433071911335,0.00984870083630085
2799635419100,0.790086567401886,-9.744400978088379,1.071405291557312,0.014373779296875,-0.01597086526453495,0.00984870083630085
2799636656425,0.7601590752601624,-9.798270225524902,1.1288660764694214,0.01117960549890995,-0.01463996060192585,0.00931633822619915
2799637893750,0.7936778664588928,-9.780314445495605,1.0869675874710083,0.01224433071911335,-0.01224433071911335,0.008517795242369175
2799639131087,0.7805097699165344,-9.847352027893066,1.0354923009872437,0.013309055007994175,-0.01889885775744915,0.008783976547420025
2799640368425,0.7422025203704834,-9.827000617980957,1.05105459690094,0.01703559048473835,-0.0204959437251091,0.015172322280704975
2799641605750,0.7182605266571045,-9.819818496704102,1.0749965906143188,0.0157046839594841,-0.01650322787463665,0.01756795309484005
2799642843075,0.7625532746315002,-9.825803756713867,1.1001356840133667,0.0138414166867733,-0.0204959437251091,0.0204959437251091
2799644080400,0.8140285611152649,-9.84376049041748,1.07379949092865,0.00984870083630085,-0.01410759799182415,0.01463996060192585
2799645317737,0.7876923680305481,-9.86650562286377,1.1097124814987183,0.008517795242369175,-0.01783413253724575,0.01756795309484005
2799646555050,0.7457938194274902,-9.862914085388184,1.072602391242981,0.010381062515079975,-0.02076212503015995,0.01889885775744915
2799647792400,0.7912836670875549,-9.86889934539795,1.0761936902999878,0.01357523538172245,-0.01703559048473835,0.0215606689453125
2799649029725,0.7493851184844971,-9.841365814208984,1.1073182821273804,0.0114457868039608,-0.01117960549890995,0.02129448764026165
2799650267050,0.7721300721168518,-9.840168952941895,1.1180921792984009,0.010647243820130825,-0.01889885775744915,0.01783413253724575
2799651504362,0.8056488633155823,-9.832986831665039,1.1312602758407593,0.012510511092841625,-0.01463996060192585,0.0173017717897892
2799652741700,0.790086567401886,-9.841365814208984,1.1528080701828003,0.0066545275039970875,-0.012510511092841625,0.0186326764523983
2799653979050,0.7469909191131592,-9.850942611694336,1.094150185585022,0.0114457868039608,-0.02076212503015995,0.02076212503015995
2799655216362,0.8008604645729065,-9.807847023010254,1.1001356840133667,0.0077192517928779125,-0.0162370465695858,0.0186326764523983
2799656453687,0.7793126702308655,-9.828198432922363,1.1468225717544556,0.0021294488105922937,-0.01224433071911335,0.0162370465695858
2799657691025,0.7852981686592102,-9.864110946655273,1.095347285270691,0.005589802749454975,-0.008251613937318325,0.01597086526453495
2799658928350,0.7697358727455139,-9.828198432922363,1.115697979927063,0.0053236219100654125,-0.01357523538172245,0.01889885775744915
2799660165700,0.7398083209991455,-9.830592155456543,1.1264718770980835,0.0039927163161337376,-0.0186326764523983,0.015172322280704975
2799661403012,0.727837324142456,-9.858125686645508,1.1049240827560425,0.007453070487827063,-0.01703559048473835,0.0167694091796875
2799662640350,0.727837324142456,-9.81024169921875,1.1192892789840698,0.0071868896484375,-0.01703559048473835,0.0162370465695858
2799663877662,0.7003040313720703,-9.786299705505371,1.0989385843276978,0.005855984054505825,-0.0167694091796875,0.01597086526453495
2799665115012,0.7589619159698486,-9.794679641723633,1.1420341730117798,0.0039927163161337376,-0.015172322280704975,0.01410759799182415
2799666352337,0.727837324142456,-9.827000617980957,1.1647791862487793,0.005855984054505825,-0.0119781494140625,0.013042873702943325
2799667589687,0.7493851184844971,-9.801861763000488,1.1563994884490967,0.0042588976211845875,-0.014373779296875,0.0162370465695858
2799668827025,0.7493851184844971,-9.850942611694336,1.1192892789840698,0.003460354171693325,-0.0119781494140625,0.01357523538172245
2799670064325,0.7841010689735413,-9.793481826782227,1.0307037830352783,0.0037265352439135313,-0.0077192517928779125,0.007453070487827063
2799671301650,0.7864952683448792,-9.831789016723633,1.115697979927063,0.0002661811013240367,-0.00984870083630085,0.010381062515079975
2799672538975,0.7410054206848145,-9.813833236694336,1.113303780555725,0.0063883461989462376,-0.012776692397892475,0.01703559048473835
2799673776325,0.7565677165985107,-9.831789016723633,1.0821791887283325,0.005589802749454975,-0.01703559048473835,0.0138414166867733
2799675013637,0.7386112213134766,-9.834183692932129,1.0773907899856567,0.0039927163161337376,-0.0119781494140625,0.012510511092841625
2799676250975,0.7182605266571045,-9.871294021606445,1.07379949092865,0.0029279920272529125,-0.0090501569211483,0.012776692397892475
2799677488300,0.7422025203704834,-9.832986831665039,1.094150185585022,0.008783976547420025,-0.014373779296875,0.0173017717897892
2799678725637,0.7469909191131592,-9.855731010437012,1.05105459690094,0.0053236219100654125,-0.015172322280704975,0.0157046839594841
2799679962962,0.7469909191131592,-9.84376049041748,1.1204863786697388,0.003460354171693325,-0.013042873702943325,0.0114457868039608
2799681200312,0.7745242714881897,-9.848548889160156,1.1348515748977661,0.005057440605014563,-0.01171196810901165,0.0167694091796875
2799682437650,0.7757213711738586,-9.870096206665039,1.092953085899353,0.0010647244052961469,-0.008783976547420025,0.008783976547420025
2799683674962,0.7864952683448792,-9.865307807922363,1.1204863786697388,-0.0031941730994731188,-0.0042588976211845875,0.00958251953125
2799684912275,0.7457938194274902,-9.854534149169922,1.1025298833847046,0.0,-0.010114881210029125,0.015172322280704975
2799686149625,0.7565677165985107,-9.86889934539795,1.1013327836990356,0.0015970865497365594,-0.0157046839594841,0.01117960549890995
2799687386937,0.7374141216278076,-9.871294021606445,1.1216834783554077,0.0021294488105922937,-0.013042873702943325,0.01117960549890995
2799688624275,0.7410054206848145,-9.835380554199219,1.1121066808700562,-0.0015970865497365594,-0.005589802749454975,0.008517795242369175
2799689861612,0.7374141216278076,-9.817423820495605,1.1192892789840698,-0.0029279920272529125,-0.007453070487827063,0.010381062515079975
2799691098937,0.7649474740028381,-9.822212219238281,1.0558429956436157,0.0007985432748682797,-0.01171196810901165,0.0162370465695858
2799692336250,0.751779317855835,-9.821015357971191,1.0965443849563599,-0.0029279920272529125,-0.0114457868039608,0.015438503585755825
2799693573587,0.768538773059845,-9.800664901733398,1.0749965906143188,-0.0039927163161337376,-0.008517795242369175,0.0077192517928779125
2799694810912,0.7613561749458313,-9.823410034179688,1.0857704877853394,-0.0007985432748682797,-0.005589802749454975,0.01117960549890995
2799696048262,0.7493851184844971,-9.783905029296875,1.1121066808700562,0.0026618109550327063,-0.008517795242369175,0.014373779296875
2799697285587,0.7733271718025208,-9.794679641723633,1.0797849893569946,-0.0005323622026480734,-0.005589802749454975,0.008517795242369175
2799698522912,0.7422025203704834,-9.819818496704102,1.0821791887283325,-0.005057440605014563,-0.008517795242369175,0.0167694091796875
2799699760250,0.7410054206848145,-9.819818496704102,1.0977414846420288,-0.0013309054775163531,-0.010114881210029125,0.01171196810901165
2799700997575,0.7613561749458313,-9.80904483795166,1.116895079612732,0.0005323622026480734,-0.00984870083630085,0.008251613937318325
2799702234887,0.7481880187988281,-9.813833236694336,1.0773907899856567,-0.0007985432748682797,-0.0077192517928779125,0.0119781494140625
2799703472237,0.7637503743171692,-9.821015357971191,1.1037269830703735,-0.0031941730994731188,-0.00931633822619915,0.01410759799182415
2799704709562,0.7469909191131592,-9.768342971801758,1.1216834783554077,0.0010647244052961469,-0.010913425125181675,0.0114457868039608
2799705946887,0.7445967197418213,-9.797073364257812,1.1097124814987183,0.0007985432748682797,-0.00984870083630085,0.010913425125181675
2799707184212,0.7457938194274902,-9.798270225524902,1.1001356840133667,-0.0010647244052961469,-0.010381062515079975,0.00931633822619915
2799708421562,0.7721300721168518,-9.764751434326172,1.1001356840133667,-0.0007985432748682797,-0.01117960549890995,0.010913425125181675
2799709658887,0.7433996200561523,-9.794679641723633,1.1025298833847046,-0.0053236219100654125,-0.008251613937318325,0.015438503585755825
2799710896212,0.7733271718025208,-9.77791976928711,1.115697979927063,-0.0010647244052961469,-0.0066545275039970875,0.012510511092841625
2799712133537,0.7469909191131592,-9.77552604675293,1.114500880241394,-0.0023956298828125,-0.0031941730994731188,0.010381062515079975
2799713370887,0.727837324142456,-9.801861763000488,1.0666168928146362,-0.0002661811013240367,-0.0053236219100654125,0.01171196810901165
2799714608212,0.7553706169128418,-9.757569313049316,1.1288660764694214,-0.0021294488105922937,-0.01410759799182415,0.01117960549890995
2799715845537,0.7410054206848145,-9.786299705505371,1.0749965906143188,0.0031941730994731188,-0.010647243820130825,0.01783413253724575
2799717082862,0.750582218170166,-9.807847023010254,1.0977414846420288,0.003460354171693325,-0.010913425125181675,0.012510511092841625
2799718320200,0.7206547260284424,-9.795876502990723,1.1228805780410767,-0.0031941730994731188,-0.00931633822619915,0.014373779296875
2799719557537,0.7469909191131592,-9.78869342803955,1.1085153818130493,0.0005323622026480734,-0.010381062515079975,0.014373779296875
2799720794850,0.7541735172271729,-9.81024169921875,1.1312602758407593,-0.0013309054775163531,-0.007985432632267475,0.014906140975654125
2799722032187,0.7709329724311829,-9.780314445495605,1.115697979927063,-0.0023956298828125,-0.00984870083630085,0.01410759799182415
2799723269512,0.7661445736885071,-9.799468040466309,1.1109095811843872,-0.0007985432748682797,-0.010647243820130825,0.01783413253724575
2799724506850,0.7493851184844971,-9.807847023010254,1.1037269830703735,0.0005323622026480734,-0.0031941730994731188,0.0167694091796875
2799725744175,0.730231523513794,-9.817423820495605,1.0773907899856567,-0.0002661811013240367,-0.0031941730994731188,0.015438503585755825
2799726981512,0.7362170219421387,-9.805453300476074,1.0630255937576294,0.0007985432748682797,-0.010913425125181675,0.015172322280704975
2799728218837,0.7338228225708008,-9.807847023010254,1.1288660764694214,0.0015970865497365594,-0.012510511092841625,0.01943122036755085
2799729456175,0.7386112213134766,-9.832986831665039,1.1252747774124146,-0.0021294488105922937,-0.010913425125181675,0.0181003138422966
2799730693500,0.7733271718025208,-9.792284965515137,1.1288660764694214,-0.0002661811013240367,-0.0071868896484375,0.01650322787463665
2799731930850,0.6967126727104187,-9.795876502990723,1.1324573755264282,0.0018632676219567657,-0.010647243820130825,0.0181003138422966
2799733168175,0.7003040313720703,-9.81143856048584,1.0809820890426636,0.0039927163161337376,-0.012510511092841625,0.01597086526453495
2799734405500,0.7350199222564697,-9.800664901733398,1.0977414846420288,0.0018632676219567657,-0.010381062515079975,0.012510511092841625
2799735642825,0.750582218170166,-9.827000617980957,1.138442873954773,0.0015970865497365594,-0.00692070834338665,0.014373779296875
2799736880137,0.729034423828125,-9.756372451782227,1.113303780555725,0.0005323622026480734,-0.005855984054505825,0.01410759799182415
2799738117487,0.707486629486084,-9.77552604675293,1.1109095811843872,-0.0002661811013240367,-0.00692070834338665,0.0119781494140625
2799739354812,0.7170634269714355,-9.75517463684082,1.095347285270691,-0.004791259765625,-0.003460354171693325,0.012510511092841625
2799740592150,0.6655880808830261,-9.77672290802002,1.091755986213684,0.0010647244052961469,-0.005589802749454975,0.0157046839594841
2799741829475,0.7218518257141113,-9.773131370544434,1.114500880241394,0.0037265352439135313,-0.0053236219100654125,0.014373779296875
2799743066787,0.7122750282287598,-9.768342971801758,1.116895079612732,0.0013309054775163531,-0.0023956298828125,0.01650322787463665
2799744304125,0.7326257228851318,-9.782708168029785,1.1037269830703735,0.004791259765625,-0.008517795242369175,0.0181003138422966
2799745541462,0.7433996200561523,-9.761160850524902,1.1180921792984009,0.00692070834338665,-0.007985432632267475,0.01410759799182415
2799746778800,0.7326257228851318,-9.81143856048584,1.0989385843276978,0.0037265352439135313,-0.004791259765625,0.015438503585755825
2799748016125,0.727837324142456,-9.780314445495605,1.1288660764694214,0.0077192517928779125,-0.006122165359556675,0.0119781494140625
2799749253450,0.7038953304290771,-9.77552604675293,1.0630255937576294,0.006122165359556675,-0.0031941730994731188,0.0138414166867733
2799750490787,0.7110779285430908,-9.81263542175293,1.1228805780410767,0.005057440605014563,-0.00452507846057415,0.0173017717897892
2799751728125,0.7194576263427734,-9.813833236694336,1.137245774269104,0.007453070487827063,-0.005855984054505825,0.0167694091796875
2799752965450,0.7230489253997803,-9.789891242980957,1.1228805780410767,0.006122165359556675,-0.003460354171693325,0.0138414166867733
2799754202787,0.7338228225708008,-9.793481826782227,1.1013327836990356,0.005855984054505825,-0.0015970865497365594,0.0138414166867733
2799755440112,0.7589619159698486,-9.791088104248047,1.1264718770980835,0.0071868896484375,-0.003460354171693325,0.01597086526453495
2799756677425,0.729034423828125,-9.81143856048584,1.1240776777267456,0.0077192517928779125,-0.005057440605014563,0.013309055007994175
2799757914762,0.7254431247711182,-9.831789016723633,1.1336544752120972,0.0029279920272529125,-0.00452507846057415,0.014906140975654125
2799759152112,0.7254431247711182,-9.791088104248047,1.1288660764694214,0.0013309054775163531,-0.00692070834338665,0.013042873702943325
2799760389437,0.7098808288574219,-9.767146110534668,1.1049240827560425,0.005057440605014563,-0.0015970865497365594,0.008783976547420025
2799761626750,0.7469909191131592,-9.767146110534668,1.1073182821273804,0.008251613937318325,-0.0071868896484375,0.0162370465695858
2799762864100,0.7170634269714355,-9.793481826782227,1.1336544752120972,0.004791259765625,-0.00452507846057415,0.01410759799182415
2799764101412,0.7218518257141113,-9.791088104248047,1.1049240827560425,0.0066545275039970875,-0.00452507846057415,0.0114457868039608
2799765338737,0.7242460250854492,-9.821015357971191,1.1073182821273804,0.00692070834338665,-0.004791259765625,0.01410759799182415
2799766576075,0.7194576263427734,-9.786299705505371,1.07379949092865,0.008517795242369175,-0.0053236219100654125,0.014373779296875
2799767813412,0.7410054206848145,-9.800664901733398,1.1109095811843872,0.0039927163161337376,0.0002661811013240367,0.008251613937318325
2799769050712,0.7350199222564697,-9.795876502990723,1.1216834783554077,0.0015970865497365594,0.0018632676219567657,0.0066545275039970875
2799770288100,0.7242460250854492,-9.787496566772461,1.1240776777267456,0.0013309054775163531,-0.0018632676219567657,0.012510511092841625
2799771525412,0.7457938194274902,-9.791088104248047,1.1288660764694214,0.005855984054505825,-0.00692070834338665,0.014906140975654125
2799772762725,0.7457938194274902,-9.787496566772461,1.1121066808700562,0.005057440605014563,-0.0015970865497365594,0.010913425125181675
2799774000075,0.7469909191131592,-9.824606895446777,1.1061211824417114,0.003460354171693325,0.0005323622026480734,0.00692070834338665
2799775237387,0.7194576263427734,-9.791088104248047,1.1085153818130493,0.0023956298828125,0.0015970865497365594,0.01463996060192585
2799776474725,0.7230489253997803,-9.75397777557373,1.1408370733261108,0.0063883461989462376,0.0021294488105922937,0.015172322280704975
2799777712062,0.7003040313720703,-9.769539833068848,1.1180921792984009,0.0037265352439135313,0.0005323622026480734,0.01171196810901165
2799778949387,0.7553706169128418,-9.801861763000488,1.1264718770980835,0.0013309054775163531,0.0005323622026480734,0.0090501569211483
2799780186700,0.7254431247711182,-9.783905029296875,1.113303780555725,0.0023956298828125,0.0010647244052961469,0.008517795242369175
2799781424037,0.689530074596405,-9.785102844238281,1.1348515748977661,0.0015970865497365594,0.0007985432748682797,0.0023956298828125
2799782661375,0.7242460250854492,-9.825803756713867,1.1408370733261108,0.0010647244052961469,0.0031941730994731188,0.005855984054505825
2799783898687,0.7206547260284424,-9.823410034179688,1.1073182821273804,0.0029279920272529125,0.0026618109550327063,0.00931633822619915
2799785136050,0.7433996200561523,-9.831789016723633,1.0833762884140015,0.0018632676219567657,0.0013309054775163531,0.010647243820130825
2799786373375,0.6883329749107361,-9.77552604675293,1.1061211824417114,0.0010647244052961469,0.0037265352439135313,0.0063883461989462376
2799787610687,0.6859387755393982,-9.805453300476074,1.1575965881347656,0.0063883461989462376,0.0021294488105922937,0.007453070487827063
2799788848037,0.6739677786827087,-9.81143856048584,1.1192892789840698,0.0023956298828125,0.0042588976211845875,0.005589802749454975
2799790085350,0.6799532771110535,-9.799468040466309,1.1228805780410767,0.0053236219100654125,0.0021294488105922937,0.006122165359556675
2799791322687,0.7194576263427734,-9.849745750427246,1.1240776777267456,0.0031941730994731188,0.0018632676219567657,0.007985432632267475
2799792560012,0.6943184733390808,-9.84256362915039,1.1025298833847046,-0.008517795242369175,0.007453070487827063,0.006122165359556675
2799793797350,0.7242460250854492,-9.837775230407715,1.1420341730117798,0.0,0.00692070834338665,0.005589802749454975
2799795034687,0.7577648162841797,-9.84495735168457,1.1528080701828003,0.0026618109550327063,0.0029279920272529125,0.008517795242369175
2799796272012,0.7026982307434082,-9.813833236694336,1.1204863786697388,0.0026618109550327063,0.00452507846057415,0.0063883461989462376
2799797509337,0.6979097723960876,-9.822212219238281,1.1013327836990356,0.0042588976211845875,0.0037265352439135313,0.0026618109550327063
2799798746675,0.7433996200561523,-9.81024169921875,1.0618284940719604,0.0005323622026480734,0.0042588976211845875,0.00452507846057415
2799799983987,0.7230489253997803,-9.813833236694336,1.115697979927063,-0.0013309054775163531,0.0071868896484375,0.0029279920272529125
2799801221325,0.7338228225708008,-9.803058624267578,1.1228805780410767,-0.0021294488105922937,0.010647243820130825,0.0031941730994731188
2799802458662,0.7098808288574219,-9.789891242980957,1.094150185585022,-0.0039927163161337376,0.008251613937318325,0.0042588976211845875
2799803695987,0.7206547260284424,-9.793481826782227,1.092953085899353,0.0007985432748682797,0.0029279920272529125,-0.0015970865497365594
2799804933325,0.7398083209991455,-9.832986831665039,1.091755986213684,-0.0005323622026480734,0.0071868896484375,-0.0015970865497365594
2799806170650,0.706289529800415,-9.785102844238281,1.1528080701828003,-0.0023956298828125,0.00984870083630085,0.0005323622026480734
2799807407987,0.7362170219421387,-9.805453300476074,1.115697979927063,0.0005323622026480734,0.0090501569211483,0.0026618109550327063
2799808645300,0.6631938815116882,-9.831789016723633,1.092953085899353,0.0023956298828125,0.007985432632267475,0.0018632676219567657
2799809882662,0.7026982307434082,-9.81024169921875,1.07379949092865,-0.004791259765625,0.006122165359556675,0.0005323622026480734
2799811119975,0.7829039692878723,-9.807847023010254,1.0977414846420288,-0.005589802749454975,0.010913425125181675,-0.0010647244052961469
2799812357287,0.6943184733390808,-9.816226959228516,1.1312602758407593,-0.0015970865497365594,0.00931633822619915,0.0053236219100654125
2799813594625,0.7254431247711182,-9.771934509277344,1.136048674583435,-0.0039927163161337376,0.00931633822619915,-0.0021294488105922937
2799814831962,0.7254431247711182,-9.849745750427246,1.1240776777267456,-0.0063883461989462376,0.00984870083630085,-0.0026618109550327063
2799816069275,0.751779317855835,-9.830592155456543,1.1468225717544556,-0.0053236219100654125,0.012776692397892475,-0.005589802749454975
2799817306612,0.7218518257141113,-9.792284965515137,1.0450690984725952,-0.006122165359556675,0.013042873702943325,-0.007453070487827063
2799818543950,0.7326257228851318,-9.821015357971191,1.1061211824417114,-0.0071868896484375,0.012776692397892475,-0.004791259765625
2799819781275,0.7374141216278076,-9.827000617980957,1.092953085899353,-0.0002661811013240367,0.01357523538172245,-0.0037265352439135313
2799821018600,0.7350199222564697,-9.804256439208984,1.07379949092865,-0.003460354171693325,0.0138414166867733,-0.0031941730994731188
2799822255950,0.7637503743171692,-9.823410034179688,1.1049240827560425,-0.005855984054505825,0.01597086526453495,-0.0007985432748682797
2799823493287,0.7553706169128418,-9.838972091674805,1.1276689767837524,-0.0066545275039970875,0.01224433071911335,-0.0002661811013240367
2799824730612,0.7338228225708008,-9.825803756713867,1.1192892789840698,-0.005057440605014563,0.0138414166867733,-0.0015970865497365594
2799825967937,0.751779317855835,-9.840168952941895,1.114500880241394,-0.0063883461989462376,0.01943122036755085,-0.008251613937318325
2799827205287,0.751779317855835,-9.803058624267578,1.1049240827560425,-0.005589802749454975,0.012776692397892475,-0.010381062515079975
2799828442612,0.7469909191131592,-9.841365814208984,1.1408370733261108,-0.005057440605014563,0.0157046839594841,-0.00452507846057415
2799829679925,0.7146692276000977,-9.852140426635742,1.0654197931289673,-0.0063883461989462376,0.01117960549890995,-0.004791259765625
2799830917250,0.751779317855835,-9.834183692932129,1.0761936902999878,-0.0090501569211483,0.0167694091796875,-0.01171196810901165
2799832154600,0.7469909191131592,-9.828198432922363,1.1432312726974487,-0.0090501569211483,0.014373779296875,-0.0090501569211483
2799833391900,0.7625532746315002,-9.789891242980957,1.1264718770980835,-0.0039927163161337376,0.0119781494140625,-0.0071868896484375
2799834629237,0.7433996200561523,-9.831789016723633,1.071405291557312,-0.0021294488105922937,0.01357523538172245,-0.0053236219100654125
2799835866587,0.7625532746315002,-9.805453300476074,1.0857704877853394,-0.0071868896484375,0.01463996060192585,-0.01224433071911335
2799837103925,0.7589619159698486,-9.77791976928711,1.1180921792984009,-0.0066545275039970875,0.01703559048473835,-0.010647243820130825
2799838341225,0.7745242714881897,-9.806650161743164,1.070208191871643,-0.005855984054505825,0.0157046839594841,-0.0066545275039970875
2799839578575,0.7350199222564697,-9.798270225524902,1.1240776777267456,-0.007985432632267475,0.01357523538172245,-0.007985432632267475
2799840815900,0.7433996200561523,-9.80904483795166,1.094150185585022,-0.006122165359556675,0.00958251953125,-0.0018632676219567657
2799842053225,0.7637503743171692,-9.841365814208984,1.0594342947006226,-0.0077192517928779125,0.01463996060192585,0.0
2799843290562,0.7601590752601624,-9.81263542175293,1.0582371950149536,-0.0114457868039608,0.01650322787463665,-0.0090501569211483
2799844527862,0.7242460250854492,-9.80904483795166,1.0857704877853394,-0.01171196810901165,0.015438503585755825,-0.0090501569211483
2799845765225,0.7613561749458313,-9.791088104248047,1.1228805780410767,-0.0090501569211483,0.0138414166867733,-0.0026618109550327063
2799847002562,0.7565677165985107,-9.801861763000488,1.1180921792984009,-0.008251613937318325,0.010381062515079975,0.0002661811013240367
2799848239887,0.7817068696022034,-9.786299705505371,1.1121066808700562,-0.0063883461989462376,0.0157046839594841,-0.005057440605014563
2799849477200,0.7529764175415039,-9.767146110534668,1.0881646871566772,-0.0023956298828125,0.01650322787463665,-0.0071868896484375
2799850714562,0.7242460250854492,-9.795876502990723,1.1336544752120972,-0.0077192517928779125,0.01650322787463665,-0.0053236219100654125
2799851951875,0.8056488633155823,-9.7791166305542,1.116895079612732,-0.00931633822619915,0.014906140975654125,-0.005057440605014563
2799853189200,0.7769184708595276,-9.803058624267578,1.0797849893569946,-0.005589802749454975,0.01224433071911335,-0.0023956298828125
2799854426537,0.7972691655158997,-9.804256439208984,1.1348515748977661,-0.006122165359556675,0.0114457868039608,-0.005589802749454975
2799855663862,0.768538773059845,-9.805453300476074,1.0833762884140015,-0.012776692397892475,0.0119781494140625,-0.00692070834338665
2799856901200,0.7529764175415039,-9.770737648010254,1.095347285270691,-0.00692070834338665,0.01597086526453495,-0.0090501569211483
2799858138525,0.7457938194274902,-9.771934509277344,1.1336544752120972,-0.007453070487827063,0.01703559048473835,-0.006122165359556675
2799859375850,0.767341673374176,-9.773131370544434,1.0654197931289673,-0.00452507846057415,0.014373779296875,-0.0023956298828125
2799860613187,0.7769184708595276,-9.817423820495605,1.1121066808700562,-0.0063883461989462376,0.01783413253724575,-0.00452507846057415
2799861850512,0.788889467716217,-9.764751434326172,1.1049240827560425,-0.00692070834338665,0.0162370465695858,-0.0063883461989462376
2799863087850,0.7493851184844971,-9.75158405303955,1.1109095811843872,-0.0063883461989462376,0.014906140975654125,-0.005057440605014563
2799864325162,0.8092401623725891,-9.774328231811523,1.1073182821273804,-0.0023956298828125,0.014373779296875,-0.005589802749454975
2799865562500,0.8188169598579407,-9.769539833068848,1.1264718770980835,-0.0039927163161337376,0.013309055007994175,-0.007985432632267475
2799866799825,0.7996633648872375,-9.77552604675293,1.0977414846420288,-0.0063883461989462376,0.01597086526453495,-0.010647243820130825
2799868037175,0.8032546639442444,-9.75397777557373,1.0785878896713257,-0.0039927163161337376,0.012776692397892475,-0.008783976547420025
2799869274487,0.7924807667732239,-9.77552604675293,1.1061211824417114,-0.0053236219100654125,0.01117960549890995,-0.0037265352439135313
2799870511825,0.8044517636299133,-9.744400978088379,1.1312602758407593,-0.0066545275039970875,0.0138414166867733,-0.0066545275039970875
2799871749162,0.7972691655158997,-9.77672290802002,1.095347285270691,-0.0018632676219567657,0.013309055007994175,-0.00984870083630085
2799872986500,0.7709329724311829,-9.781511306762695,1.0690110921859741,-0.0018632676219567657,0.013309055007994175,-0.0066545275039970875
2799874223825,0.8104372620582581,-9.791088104248047,1.1085153818130493,-0.0023956298828125,0.013042873702943325,-0.010114881210029125
2799875461162,0.8248025178909302,-9.77791976928711,1.116895079612732,-0.005589802749454975,0.013309055007994175,-0.012776692397892475
2799876698475,0.8020575642585754,-9.794679641723633,1.0654197931289673,-0.005057440605014563,0.00984870083630085,-0.00692070834338665
2799877935812,0.7841010689735413,-9.787496566772461,1.0570400953292847,-0.0023956298828125,0.01410759799182415,-0.007453070487827063
2799879173150,0.8176198601722717,-9.813833236694336,1.0761936902999878,-0.005057440605014563,0.013309055007994175,-0.0037265352439135313
2799880410475,0.8391677141189575,-9.785102844238281,1.0809820890426636,-0.006122165359556675,0.012510511092841625,-0.0077192517928779125
2799881647812,0.8032546639442444,-9.783905029296875,1.1097124814987183,-0.003460354171693325,0.010913425125181675,-0.0066545275039970875
2799882885150,0.8032546639442444,-9.7791166305542,1.113303780555725,-0.0013309054775163531,0.010647243820130825,-0.006122165359556675
2799884122475,0.8164227604866028,-9.787496566772461,1.0666168928146362,-0.0029279920272529125,0.014373779296875,-0.0114457868039608
2799885359787,0.8032546639442444,-9.768342971801758,1.1001356840133667,-0.0005323622026480734,0.012510511092841625,-0.006122165359556675
2799886597137,0.8415619134902954,-9.770737648010254,1.1240776777267456,-0.0018632676219567657,0.008517795242369175,-0.0023956298828125
2799887834475,0.7745242714881897,-9.767146110534668,1.116895079612732,-0.0026618109550327063,0.01357523538172245,-0.008251613937318325
2799889071800,0.7649474740028381,-9.774328231811523,1.049857497215271,-0.003460354171693325,0.01463996060192585,-0.0077192517928779125
2799890309112,0.8152256608009338,-9.800664901733398,1.0546458959579468,-0.003460354171693325,0.007985432632267475,-0.008783976547420025
2799891546437,0.8271967172622681,-9.768342971801758,1.1109095811843872,-0.0010647244052961469,0.0114457868039608,-0.007985432632267475
2799892783787,0.8164227604866028,-9.804256439208984,1.0881646871566772,0.0026618109550327063,0.0090501569211483,-0.0018632676219567657
2799894021100,0.8164227604866028,-9.768342971801758,1.0905588865280151,-0.0013309054775163531,0.010114881210029125,-0.0029279920272529125
2799895258437,0.7745242714881897,-9.761160850524902,1.1097124814987183,-0.0010647244052961469,0.0119781494140625,-0.004791259765625
2799896495800,0.8415619134902954,-9.822212219238281,1.0977414846420288,-0.0066545275039970875,0.008251613937318325,-0.005057440605014563
2799897733100,0.7996633648872375,-9.797073364257812,1.138442873954773,-0.00452507846057415,0.006122165359556675,-0.0042588976211845875
2799898970437,0.8080430626869202,-9.803058624267578,1.116895079612732,0.0015970865497365594,0.01224433071911335,-0.003460354171693325
2799900207762,0.829590916633606,-9.801861763000488,1.0905588865280151,-0.0002661811013240367,0.013042873702943325,-0.0053236219100654125
2799901445100,0.829590916633606,-9.791088104248047,1.1037269830703735,-0.0015970865497365594,0.007453070487827063,-0.010114881210029125
2799902682412,0.7972691655158997,-9.794679641723633,1.0749965906143188,-0.00452507846057415,0.007453070487827063,-0.00692070834338665
2799903919750,0.7852981686592102,-9.81024169921875,1.071405291557312,-0.0002661811013240367,0.0063883461989462376,-0.004791259765625
2799905157087,0.7924807667732239,-9.818621635437012,1.0881646871566772,-0.0013309054775163531,0.00984870083630085,-0.0005323622026480734
2799906394412,0.7996633648872375,-9.806650161743164,1.0893617868423462,-0.0010647244052961469,0.01650322787463665,-0.0023956298828125
2799907631737,0.8092401623725891,-9.822212219238281,1.1073182821273804,-0.0010647244052961469,0.012510511092841625,-0.007453070487827063
2799908869075,0.7984662652015686,-9.78869342803955,1.137245774269104,-0.0002661811013240367,0.0042588976211845875,-0.0039927163161337376
2799910106400,0.8236054182052612,-9.745597839355469,1.072602391242981,0.0037265352439135313,0.008783976547420025,-0.0023956298828125
2799911343737,0.8164227604866028,-9.774328231811523,1.0857704877853394,-0.00452507846057415,0.012510511092841625,-0.005057440605014563
2799912581062,0.8140285611152649,-9.773131370544434,1.1013327836990356,-0.0071868896484375,0.01117960549890995,-0.00692070834338665
2799913818412,0.7972691655158997,-9.77791976928711,1.092953085899353,-0.0021294488105922937,0.0090501569211483,-0.008251613937318325
2799915055712,0.8415619134902954,-9.783905029296875,1.1073182821273804,0.0021294488105922937,0.0066545275039970875,-0.004791259765625
2799916293062,0.7864952683448792,-9.789891242980957,1.0857704877853394,0.0015970865497365594,0.007453070487827063,-0.004791259765625
2799917530387,0.8248025178909302,-9.797073364257812,1.0785878896713257,0.0013309054775163531,0.0119781494140625,-0.005589802749454975
2799918767725,0.7876923680305481,-9.785102844238281,1.0462661981582642,0.0023956298828125,0.010114881210029125,-0.0010647244052961469
2799920005062,0.8068459630012512,-9.774328231811523,1.1073182821273804,0.0010647244052961469,0.0031941730994731188,0.0005323622026480734
2799921242387,0.829590916633606,-9.798270225524902,1.1085153818130493,0.005057440605014563,0.0023956298828125,-0.0026618109550327063
2799922479700,0.8463503122329712,-9.807847023010254,1.0426748991012573,0.0010647244052961469,0.005057440605014563,-0.003460354171693325
2799923717025,0.8176198601722717,-9.825803756713867,1.0905588865280151,0.0,0.008251613937318325,-0.0013309054775163531
2799924954350,0.8080430626869202,-9.78869342803955,1.1073182821273804,0.0037265352439135313,0.003460354171693325,-0.003460354171693325
2799926191712,0.8307880163192749,-9.800664901733398,1.1097124814987183,-0.0010647244052961469,0.00452507846057415,-0.00452507846057415
2799927429037,0.8379706144332886,-9.765949249267578,1.1180921792984009,-0.0005323622026480734,0.007453070487827063,-0.005589802749454975
2799928666375,0.8176198601722717,-9.763554573059082,1.1049240827560425,0.0015970865497365594,0.007453070487827063,-0.005589802749454975
2799929903687,0.7876923680305481,-9.781511306762695,1.1121066808700562,0.0029279920272529125,0.00692070834338665,-0.005589802749454975
2799931141025,0.849941611289978,-9.785102844238281,1.1013327836990356,0.0039927163161337376,0.0039927163161337376,-0.00452507846057415
2799932378350,0.8104372620582581,-9.804256439208984,1.0821791887283325,-0.0002661811013240367,0.006122165359556675,-0.003460354171693325
2799933615687,0.8092401623725891,-9.77791976928711,1.0522516965866089,0.0013309054775163531,0.007453070487827063,-0.00452507846057415
2799934853000,0.8092401623725891,-9.794679641723633,1.114500880241394,0.004791259765625,0.0037265352439135313,-0.005855984054505825
2799936090362,0.8331822156906128,-9.824606895446777,1.072602391242981,0.0066545275039970875,0.007453070487827063,-0.0039927163161337376
2799937327662,0.8475474119186401,-9.795876502990723,1.0606313943862915,0.0018632676219567657,0.0063883461989462376,-0.0042588976211845875
2799938565000,0.8140285611152649,-9.804256439208984,1.0630255937576294,0.0026618109550327063,0.007985432632267475,-0.0042588976211845875
2799939802337,0.8092401623725891,-9.824606895446777,1.071405291557312,0.0042588976211845875,0.0053236219100654125,-0.0015970865497365594
2799941039675,0.790086567401886,-9.805453300476074,1.1013327836990356,0.0021294488105922937,0.0015970865497365594,-0.0026618109550327063
2799942276987,0.8319851160049438,-9.781511306762695,1.1025298833847046,0.0042588976211845875,0.0015970865497365594,0.0005323622026480734
2799943514312,0.8367735147476196,-9.81263542175293,1.1288660764694214,0.0029279920272529125,0.0037265352439135313,0.0005323622026480734
2799944751650,0.8032546639442444,-9.81143856048584,1.0630255937576294,0.0015970865497365594,0.0031941730994731188,-0.005855984054505825
2799945988987,0.8583213090896606,-9.78869342803955,1.1121066808700562,0.003460354171693325,0.0077192517928779125,-0.0018632676219567657
2799947226300,0.8152256608009338,-9.794679641723633,1.0630255937576294,0.003460354171693325,0.0031941730994731188,0.0002661811013240367
2799948463637,0.790086567401886,-9.773131370544434,1.0857704877853394,0.0002661811013240367,0.0015970865497365594,-0.003460354171693325
2799949700962,0.8475474119186401,-9.81024169921875,1.0558429956436157,0.0037265352439135313,0.0007985432748682797,-0.0053236219100654125
2799950938312,0.8224083185195923,-9.803058624267578,1.0809820890426636,0.0021294488105922937,0.0023956298828125,-0.0015970865497365594
2799952175625,0.8032546639442444,-9.840168952941895,1.0773907899856567,-0.0023956298828125,0.0007985432748682797,0.0026618109550327063
2799953412975,0.8008604645729065,-9.829395294189453,1.092953085899353,0.008251613937318325,0.0002661811013240367,0.0005323622026480734
2799954650287,0.788889467716217,-9.756372451782227,1.1264718770980835,0.0031941730994731188,0.0023956298828125,-0.006122165359556675
2799955887625,0.8080430626869202,-9.807847023010254,1.0989385843276978,0.005855984054505825,0.0018632676219567657,-0.0015970865497365594
2799957124950,0.8188169598579407,-9.795876502990723,1.1025298833847046,0.0015970865497365594,0.0018632676219567657,0.0015970865497365594
2799958362300,0.7841010689735413,-9.770737648010254,1.0809820890426636,0.0039927163161337376,0.0010647244052961469,-0.0029279920272529125
2799959599625,0.7948749661445618,-9.77672290802002,1.1300631761550903,0.00452507846057415,0.004791259765625,0.005855984054505825
2799960836950,0.812831461429596,-9.837775230407715,1.0534487962722778,0.0026618109550327063,0.005057440605014563,-0.0002661811013240367
2799962074275,0.7936778664588928,-9.758766174316406,1.05105459690094,0.0026618109550327063,0.003460354171693325,0.006122165359556675
2799963311600,0.788889467716217,-9.81143856048584,1.115697979927063,0.00931633822619915,0.006122165359556675,0.0010647244052961469
2799964548937,0.8307880163192749,-9.77791976928711,1.1037269830703735,0.0037265352439135313,0.005589802749454975,-0.0013309054775163531
2799965786275,0.8427590131759644,-9.799468040466309,1.1025298833847046,0.0021294488105922937,-0.0005323622026480734,0.0007985432748682797
2799967023587,0.7769184708595276,-9.767146110534668,1.1025298833847046,0.0029279920272529125,0.0007985432748682797,0.0042588976211845875
2799968260925,0.8092401623725891,-9.774328231811523,1.07379949092865,0.0042588976211845875,0.0037265352439135313,0.0002661811013240367
2799969498262,0.8152256608009338,-9.786299705505371,1.07379949092865,0.005589802749454975,0.0010647244052961469,-0.0005323622026480734
2799970735587,0.8451532125473022,-9.821015357971191,1.049857497215271,0.00692070834338665,0.0002661811013240367,0.0013309054775163531
2799971972937,0.8092401623725891,-9.828198432922363,1.0761936902999878,0.0077192517928779125,-0.0021294488105922937,0.0031941730994731188
2799973210250,0.8176198601722717,-9.821015357971191,1.1228805780410767,0.0077192517928779125,0.0002661811013240367,0.0010647244052961469
2799974447600,0.767341673374176,-9.817423820495605,1.1001356840133667,0.008783976547420025,-0.0005323622026480734,-0.0002661811013240367
2799975684912,0.8164227604866028,-9.785102844238281,1.0606313943862915,0.0053236219100654125,-0.00452507846057415,0.0018632676219567657
2799976922250,0.8391677141189575,-9.819818496704102,1.0642226934432983,0.0031941730994731188,0.0021294488105922937,0.0013309054775163531
2799978159575,0.8104372620582581,-9.77791976928711,1.1216834783554077,0.003460354171693325,0.0026618109550327063,0.0031941730994731188
2799979396900,0.7793126702308655,-9.77791976928711,1.114500880241394,0.0029279920272529125,0.0026618109550327063,-0.0013309054775163531
2799980634237,0.8188169598579407,-9.797073364257812,1.1061211824417114,0.0071868896484375,-0.0002661811013240367,0.0031941730994731188
2799981871587,0.8248025178909302,-9.762357711791992,1.0857704877853394,0.0039927163161337376,-0.0015970865497365594,0.00452507846057415
2799983108900,0.8188169598579407,-9.805453300476074,1.0582371950149536,0.005057440605014563,0.0018632676219567657,0.0029279920272529125
2799984346225,0.8379706144332886,-9.827000617980957,1.1264718770980835,0.005057440605014563,0.0005323622026480734,0.0005323622026480734
2799985583550,0.7984662652015686,-9.783905029296875,1.1061211824417114,0.0053236219100654125,-0.0018632676219567657,0.0018632676219567657
2799986820900,0.7984662652015686,-9.800664901733398,1.1180921792984009,0.0023956298828125,-0.0029279920272529125,0.006122165359556675
2799988058225,0.8068459630012512,-9.785102844238281,1.1504138708114624,0.0029279920272529125,0.0029279920272529125,0.0023956298828125
2799989295550,0.8056488633155823,-9.795876502990723,1.0905588865280151,0.0077192517928779125,-0.0026618109550327063,0.0031941730994731188
2799990532887,0.8427590131759644,-9.803058624267578,1.115697979927063,0.0039927163161337376,-0.0023956298828125,0.0023956298828125
2799991770225,0.8212112188339233,-9.824606895446777,1.1049240827560425,0.0053236219100654125,-0.0002661811013240367,0.005855984054505825
2799993007550,0.8068459630012512,-9.792284965515137,1.0989385843276978,0.0071868896484375,0.0,-0.0002661811013240367
2799994244887,0.8259996175765991,-9.77791976928711,1.0869675874710083,0.00452507846057415,0.0023956298828125,0.0029279920272529125
2799995482200,0.7637503743171692,-9.805453300476074,1.0654197931289673,0.008517795242369175,0.0,0.008251613937318325
2799996719550,0.8020575642585754,-9.797073364257812,1.1109095811843872,0.007453070487827063,-0.0053236219100654125,0.0029279920272529125
2799997956850,0.8152256608009338,-9.771934509277344,1.092953085899353,0.0039927163161337376,-0.0039927163161337376,0.0026618109550327063
2799999194200,0.7805097699165344,-9.847352027893066,1.0678139925003052,0.00984870083630085,-0.0002661811013240367,0.0013309054775163531
2800000431537,0.8104372620582581,-9.798270225524902,1.1228805780410767,0.00931633822619915,-0.0002661811013240367,0.0031941730994731188
2800001668875,0.7912836670875549,-9.805453300476074,1.0869675874710083,0.00931633822619915,-0.0026618109550327063,0.007985432632267475
2800002906200,0.8259996175765991,-9.77672290802002,1.0606313943862915,0.0071868896484375,-0.003460354171693325,0.003460354171693325
2800004143537,0.8236054182052612,-9.871294021606445,1.0558429956436157,0.0077192517928779125,-0.003460354171693325,0.005057440605014563
2800005380850,0.8020575642585754,-9.81024169921875,1.0761936902999878,0.00931633822619915,-0.007985432632267475,0.0066545275039970875
2800006618175,0.8092401623725891,-9.818621635437012,1.1049240827560425,0.00452507846057415,-0.0026618109550327063,0.00931633822619915
2800007855512,0.7924807667732239,-9.840168952941895,1.0797849893569946,-0.0013309054775163531,0.0,0.007453070487827063
2800009092850,0.8020575642585754,-9.848548889160156,1.1204863786697388,0.0053236219100654125,-0.0018632676219567657,0.0053236219100654125
2800010330162,0.8188169598579407,-9.797073364257812,1.0809820890426636,0.0071868896484375,-0.0010647244052961469,0.005855984054505825
2800011567512,0.812831461429596,-9.829395294189453,1.0833762884140015,0.005855984054505825,-0.0090501569211483,0.010647243820130825
2800012804837,0.7852981686592102,-9.77672290802002,1.0977414846420288,0.003460354171693325,-0.0063883461989462376,0.0071868896484375
2800014042162,0.8020575642585754,-9.852140426635742,1.116895079612732,0.0029279920272529125,-0.0005323622026480734,0.00452507846057415
2800015279512,0.8056488633155823,-9.829395294189453,1.070208191871643,0.0023956298828125,-0.0039927163161337376,0.0071868896484375
2800016516825,0.8200140595436096,-9.829395294189453,1.1121066808700562,0.003460354171693325,-0.0026618109550327063,0.0090501569211483
2800017754162,0.7960720658302307,-9.84376049041748,1.07379949092865,0.01224433071911335,-0.006122165359556675,0.00984870083630085
2800018991487,0.8188169598579407,-9.831789016723633,1.1180921792984009,0.007453070487827063,-0.01117960549890995,0.0066545275039970875
2800020228812,0.8259996175765991,-9.841365814208984,1.116895079612732,0.0007985432748682797,-0.0071868896484375,0.007453070487827063
2800021466137,0.8020575642585754,-9.81143856048584,1.1456254720687866,0.005057440605014563,-0.0018632676219567657,0.0071868896484375
2800022703487,0.8092401623725891,-9.805453300476074,1.1025298833847046,0.006122165359556675,-0.003460354171693325,0.010913425125181675
2800023940800,0.7829039692878723,-9.84615421295166,1.0821791887283325,0.0077192517928779125,-0.004791259765625,0.010913425125181675
2800025178150,0.7529764175415039,-9.828198432922363,1.07379949092865,0.007453070487827063,-0.005589802749454975,0.013309055007994175
2800026415500,0.8068459630012512,-9.786299705505371,1.072602391242981,0.003460354171693325,-0.0063883461989462376,0.0077192517928779125
2800027652800,0.7649474740028381,-9.783905029296875,1.1013327836990356,0.0053236219100654125,-0.0042588976211845875,0.005057440605014563
2800028890137,0.8200140595436096,-9.850942611694336,1.1408370733261108,0.005589802749454975,-0.004791259765625,0.008783976547420025
2800030127462,0.8164227604866028,-9.800664901733398,1.1121066808700562,0.0029279920272529125,-0.0077192517928779125,0.00984870083630085
2800031364800,0.7984662652015686,-9.789891242980957,1.136048674583435,0.00452507846057415,-0.006122165359556675,0.010913425125181675
2800032602150,0.7996633648872375,-9.77552604675293,1.1097124814987183,0.0029279920272529125,-0.0066545275039970875,0.008517795242369175
2800033839462,0.8044517636299133,-9.783905029296875,1.137245774269104,0.0,-0.00452507846057415,0.010381062515079975
2800035076800,0.8068459630012512,-9.822212219238281,1.0965443849563599,0.0029279920272529125,-0.010114881210029125,0.013309055007994175
2800036314125,0.8415619134902954,-9.84376049041748,1.114500880241394,0.0063883461989462376,-0.00931633822619915,0.007453070487827063
2800037551462,0.828393816947937,-9.77552604675293,1.1001356840133667,0.005589802749454975,-0.007453070487827063,0.0114457868039608
2800038788787,0.7984662652015686,-9.840168952941895,1.0965443849563599,0.0066545275039970875,-0.00958251953125,0.0119781494140625
2800040026100,0.812831461429596,-9.830592155456543,1.095347285270691,0.00958251953125,-0.00692070834338665,0.00984870083630085
2800041263437,0.7960720658302307,-9.792284965515137,1.0522516965866089,0.00692070834338665,-0.008517795242369175,0.006122165359556675
2800042500787,0.8152256608009338,-9.771934509277344,1.091755986213684,0.006122165359556675,-0.008251613937318325,0.006122165359556675
2800043738112,0.7841010689735413,-9.803058624267578,1.1049240827560425,0.0037265352439135313,-0.00984870083630085,0.008783976547420025
2800044975437,0.7924807667732239,-9.822212219238281,1.1276689767837524,0.0031941730994731188,-0.008783976547420025,0.00931633822619915
2800046212775,0.7841010689735413,-9.789891242980957,1.071405291557312,0.00931633822619915,-0.0077192517928779125,0.008783976547420025
2800047450100,0.7577648162841797,-9.813833236694336,1.1037269830703735,0.007985432632267475,-0.0071868896484375,0.010381062515079975
2800048687425,0.8080430626869202,-9.827000617980957,1.1228805780410767,0.0039927163161337376,-0.007985432632267475,0.008783976547420025
2800049924762,0.7960720658302307,-9.824606895446777,1.0773907899856567,0.0031941730994731188,-0.00931633822619915,0.0077192517928779125
2800051162100,0.8224083185195923,-9.81143856048584,1.0881646871566772,0.00931633822619915,-0.010913425125181675,0.007985432632267475
2800052399425,0.8080430626869202,-9.84615421295166,1.072602391242981,0.008251613937318325,-0.005855984054505825,0.010381062515079975
2800053636762,0.7912836670875549,-9.80904483795166,1.113303780555725,0.007453070487827063,-0.008783976547420025,0.008251613937318325
2800054874087,0.767341673374176,-9.853337287902832,1.0857704877853394,0.008517795242369175,-0.010913425125181675,0.00984870083630085
2800056111412,0.7433996200561523,-9.817423820495605,1.1025298833847046,0.008783976547420025,-0.008783976547420025,0.01463996060192585
2800057348750,0.7864952683448792,-9.836577415466309,1.095347285270691,0.0053236219100654125,-0.01224433071911335,0.015172322280704975
2800058586087,0.7936778664588928,-9.818621635437012,1.137245774269104,0.0042588976211845875,-0.008517795242369175,0.012510511092841625
2800059823400,0.8044517636299133,-9.829395294189453,1.092953085899353,0.0023956298828125,-0.0026618109550327063,0.0119781494140625
2800061060737,0.7625532746315002,-9.830592155456543,1.0690110921859741,0.004791259765625,-0.0066545275039970875,0.0119781494140625
2800062298075,0.7960720658302307,-9.836577415466309,1.0785878896713257,0.0053236219100654125,-0.00692070834338665,0.010381062515079975
2800063535412,0.790086567401886,-9.781511306762695,1.1432312726974487,0.0042588976211845875,-0.010647243820130825,0.01357523538172245
2800064772750,0.7912836670875549,-9.762357711791992,1.115697979927063,0.0090501569211483,-0.0090501569211483,0.00958251953125
2800066010075,0.7829039692878723,-9.797073364257812,1.1049240827560425,0.01224433071911335,-0.0063883461989462376,0.0090501569211483
2800067247412,0.788889467716217,-9.806650161743164,1.1061211824417114,0.0053236219100654125,-0.0053236219100654125,0.0114457868039608
2800068484725,0.7697358727455139,-9.819818496704102,1.113303780555725,0.005855984054505825,-0.007985432632267475,0.013042873702943325
2800069722087,0.788889467716217,-9.785102844238281,1.0833762884140015,0.005589802749454975,-0.008783976547420025,0.010381062515079975
2800070959412,0.7972691655158997,-9.781511306762695,1.1097124814987183,0.004791259765625,-0.006122165359556675,0.013309055007994175
2800072196737,0.7493851184844971,-9.791088104248047,1.1348515748977661,0.0077192517928779125,-0.0063883461989462376,0.010913425125181675
2800073434062,0.788889467716217,-9.77791976928711,1.0989385843276978,0.0053236219100654125,-0.0021294488105922937,0.014373779296875
2800074671387,0.8020575642585754,-9.77791976928711,1.1013327836990356,0.0018632676219567657,-0.010381062515079975,0.00931633822619915
2800075908700,0.7852981686592102,-9.825803756713867,1.1216834783554077,0.005855984054505825,-0.005057440605014563,0.008251613937318325
2800077146037,0.7793126702308655,-9.794679641723633,1.1324573755264282,0.005855984054505825,-0.0037265352439135313,0.012776692397892475
2800078383375,0.7625532746315002,-9.828198432922363,1.136048674583435,0.005589802749454975,-0.005589802749454975,0.012776692397892475
2800079620712,0.7829039692878723,-9.774328231811523,1.1109095811843872,-0.0002661811013240367,-0.0066545275039970875,0.0066545275039970875
2800080858050,0.7697358727455139,-9.794679641723633,1.1408370733261108,0.0026618109550327063,-0.00692070834338665,0.008783976547420025
2800082095387,0.7649474740028381,-9.773131370544434,1.0965443849563599,0.0039927163161337376,-0.0063883461989462376,0.010913425125181675
2800083332700,0.7733271718025208,-9.823410034179688,1.1408370733261108,0.0026618109550327063,-0.0031941730994731188,0.01117960549890995
2800084570050,0.8188169598579407,-9.789891242980957,1.139639973640442,0.005855984054505825,0.0013309054775163531,0.010381062515079975
2800085807362,0.8331822156906128,-9.824606895446777,1.094150185585022,0.0029279920272529125,-0.005589802749454975,0.01410759799182415
2800087044700,0.7721300721168518,-9.829395294189453,1.1037269830703735,0.003460354171693325,-0.006122165359556675,0.00984870083630085
2800088282025,0.7565677165985107,-9.819818496704102,1.1300631761550903,0.007453070487827063,-0.0031941730994731188,0.01171196810901165
2800089519362,0.7565677165985107,-9.823410034179688,1.1037269830703735,0.004791259765625,-0.0066545275039970875,0.010381062515079975
2800090756687,0.8200140595436096,-9.827000617980957,1.1061211824417114,0.0031941730994731188,-0.004791259765625,0.01171196810901165
2800091994025,0.7709329724311829,-9.81024169921875,1.1013327836990356,0.005589802749454975,-0.0026618109550327063,0.00958251953125
2800093231362,0.7697358727455139,-9.824606895446777,1.1073182821273804,0.0,-0.00452507846057415,0.0071868896484375
2800094468675,0.7793126702308655,-9.848548889160156,1.0666168928146362,0.0007985432748682797,-0.0053236219100654125,0.0063883461989462376
2800095706012,0.828393816947937,-9.81024169921875,1.0821791887283325,0.0071868896484375,-0.0053236219100654125,0.0119781494140625
2800096943350,0.7565677165985107,-9.793481826782227,1.1240776777267456,0.0037265352439135313,-0.00452507846057415,0.0138414166867733
2800098180687,0.8044517636299133,-9.800664901733398,1.1073182821273804,0.0039927163161337376,-0.007453070487827063,0.007985432632267475
2800099418000,0.8044517636299133,-9.799468040466309,1.1204863786697388,0.0013309054775163531,-0.0053236219100654125,0.010114881210029125
2800100655312,0.767341673374176,-9.832986831665039,1.1456254720687866,-0.0005323622026480734,-0.0026618109550327063,0.01463996060192585
2800101892662,0.7613561749458313,-9.822212219238281,1.0977414846420288,0.0010647244052961469,-0.0042588976211845875,0.013042873702943325
2800103129987,0.7817068696022034,-9.81263542175293,1.1025298833847046,0.0015970865497365594,-0.0071868896484375,0.0090501569211483
2800104367325,0.7757213711738586,-9.801861763000488,1.091755986213684,0.0015970865497365594,-0.0114457868039608,0.01171196810901165
2800105604662,0.7637503743171692,-9.786299705505371,1.1049240827560425,0.0029279920272529125,-0.0053236219100654125,0.00931633822619915
2800106842000,0.7469909191131592,-9.84256362915039,1.1061211824417114,-0.0015970865497365594,0.0023956298828125,0.00958251953125
2800108079325,0.7577648162841797,-9.813833236694336,1.0797849893569946,0.0015970865497365594,-0.0053236219100654125,0.014906140975654125
2800109316662,0.7553706169128418,-9.81143856048584,1.0881646871566772,0.0015970865497365594,-0.005855984054505825,0.00958251953125
2800110554000,0.7541735172271729,-9.81143856048584,1.1228805780410767,0.0018632676219567657,-0.0029279920272529125,0.013042873702943325
2800111791325,0.7733271718025208,-9.84256362915039,1.072602391242981,0.0005323622026480734,-0.0015970865497365594,0.0157046839594841
2800113028650,0.8212112188339233,-9.81263542175293,1.1001356840133667,-0.007453070487827063,0.0010647244052961469,0.00692070834338665
2800114265987,0.7709329724311829,-9.837775230407715,1.138442873954773,-0.0042588976211845875,-0.0005323622026480734,0.0042588976211845875
2800115503300,0.7817068696022034,-9.837775230407715,1.0845733880996704,0.0005323622026480734,-0.0007985432748682797,0.010114881210029125
2800116740650,0.7565677165985107,-9.823410034179688,1.1240776777267456,0.0015970865497365594,-0.0039927163161337376,0.0138414166867733
2800117977962,0.7625532746315002,-9.825803756713867,1.115697979927063,0.0021294488105922937,-0.0037265352439135313,0.0138414166867733
2800119215300,0.750582218170166,-9.836577415466309,1.1420341730117798,-0.0013309054775163531,-0.00452507846057415,0.010913425125181675
2800120452637,0.7589619159698486,-9.819818496704102,1.1109095811843872,-0.0010647244052961469,-0.0005323622026480734,0.008251613937318325
2800121689975,0.7733271718025208,-9.80904483795166,1.137245774269104,0.0018632676219567657,-0.0010647244052961469,0.00984870083630085
2800122927300,0.7577648162841797,-9.850942611694336,1.1276689767837524,0.0026618109550327063,-0.0015970865497365594,0.010114881210029125
2800124164625,0.7876923680305481,-9.792284965515137,1.1587936878204346,0.0005323622026480734,-0.0007985432748682797,0.0090501569211483
2800125401950,0.7613561749458313,-9.799468040466309,1.1228805780410767,-0.0010647244052961469,0.0002661811013240367,0.00931633822619915
2800126639275,0.7529764175415039,-9.804256439208984,1.1587936878204346,0.0,-0.0002661811013240367,0.00692070834338665
2800127876625,0.7757213711738586,-9.799468040466309,1.1683704853057861,-0.0015970865497365594,0.0013309054775163531,0.0007985432748682797
2800129113962,0.7709329724311829,-9.737218856811523,1.1504138708114624,-0.0010647244052961469,0.0023956298828125,0.008783976547420025
2800130351287,0.7960720658302307,-9.77552604675293,1.0905588865280151,0.0021294488105922937,-0.0053236219100654125,0.010381062515079975
2800131588612,0.7924807667732239,-9.793481826782227,1.1097124814987183,0.0039927163161337376,-0.005855984054505825,0.007985432632267475
2800132825962,0.8104372620582581,-9.799468040466309,1.0977414846420288,-0.0053236219100654125,-0.0023956298828125,0.014373779296875
2800134063262,0.7721300721168518,-9.783905029296875,1.1552022695541382,-0.0042588976211845875,0.003460354171693325,0.00958251953125
2800135300625,0.7541735172271729,-9.789891242980957,1.114500880241394,-0.0005323622026480734,0.003460354171693325,0.012510511092841625
2800136537937,0.7589619159698486,-9.792284965515137,1.1049240827560425,0.0026618109550327063,0.0031941730994731188,0.008783976547420025
2800137775300,0.788889467716217,-9.786299705505371,1.0785878896713257,0.0039927163161337376,-0.0021294488105922937,0.014906140975654125
2800139012600,0.7936778664588928,-9.822212219238281,1.0785878896713257,-0.0005323622026480734,0.0005323622026480734,0.013042873702943325
2800140249950,0.7553706169128418,-9.804256439208984,1.1228805780410767,-0.0013309054775163531,-0.003460354171693325,0.010381062515079975
2800141487275,0.7936778664588928,-9.793481826782227,1.1408370733261108,0.0042588976211845875,-0.0063883461989462376,0.010381062515079975
2800142724612,0.7781155705451965,-9.828198432922363,1.1492167711257935,0.0002661811013240367,0.003460354171693325,0.0114457868039608
2800143961925,0.7613561749458313,-9.817423820495605,1.1276689767837524,0.0005323622026480734,0.0013309054775163531,0.0077192517928779125
2800145199250,0.7936778664588928,-9.785102844238281,1.1504138708114624,0.0013309054775163531,-0.0015970865497365594,0.0114457868039608
2800146436600,0.8164227604866028,-9.797073364257812,1.095347285270691,-0.0010647244052961469,-0.0005323622026480734,0.010381062515079975
2800147673925,0.7972691655158997,-9.797073364257812,1.114500880241394,0.0,0.0010647244052961469,0.013309055007994175
2800148911250,0.7817068696022034,-9.763554573059082,1.1480196714401245,0.004791259765625,-0.0029279920272529125,0.005589802749454975
2800150148600,0.7960720658302307,-9.804256439208984,1.1480196714401245,0.0007985432748682797,0.0002661811013240367,0.0037265352439135313
2800151385925,0.7852981686592102,-9.793481826782227,1.0989385843276978,-0.0007985432748682797,0.0010647244052961469,0.010381062515079975
2800152623250,0.8080430626869202,-9.774328231811523,1.114500880241394,0.0063883461989462376,-0.0031941730994731188,0.008783976547420025
2800153860587,0.7876923680305481,-9.816226959228516,1.1073182821273804,0.0018632676219567657,-0.0013309054775163531,0.005057440605014563
2800155097900,0.7637503743171692,-9.761160850524902,1.0965443849563599,0.0002661811013240367,0.0015970865497365594,0.01117960549890995
2800156335237,0.8008604645729065,-9.768342971801758,1.1240776777267456,0.0042588976211845875,0.0007985432748682797,0.00692070834338665
2800157572575,0.7661445736885071,-9.789891242980957,1.1408370733261108,0.0002661811013240367,0.0,0.0042588976211845875
2800158809900,0.7697358727455139,-9.769539833068848,1.114500880241394,0.00452507846057415,0.0,0.005589802749454975
2800160047237,0.768538773059845,-9.816226959228516,1.1288660764694214,0.0031941730994731188,-0.0037265352439135313,0.006122165359556675
2800161284562,0.7972691655158997,-9.798270225524902,1.1312602758407593,0.0026618109550327063,-0.0021294488105922937,0.007453070487827063
2800162521900,0.8068459630012512,-9.785102844238281,1.1288660764694214,0.0063883461989462376,0.0031941730994731188,0.0031941730994731188
2800163759225,0.7661445736885071,-9.769539833068848,1.1336544752120972,0.0037265352439135313,0.0015970865497365594,0.0023956298828125
2800164996575,0.7984662652015686,-9.774328231811523,1.137245774269104,0.0005323622026480734,-0.0021294488105922937,0.010381062515079975
2800166233912,0.7661445736885071,-9.768342971801758,1.1444283723831177,0.006122165359556675,-0.0013309054775163531,0.00692070834338665
2800167471212,0.7613561749458313,-9.733627319335938,1.171961784362793,0.007453070487827063,0.0,0.0039927163161337376
2800168708562,0.7541735172271729,-9.799468040466309,1.1049240827560425,0.003460354171693325,-0.0007985432748682797,0.008251613937318325
2800169945875,0.7649474740028381,-9.791088104248047,1.1025298833847046,0.003460354171693325,-0.0013309054775163531,0.005057440605014563
2800171183212,0.7817068696022034,-9.75158405303955,1.1336544752120972,0.0039927163161337376,-0.0018632676219567657,0.008251613937318325
2800172420550,0.768538773059845,-9.81263542175293,1.1312602758407593,0.0039927163161337376,-0.0018632676219567657,0.0053236219100654125
2800173657887,0.751779317855835,-9.7791166305542,1.1121066808700562,0.0018632676219567657,0.0005323622026480734,0.0026618109550327063
2800174895225,0.767341673374176,-9.793481826782227,1.139639973640442,0.0018632676219567657,0.007453070487827063,0.0010647244052961469
2800176132550,0.8068459630012512,-9.799468040466309,1.1432312726974487,0.007985432632267475,0.0005323622026480734,0.008251613937318325
2800177369887,0.7841010689735413,-9.77672290802002,1.1049240827560425,0.01224433071911335,0.0005323622026480734,0.005855984054505825
2800178607212,0.7972691655158997,-9.797073364257812,1.1468225717544556,0.003460354171693325,-0.0018632676219567657,0.00958251953125
2800179844537,0.767341673374176,-9.789891242980957,1.0809820890426636,0.0037265352439135313,-0.004791259765625,0.007453070487827063
2800181081862,0.7972691655158997,-9.797073364257812,1.139639973640442,0.0039927163161337376,0.0031941730994731188,0.0023956298828125
2800182319200,0.7793126702308655,-9.789891242980957,1.1480196714401245,0.0023956298828125,0.0029279920272529125,0.00452507846057415
2800183556537,0.7876923680305481,-9.801861763000488,1.1408370733261108,0.005589802749454975,0.0018632676219567657,0.0037265352439135313
2800184793862,0.7529764175415039,-9.795876502990723,1.170764684677124,0.0002661811013240367,0.0002661811013240367,0.0005323622026480734
2800186031212,0.7793126702308655,-9.797073364257812,1.0833762884140015,0.0039927163161337376,0.0029279920272529125,0.0031941730994731188
2800187268525,0.7876923680305481,-9.794679641723633,1.1121066808700562,0.00452507846057415,0.0042588976211845875,0.0063883461989462376
2800188505862,0.8092401623725891,-9.805453300476074,1.1312602758407593,-0.0005323622026480734,0.004791259765625,0.0013309054775163531
2800189743212,0.7841010689735413,-9.792284965515137,1.114500880241394,0.0018632676219567657,0.0005323622026480734,0.0010647244052961469
2800190980512,0.788889467716217,-9.770737648010254,1.1121066808700562,0.0042588976211845875,0.0023956298828125,0.008251613937318325
2800192217862,0.7422025203704834,-9.804256439208984,1.0965443849563599,0.0010647244052961469,0.0005323622026480734,0.006122165359556675
2800193455187,0.751779317855835,-9.799468040466309,1.1288660764694214,0.0023956298828125,0.0031941730994731188,0.005057440605014563
2800194692500,0.8068459630012512,-9.828198432922363,1.0809820890426636,0.0018632676219567657,0.005589802749454975,0.0037265352439135313
2800195929837,0.750582218170166,-9.837775230407715,1.1121066808700562,-0.0023956298828125,0.0023956298828125,0.0039927163161337376
2800197167162,0.7852981686592102,-9.832986831665039,1.1504138708114624,-0.0015970865497365594,-0.0026618109550327063,0.005855984054505825
2800198404525,0.7781155705451965,-9.858125686645508,1.0965443849563599,-0.0018632676219567657,0.00452507846057415,0.0063883461989462376
2800199641850,0.7625532746315002,-9.873687744140625,1.116895079612732,-0.0010647244052961469,0.006122165359556675,0.00984870083630085
2800200879162,0.790086567401886,-9.84256362915039,1.1252747774124146,-0.0002661811013240367,0.005057440605014563,0.0021294488105922937
2800202116500,0.750582218170166,-9.81143856048584,1.1073182821273804,0.0005323622026480734,0.0039927163161337376,0.003460354171693325
2800203353837,0.7817068696022034,-9.854534149169922,1.136048674583435,-0.004791259765625,0.0002661811013240367,0.0037265352439135313
2800204591175,0.8020575642585754,-9.850942611694336,1.1300631761550903,-0.005057440605014563,0.0,0.0007985432748682797
2800205828500,0.812831461429596,-9.80904483795166,1.1587936878204346,-0.0053236219100654125,0.0066545275039970875,0.007453070487827063
2800207065825,0.7817068696022034,-9.871294021606445,1.1516109704971313,-0.0026618109550327063,0.0039927163161337376,0.007453070487827063
2800208303150,0.7852981686592102,-9.865307807922363,1.1492167711257935,-0.004791259765625,0.0042588976211845875,0.0042588976211845875
2800209540500,0.7817068696022034,-9.807847023010254,1.1300631761550903,-0.006122165359556675,0.00692070834338665,0.0005323622026480734
2800210777825,0.7972691655158997,-9.861717224121094,1.1647791862487793,-0.0026618109550327063,-0.0026618109550327063,0.0042588976211845875
2800212015162,0.7960720658302307,-9.84256362915039,1.1276689767837524,-0.00452507846057415,-0.004791259765625,0.006122165359556675
2800213252475,0.7996633648872375,-9.819818496704102,1.1192892789840698,-0.006122165359556675,0.005855984054505825,0.0042588976211845875
2800214489837,0.7733271718025208,-9.831789016723633,1.1444283723831177,-0.008251613937318325,0.0063883461989462376,0.00452507846057415
2800215727150,0.7829039692878723,-9.828198432922363,1.1552022695541382,-0.008517795242369175,0.0,0.006122165359556675
2800216964500,0.7924807667732239,-9.80904483795166,1.0965443849563599,-0.0029279920272529125,0.0018632676219567657,0.00931633822619915
2800218201812,0.7841010689735413,-9.876082420349121,1.0965443849563599,-0.005057440605014563,0.0026618109550327063,0.0077192517928779125
2800219439137,0.7613561749458313,-9.827000617980957,1.1073182821273804,-0.008783976547420025,0.0013309054775163531,0.010381062515079975
2800220676450,0.788889467716217,-9.852140426635742,1.1324573755264282,-0.0066545275039970875,0.0039927163161337376,0.0066545275039970875
2800221913800,0.8080430626869202,-9.84256362915039,1.095347285270691,-0.006122165359556675,0.005589802749454975,0.0063883461989462376
2800223151137,0.7936778664588928,-9.840168952941895,1.136048674583435,-0.008517795242369175,0.0029279920272529125,0.008517795242369175
2800224388475,0.767341673374176,-9.81263542175293,1.1288660764694214,-0.0063883461989462376,0.0029279920272529125,0.010913425125181675
2800225625800,0.8152256608009338,-9.807847023010254,1.136048674583435,-0.0066545275039970875,0.00931633822619915,0.0090501569211483
2800226863137,0.7972691655158997,-9.804256439208984,1.1504138708114624,-0.008251613937318325,0.0053236219100654125,0.008251613937318325
2800228100462,0.7661445736885071,-9.84256362915039,1.1121066808700562,-0.0063883461989462376,0.0018632676219567657,0.005855984054505825
2800229337800,0.750582218170166,-9.84376049041748,1.0881646871566772,-0.00984870083630085,0.0029279920272529125,0.005855984054505825
2800230575137,0.7781155705451965,-9.793481826782227,1.1492167711257935,-0.010114881210029125,-0.0007985432748682797,0.00984870083630085
2800231812462,0.7841010689735413,-9.81024169921875,1.1001356840133667,-0.0090501569211483,0.005589802749454975,0.008517795242369175
2800233049787,0.7721300721168518,-9.850942611694336,1.136048674583435,-0.010114881210029125,0.0063883461989462376,0.0090501569211483
2800234287112,0.767341673374176,-9.822212219238281,1.1528080701828003,-0.0037265352439135313,0.005589802749454975,0.010647243820130825
2800235524450,0.7757213711738586,-9.761160850524902,1.1240776777267456,-0.010114881210029125,0.0029279920272529125,0.008783976547420025
2800236761787,0.7841010689735413,-9.86770248413086,1.0785878896713257,-0.00984870083630085,0.0071868896484375,0.010114881210029125
2800237999112,0.7613561749458313,-9.84376049041748,1.1252747774124146,-0.008251613937318325,0.005057440605014563,0.01171196810901165
2800239236437,0.7996633648872375,-9.789891242980957,1.116895079612732,-0.00984870083630085,0.00452507846057415,0.0090501569211483
2800240473775,0.8152256608009338,-9.816226959228516,1.1647791862487793,-0.008783976547420025,0.0023956298828125,0.008517795242369175
2800241711112,0.788889467716217,-9.804256439208984,1.139639973640442,-0.0114457868039608,0.0005323622026480734,0.00692070834338665
2800242948450,0.7553706169128418,-9.827000617980957,1.114500880241394,-0.0066545275039970875,0.0031941730994731188,0.010647243820130825
2800244185775,0.7661445736885071,-9.822212219238281,1.0905588865280151,-0.0071868896484375,0.0071868896484375,0.012510511092841625
2800245423100,0.811634361743927,-9.818621635437012,1.1264718770980835,-0.010114881210029125,0.0077192517928779125,0.007453070487827063
2800246660450,0.7841010689735413,-9.80904483795166,1.171961784362793,-0.012510511092841625,0.00452507846057415,0.00452507846057415
2800247897775,0.8008604645729065,-9.84256362915039,1.136048674583435,-0.010381062515079975,0.00452507846057415,0.0071868896484375
2800249135087,0.7625532746315002,-9.86650562286377,1.137245774269104,-0.008783976547420025,0.003460354171693325,0.012776692397892475
2800250372425,0.750582218170166,-9.81263542175293,1.094150185585022,-0.0071868896484375,0.0018632676219567657,0.015438503585755825
2800251609750,0.7817068696022034,-9.838972091674805,1.0881646871566772,-0.005057440605014563,0.0018632676219567657,0.01171196810901165
2800252847087,0.7817068696022034,-9.789891242980957,1.0857704877853394,-0.005589802749454975,0.005855984054505825,0.0042588976211845875
2800254084412,0.7829039692878723,-9.84256362915039,1.1097124814987183,-0.0071868896484375,0.0039927163161337376,0.008251613937318325
2800255321737,0.7876923680305481,-9.816226959228516,1.1504138708114624,-0.0071868896484375,0.0005323622026480734,0.00984870083630085
2800256559075,0.767341673374176,-9.7791166305542,1.1085153818130493,-0.004791259765625,0.0,0.01117960549890995
2800257796425,0.7864952683448792,-9.794679641723633,1.1073182821273804,-0.0031941730994731188,0.0039927163161337376,0.005057440605014563
2800259033750,0.7637503743171692,-9.769539833068848,1.1240776777267456,-0.0042588976211845875,0.0018632676219567657,0.0066545275039970875
2800260271062,0.7793126702308655,-9.806650161743164,1.113303780555725,-0.01117960549890995,0.0042588976211845875,0.0071868896484375
2800261508425,0.8224083185195923,-9.815030097961426,1.0977414846420288,-0.00984870083630085,0.005589802749454975,0.0066545275039970875
2800262745750,0.8032546639442444,-9.799468040466309,1.1240776777267456,-0.008517795242369175,0.0090501569211483,0.010913425125181675
2800263983062,0.788889467716217,-9.791088104248047,1.1324573755264282,-0.0077192517928779125,0.008517795242369175,0.008783976547420025
2800265220425,0.7709329724311829,-9.782708168029785,1.0809820890426636,-0.00692070834338665,0.006122165359556675,0.008251613937318325
2800266457737,0.7841010689735413,-9.813833236694336,1.095347285270691,-0.003460354171693325,0.0029279920272529125,0.01117960549890995
2800267695075,0.7829039692878723,-9.768342971801758,1.114500880241394,-0.0042588976211845875,0.0023956298828125,0.01171196810901165
2800268932400,0.7577648162841797,-9.780314445495605,1.1552022695541382,-0.0053236219100654125,0.0077192517928779125,0.004791259765625
2800270169725,0.7362170219421387,-9.786299705505371,1.1276689767837524,-0.0077192517928779125,0.00984870083630085,0.010647243820130825
2800271407062,0.7781155705451965,-9.771934509277344,1.114500880241394,-0.007453070487827063,0.00958251953125,0.012776692397892475
2800272644400,0.7589619159698486,-9.77552604675293,1.1456254720687866,-0.008251613937318325,0.00692070834338665,0.0114457868039608
2800273881737,0.768538773059845,-9.750386238098145,1.094150185585022,-0.008251613937318325,0.0066545275039970875,0.0114457868039608
2800275119062,0.7601590752601624,-9.789891242980957,1.0534487962722778,-0.00452507846057415,0.007985432632267475,0.0077192517928779125
2800276356387,0.7601590752601624,-9.781511306762695,1.072602391242981,-0.005057440605014563,0.0042588976211845875,0.0071868896484375
2800277593725,0.7721300721168518,-9.794679641723633,1.092953085899353,-0.0071868896484375,0.005855984054505825,0.0071868896484375
2800278831062,0.7709329724311829,-9.795876502990723,1.091755986213684,-0.0013309054775163531,0.008517795242369175,0.00958251953125
2800280068400,0.7936778664588928,-9.758766174316406,1.1085153818130493,-0.005057440605014563,0.008251613937318325,0.0071868896484375
2800281305712,0.8044517636299133,-9.787496566772461,1.0977414846420288,-0.007453070487827063,0.00958251953125,0.0029279920272529125
2800282543050,0.7625532746315002,-9.769539833068848,1.0809820890426636,-0.0031941730994731188,0.0029279920272529125,0.005057440605014563
2800283780362,0.7613561749458313,-9.781511306762695,1.1097124814987183,-0.0053236219100654125,0.004791259765625,0.010913425125181675
2800285017712,0.7733271718025208,-9.77791976928711,1.1480196714401245,-0.003460354171693325,0.008251613937318325,0.01117960549890995
2800286255037,0.7374141216278076,-9.789891242980957,1.1073182821273804,-0.0090501569211483,0.00931633822619915,0.010114881210029125
2800287492375,0.7529764175415039,-9.764751434326172,1.138442873954773,-0.0029279920272529125,0.00984870083630085,0.00692070834338665
2800288729700,0.7553706169128418,-9.771934509277344,1.113303780555725,-0.0015970865497365594,0.00452507846057415,0.005057440605014563
2800289967050,0.7637503743171692,-9.799468040466309,1.0678139925003052,-0.0029279920272529125,0.010647243820130825,0.005589802749454975
2800291204387,0.7589619159698486,-9.773131370544434,1.0989385843276978,-0.007453070487827063,0.0114457868039608,0.0042588976211845875
2800292441712,0.7817068696022034,-9.805453300476074,1.1013327836990356,-0.007453070487827063,0.007985432632267475,0.007453070487827063
2800293679037,0.8212112188339233,-9.81263542175293,1.1001356840133667,-0.0053236219100654125,0.0090501569211483,0.010647243820130825
2800294916375,0.7876923680305481,-9.799468040466309,1.0977414846420288,-0.0066545275039970875,0.01357523538172245,0.008251613937318325
2800296153700,0.7589619159698486,-9.763554573059082,1.116895079612732,-0.0029279920272529125,0.007985432632267475,0.006122165359556675
2800297391025,0.790086567401886,-9.771934509277344,1.0905588865280151,-0.0031941730994731188,0.008517795242369175,0.00452507846057415
2800298628350,0.7924807667732239,-9.822212219238281,1.0678139925003052,-0.0053236219100654125,0.0090501569211483,0.003460354171693325
2800299865700,0.767341673374176,-9.798270225524902,1.0438719987869263,-0.0031941730994731188,0.012510511092841625,0.0031941730994731188
2800301103025,0.7781155705451965,-9.785102844238281,1.0845733880996704,0.0002661811013240367,0.010647243820130825,0.0037265352439135313
2800302340362,0.7254431247711182,-9.77552604675293,1.0462661981582642,-0.006122165359556675,0.01463996060192585,0.006122165359556675
2800303577687,0.7697358727455139,-9.765949249267578,1.0797849893569946,-0.0053236219100654125,0.014373779296875,0.008517795242369175
2800304815025,0.7972691655158997,-9.789891242980957,1.0821791887283325,-0.0015970865497365594,0.01171196810901165,0.0053236219100654125
2800306052350,0.7769184708595276,-9.787496566772461,1.092953085899353,0.0018632676219567657,0.00692070834338665,0.0029279920272529125
2800307289687,0.7936778664588928,-9.801861763000488,1.116895079612732,-0.0042588976211845875,0.007985432632267475,0.0053236219100654125
2800308527000,0.7613561749458313,-9.773131370544434,1.094150185585022,-0.0026618109550327063,0.01117960549890995,0.005855984054505825
2800309764350,0.7709329724311829,-9.77672290802002,1.092953085899353,0.0015970865497365594,0.0138414166867733,0.0026618109550327063
2800311001687,0.7721300721168518,-9.81263542175293,1.1085153818130493,-0.0007985432748682797,0.010381062515079975,0.0013309054775163531
2800312239012,0.8104372620582581,-9.829395294189453,1.0761936902999878,-0.0066545275039970875,0.00931633822619915,0.005057440605014563
2800313476337,0.7733271718025208,-9.817423820495605,1.1073182821273804,-0.0026618109550327063,0.01171196810901165,0.0077192517928779125
2800314713687,0.7936778664588928,-9.806650161743164,1.0857704877853394,-0.0039927163161337376,0.008517795242369175,0.0029279920272529125
2800315951012,0.7972691655158997,-9.787496566772461,1.0522516965866089,-0.0010647244052961469,0.007985432632267475,0.0042588976211845875
2800317188350,0.7817068696022034,-9.81263542175293,1.0809820890426636,-0.005589802749454975,0.00958251953125,0.004791259765625
2800318425662,0.8152256608009338,-9.792284965515137,1.1061211824417114,-0.006122165359556675,0.010913425125181675,0.005057440605014563
2800319663000,0.8403648138046265,-9.787496566772461,1.071405291557312,-0.0053236219100654125,0.0138414166867733,0.0042588976211845875
2800320900337,0.7793126702308655,-9.781511306762695,1.0845733880996704,-0.003460354171693325,0.01171196810901165,0.0015970865497365594
2800322137662,0.7948749661445618,-9.827000617980957,1.0809820890426636,0.0005323622026480734,0.01410759799182415,0.0002661811013240367
2800323375012,0.811634361743927,-9.787496566772461,1.0618284940719604,-0.003460354171693325,0.01703559048473835,0.007453070487827063
2800324612337,0.7864952683448792,-9.795876502990723,1.091755986213684,-0.003460354171693325,0.0119781494140625,0.008517795242369175
2800325849662,0.8020575642585754,-9.805453300476074,1.1324573755264282,-0.0018632676219567657,0.010381062515079975,0.0042588976211845875
2800327087000,0.7625532746315002,-9.813833236694336,1.0642226934432983,-0.0015970865497365594,0.0114457868039608,0.0066545275039970875
2800328324337,0.8008604645729065,-9.767146110534668,1.0905588865280151,-0.006122165359556675,0.0090501569211483,0.005057440605014563
2800329561662,0.7805097699165344,-9.786299705505371,1.1348515748977661,-0.005589802749454975,0.0053236219100654125,-0.0007985432748682797
2800330799000,0.7697358727455139,-9.768342971801758,1.0678139925003052,-0.0021294488105922937,0.005855984054505825,0.0039927163161337376
2800332036325,0.7841010689735413,-9.773131370544434,1.115697979927063,-0.0026618109550327063,0.00958251953125,0.006122165359556675
2800333273625,0.790086567401886,-9.78869342803955,1.113303780555725,-0.0039927163161337376,0.00984870083630085,0.003460354171693325
2800334510987,0.7781155705451965,-9.815030097961426,1.0857704877853394,-0.0039927163161337376,0.007453070487827063,0.0010647244052961469
2800335748325,0.7972691655158997,-9.789891242980957,1.0989385843276978,-0.0005323622026480734,0.008251613937318325,0.00692070834338665
2800336985637,0.7817068696022034,-9.825803756713867,1.1204863786697388,-0.0013309054775163531,0.010114881210029125,0.003460354171693325
2800338222962,0.7996633648872375,-9.789891242980957,1.113303780555725,-0.0042588976211845875,0.01117960549890995,0.00692070834338665
2800339460325,0.7481880187988281,-9.793481826782227,1.0893617868423462,-0.00692070834338665,0.008517795242369175,0.0066545275039970875
2800340697650,0.8044517636299133,-9.795876502990723,1.1312602758407593,-0.005855984054505825,0.006122165359556675,0.0018632676219567657
2800341934975,0.8056488633155823,-9.794679641723633,1.0785878896713257,0.0037265352439135313,0.008783976547420025,0.007453070487827063
2800343172312,0.8271967172622681,-9.77672290802002,1.0546458959579468,0.0037265352439135313,0.0114457868039608,0.010647243820130825
2800344409650,0.788889467716217,-9.823410034179688,1.049857497215271,0.0005323622026480734,0.00984870083630085,0.007985432632267475
2800345646950,0.7972691655158997,-9.827000617980957,1.0989385843276978,-0.0021294488105922937,0.0090501569211483,0.0042588976211845875
2800346884300,0.8080430626869202,-9.80904483795166,1.0881646871566772,-0.0037265352439135313,0.0066545275039970875,0.0031941730994731188
2800348121637,0.7733271718025208,-9.797073364257812,1.1049240827560425,-0.0039927163161337376,0.007453070487827063,0.0063883461989462376
2800349358950,0.7829039692878723,-9.825803756713867,1.0893617868423462,-0.0002661811013240367,0.008251613937318325,0.007985432632267475
2800350596300,0.812831461429596,-9.823410034179688,1.0821791887283325,-0.003460354171693325,0.0090501569211483,0.007985432632267475
2800351833637,0.790086567401886,-9.817423820495605,1.0773907899856567,-0.0042588976211845875,0.007453070487827063,0.005589802749454975
2800353070975,0.8068459630012512,-9.824606895446777,1.0773907899856567,-0.004791259765625,0.0063883461989462376,0.0007985432748682797
2800354308300,0.8355764150619507,-9.831789016723633,1.0654197931289673,-0.0029279920272529125,0.0031941730994731188,0.005057440605014563
2800355545625,0.7948749661445618,-9.801861763000488,1.071405291557312,0.0005323622026480734,0.005589802749454975,0.00692070834338665
2800356782950,0.8068459630012512,-9.770737648010254,1.0761936902999878,-0.0039927163161337376,0.01171196810901165,0.005855984054505825
2800358020287,0.7948749661445618,-9.81143856048584,1.1073182821273804,-0.0018632676219567657,0.008517795242369175,0.0037265352439135313
2800359257637,0.7948749661445618,-9.822212219238281,1.0833762884140015,0.0029279920272529125,0.008517795242369175,0.0077192517928779125
2800360494950,0.7876923680305481,-9.806650161743164,1.0893617868423462,-0.0023956298828125,0.005855984054505825,0.0066545275039970875
2800361732300,0.7984662652015686,-9.764751434326172,1.0785878896713257,-0.0013309054775163531,0.0031941730994731188,0.0066545275039970875
2800362969625,0.8152256608009338,-9.756372451782227,1.0785878896713257,-0.0039927163161337376,0.008251613937318325,0.01117960549890995
2800364206962,0.8164227604866028,-9.798270225524902,1.0809820890426636,-0.007453070487827063,0.010647243820130825,0.0053236219100654125
2800365444275,0.790086567401886,-9.801861763000488,1.0630255937576294,-0.0018632676219567657,0.0077192517928779125,0.0037265352439135313
2800366681625,0.7769184708595276,-9.782708168029785,1.0642226934432983,-0.005855984054505825,0.007985432632267475,0.003460354171693325
2800367918950,0.8164227604866028,-9.803058624267578,1.0965443849563599,-0.0066545275039970875,0.010913425125181675,0.00452507846057415
2800369156287,0.8200140595436096,-9.773131370544434,1.0678139925003052,-0.0029279920272529125,0.0119781494140625,0.0013309054775163531
2800370393625,0.8212112188339233,-9.805453300476074,1.0618284940719604,-0.0007985432748682797,0.0077192517928779125,-0.0015970865497365594
2800371630937,0.7924807667732239,-9.771934509277344,1.07379949092865,-0.0010647244052961469,0.00692070834338665,0.0021294488105922937
2800372868275,0.8068459630012512,-9.759963035583496,1.1228805780410767,-0.0026618109550327063,0.0066545275039970875,0.006122165359556675
2800374105600,0.8583213090896606,-9.799468040466309,1.070208191871643,0.0002661811013240367,0.0066545275039970875,0.0023956298828125
2800375342937,0.7912836670875549,-9.774328231811523,1.0905588865280151,-0.0031941730994731188,0.007453070487827063,0.0037265352439135313
2800376580262,0.7936778664588928,-9.770737648010254,1.047463297843933,0.0010647244052961469,0.005057440605014563,0.004791259765625
2800377817612,0.8176198601722717,-9.782708168029785,1.0833762884140015,0.0013309054775163531,0.006122165359556675,0.00452507846057415
2800379054950,0.828393816947937,-9.797073364257812,1.094150185585022,0.0018632676219567657,0.0031941730994731188,0.01117960549890995
2800380292262,0.7996633648872375,-9.749189376831055,1.1037269830703735,-0.0002661811013240367,0.006122165359556675,0.0042588976211845875
2800381529600,0.811634361743927,-9.787496566772461,1.1061211824417114,-0.0010647244052961469,0.00452507846057415,0.0015970865497365594
2800382766925,0.851138710975647,-9.77552604675293,1.1037269830703735,-0.0005323622026480734,0.0031941730994731188,0.0039927163161337376
2800384004275,0.7769184708595276,-9.770737648010254,1.115697979927063,0.0021294488105922937,0.003460354171693325,0.008783976547420025
2800385241600,0.8080430626869202,-9.793481826782227,1.1025298833847046,-0.003460354171693325,-0.0007985432748682797,0.004791259765625
2800386478925,0.8535329103469849,-9.813833236694336,1.095347285270691,0.0013309054775163531,0.0005323622026480734,0.0039927163161337376
2800387716237,0.8080430626869202,-9.757569313049316,1.1013327836990356,0.0021294488105922937,0.0053236219100654125,0.007453070487827063
2800388953600,0.8403648138046265,-9.78869342803955,1.070208191871643,0.0031941730994731188,0.005589802749454975,0.005855984054505825
2800390190925,0.8535329103469849,-9.781511306762695,1.0761936902999878,0.0021294488105922937,0.0005323622026480734,0.007453070487827063
2800391428250,0.8367735147476196,-9.81143856048584,1.095347285270691,-0.0013309054775163531,0.00452507846057415,0.005589802749454975
2800392665587,0.8200140595436096,-9.792284965515137,1.0797849893569946,0.0002661811013240367,0.0053236219100654125,0.005589802749454975
