timestamp_ns,accel_x,accel_y,accel_z,gyro_x,gyro_y,gyro_z
18612342490862,2.7557260990142822,-9.129091262817383,2.849100112915039,-0.0319417305290699,0.008783976547420025,0.01171196810901165
18612343727987,2.7760767936706543,-9.107542991638184,2.8143842220306396,-0.0351359061896801,0.013309055007994175,0.007453070487827063
18612344965137,2.7940332889556885,-9.17697525024414,2.8586769104003906,-0.0324740931391716,0.01224433071911335,0.008251613937318325
18612346202275,2.8179755210876465,-9.1662015914917,2.8670566082000732,-0.0343373604118824,0.005855984054505825,0.010381062515079975
18612347439412,2.779668092727661,-9.154230117797852,2.8395233154296875,-0.0340711809694767,0.0157046839594841,0.00931633822619915
18612348676562,2.7509377002716064,-9.141061782836914,2.8359320163726807,-0.0354020856320858,0.01410759799182415,0.0114457868039608
18612349913687,2.736572504043579,-9.127894401550293,2.898181200027466,-0.0404595248401165,0.010913425125181675,0.0114457868039608
18612351150837,2.761711597442627,-9.107542991638184,2.8850131034851074,-0.0364668108522892,0.00984870083630085,0.01224433071911335
18612352387962,2.8131871223449707,-9.081207275390625,2.8335378170013428,-0.0362006276845932,0.00984870083630085,0.013042873702943325
18612353625112,2.7880477905273438,-9.095572471618652,2.828749418258667,-0.03087700717151165,0.00931633822619915,0.013042873702943325
18612354862237,2.785653591156006,-9.08719253540039,2.855085611343384,-0.0319417305290699,0.00984870083630085,0.013042873702943325
18612356099400,2.7976248264312744,-9.077615737915039,2.849100112915039,-0.033538818359375,0.014373779296875,0.0173017717897892
18612357336512,2.782062292098999,-9.089587211608887,2.828749418258667,-0.0372653529047966,0.012510511092841625,0.0173017717897892
18612358573675,2.783259391784668,-9.100360870361328,2.868253707885742,-0.0319417305290699,0.013042873702943325,0.015172322280704975
18612359810787,2.7952303886413574,-9.091980934143066,2.8359320163726807,-0.0343373604118824,0.0210283063352108,0.01650322787463665
18612361047937,2.783259391784668,-9.074024200439453,2.7676970958709717,-0.0343373604118824,0.01597086526453495,0.01756795309484005
18612362285087,2.823961019515991,-9.097966194152832,2.832340717315674,-0.02874755859375,0.0167694091796875,0.01357523538172245
18612363522200,2.7904419898986816,-9.047688484191895,2.823961019515991,-0.0324740931391716,0.02076212503015995,0.01224433071911335
18612364759350,2.7940332889556885,-9.063250541687012,2.8167784214019775,-0.0351359061896801,0.0167694091796875,0.015172322280704975
18612365996500,2.782062292098999,-9.070433616638184,2.8227639198303223,-0.0316755510866642,0.01756795309484005,0.01836649514734745
18612367233637,2.804807424545288,-9.099164009094238,2.80241322517395,-0.0311431884765625,0.01943122036755085,0.01650322787463665
18612368470762,2.7928361892700195,-9.099164009094238,2.8455088138580322,-0.02901373989880085,0.0223592109978199,0.01650322787463665
18612369707900,2.7904419898986816,-9.071630477905273,2.8143842220306396,-0.0300784632563591,0.0191650390625,0.01703559048473835
18612370945037,2.8215668201446533,-9.102754592895508,2.8335378170013428,-0.0282151959836483,0.0162370465695858,0.01756795309484005
18612372182187,2.8443117141723633,-9.091980934143066,2.8371291160583496,-0.0295461006462574,0.0186326764523983,0.0090501569211483
18612373419312,2.829946517944336,-9.08719253540039,2.852691411972046,-0.03034464456140995,0.02262539230287075,0.01650322787463665
18612374656450,2.8670566082000732,-9.070433616638184,2.7916390895843506,-0.0258195661008358,0.0181003138422966,0.02076212503015995
18612375893600,2.8000190258026123,-9.100360870361328,2.8419175148010254,-0.0258195661008358,0.01703559048473835,0.0186326764523983
18612377130737,2.803610324859619,-9.101557731628418,2.8371291160583496,-0.0282151959836483,0.01703559048473835,0.013309055007994175
18612378367862,2.7952303886413574,-9.095572471618652,2.7988219261169434,-0.0247548408806324,0.01943122036755085,0.015172322280704975
18612379605000,2.80241322517395,-9.083600997924805,2.8586769104003906,-0.02794901467859745,0.0234239362180233,0.02129448764026165
18612380842137,2.8371291160583496,-9.071630477905273,2.826355218887329,-0.0316755510866642,0.01943122036755085,0.0157046839594841
18612382079287,2.806004524230957,-9.118317604064941,2.852691411972046,-0.0292799212038517,0.0210283063352108,0.014373779296875
18612383316425,2.8215668201446533,-9.113529205322266,2.804807424545288,-0.023956298828125,0.01836649514734745,0.01943122036755085
18612384553562,2.8179755210876465,-9.094375610351562,2.852691411972046,-0.023956298828125,0.0220930315554142,0.0220930315554142
18612385790687,2.810792922973633,-9.102754592895508,2.8419175148010254,-0.0292799212038517,0.0210283063352108,0.02129448764026165
18612387027837,2.8347349166870117,-9.082404136657715,2.804807424545288,-0.0271504707634449,0.01943122036755085,0.0167694091796875
18612388264962,2.7916390895843506,-9.10874080657959,2.827552318572998,-0.02555338479578495,0.0210283063352108,0.01783413253724575
18612389502125,2.8227639198303223,-9.129091262817383,2.8419175148010254,-0.0234239362180233,0.0228915736079216,0.02182685025036335
18612390739262,2.84790301322937,-9.149441719055176,2.8155813217163086,-0.02262539230287075,0.0247548408806324,0.0234239362180233
18612391976387,2.832340717315674,-9.156624794006348,2.831143617630005,-0.02661811001598835,0.02022976242005825,0.0181003138422966
18612393213537,2.8598740100860596,-9.131484985351562,2.8335378170013428,-0.0252872034907341,0.0162370465695858,0.01597086526453495
18612394450662,2.7772738933563232,-9.102754592895508,2.823961019515991,-0.02555338479578495,0.0186326764523983,0.0157046839594841
18612395687812,2.8431146144866943,-9.113529205322266,2.810792922973633,-0.0330064557492733,0.0204959437251091,0.0223592109978199
18612396924937,2.8634653091430664,-9.137471199035645,2.810792922973633,-0.02315775491297245,0.02262539230287075,0.0173017717897892
18612398162087,2.8395233154296875,-9.11113452911377,2.898181200027466,-0.02262539230287075,0.0271504707634449,0.01703559048473835
18612399399225,2.8359320163726807,-9.147047996520996,2.8395233154296875,-0.0252872034907341,0.0191650390625,0.0196974016726017
18612400636362,2.869450807571411,-9.131484985351562,2.8179755210876465,-0.02661811001598835,0.0191650390625,0.0191650390625
18612401873475,2.82515811920166,-9.102754592895508,2.832340717315674,-0.0223592109978199,0.01836649514734745,0.0210283063352108
18612403110637,2.8395233154296875,-9.126696586608887,2.807201623916626,-0.0220930315554142,0.0196974016726017,0.0220930315554142
18612404347762,2.874239206314087,-9.118317604064941,2.810792922973633,-0.02422248013317585,0.02262539230287075,0.0220930315554142
18612405584912,2.809595823287964,-9.106346130371094,2.7916390895843506,-0.02262539230287075,0.02262539230287075,0.0210283063352108
18612406822050,2.826355218887329,-9.103952407836914,2.8155813217163086,-0.02848137728869915,0.0220930315554142,0.01650322787463665
18612408059175,2.8622682094573975,-9.135076522827148,2.7928361892700195,-0.023956298828125,0.0191650390625,0.0210283063352108
18612409296312,2.8119900226593018,-9.120711326599121,2.8191726207733154,-0.0162370465695858,0.0196974016726017,0.0263519287109375
18612410533450,2.8574798107147217,-9.129091262817383,2.8634653091430664,-0.01703559048473835,0.0186326764523983,0.02848137728869915
18612411770600,2.8850131034851074,-9.151836395263672,2.8203697204589844,-0.0204959437251091,0.0220930315554142,0.02502102218568325
18612413007750,2.8455088138580322,-9.1446533203125,2.8790276050567627,-0.02022976242005825,0.01943122036755085,0.0215606689453125
18612414244887,2.8383262157440186,-9.120711326599121,2.8335378170013428,-0.0196974016726017,0.0196974016726017,0.0191650390625
18612415482025,2.849100112915039,-9.1446533203125,2.80241322517395,-0.0244886614382267,0.01943122036755085,0.02076212503015995
18612416719150,2.8359320163726807,-9.099164009094238,2.809595823287964,-0.02129448764026165,0.0181003138422966,0.01783413253724575
18612417956287,2.850297212600708,-9.132682800292969,2.829946517944336,-0.02129448764026165,0.0228915736079216,0.01996358297765255
18612419193437,2.804807424545288,-9.124302864074707,2.8874073028564453,-0.02076212503015995,0.0210283063352108,0.02129448764026165
18612420430562,2.808398723602295,-9.151836395263672,2.8000190258026123,-0.01996358297765255,0.014373779296875,0.02182685025036335
18612421667700,2.8431146144866943,-9.139864921569824,2.8443117141723633,-0.02182685025036335,0.01357523538172245,0.0186326764523983
18612422904850,2.8646624088287354,-9.131484985351562,2.803610324859619,-0.01783413253724575,0.01756795309484005,0.0210283063352108
18612424141975,2.853888511657715,-9.126696586608887,2.832340717315674,-0.0186326764523983,0.0186326764523983,0.0204959437251091
18612425379125,2.855085611343384,-9.141061782836914,2.828749418258667,-0.02129448764026165,0.0191650390625,0.0186326764523983
18612426616275,2.807201623916626,-9.094375610351562,2.831143617630005,-0.02076212503015995,0.02369011752307415,0.02182685025036335
18612427853400,2.8155813217163086,-9.123106002807617,2.8395233154296875,-0.0196974016726017,0.01703559048473835,0.0220930315554142
18612429090537,2.8179755210876465,-9.10993766784668,2.75812029838562,-0.0191650390625,0.0162370465695858,0.02262539230287075
18612430327675,2.8179755210876465,-9.123106002807617,2.7904419898986816,-0.01943122036755085,0.0077192517928779125,0.023956298828125
18612431564825,2.8335378170013428,-9.099164009094238,2.8167784214019775,-0.02076212503015995,0.013309055007994175,0.01783413253724575
18612432801962,2.8658595085144043,-9.11113452911377,2.829946517944336,-0.0204959437251091,0.01410759799182415,0.01783413253724575
18612434039100,2.846705913543701,-9.133879661560059,2.8419175148010254,-0.0173017717897892,0.0162370465695858,0.0252872034907341
18612435276225,2.8395233154296875,-9.090784072875977,2.80241322517395,-0.01597086526453495,0.0138414166867733,0.02794901467859745
18612436513362,2.874239206314087,-9.102754592895508,2.8443117141723633,-0.0173017717897892,0.012510511092841625,0.0295461006462574
18612437750500,2.8574798107147217,-9.136273384094238,2.808398723602295,-0.02022976242005825,0.01410759799182415,0.02369011752307415
18612438987650,2.8622682094573975,-9.106346130371094,2.8167784214019775,-0.012776692397892475,0.008517795242369175,0.0228915736079216
18612440224787,2.8586769104003906,-9.095572471618652,2.808398723602295,-0.01117960549890995,0.01410759799182415,0.02502102218568325
18612441461912,2.8383262157440186,-9.100360870361328,2.80241322517395,-0.014906140975654125,0.012776692397892475,0.02874755859375
18612442699062,2.826355218887329,-9.107542991638184,2.8012161254882812,-0.01597086526453495,0.0114457868039608,0.0292799212038517
18612443936200,2.8155813217163086,-9.123106002807617,2.8167784214019775,-0.01756795309484005,0.00931633822619915,0.0276828333735466
18612445173337,2.8371291160583496,-9.10993766784668,2.8155813217163086,-0.01783413253724575,0.01783413253724575,0.0263519287109375
18612446410462,2.8395233154296875,-9.10993766784668,2.84790301322937,-0.0167694091796875,0.010381062515079975,0.02076212503015995
18612447647625,2.828749418258667,-9.130288124084473,2.84790301322937,-0.01650322787463665,0.00692070834338665,0.0234239362180233
18612448884737,2.874239206314087,-9.107542991638184,2.7988219261169434,-0.012776692397892475,0.01171196810901165,0.0292799212038517
18612450121900,2.8802247047424316,-9.099164009094238,2.823961019515991,-0.0138414166867733,0.01117960549890995,0.0247548408806324
18612451359025,2.8395233154296875,-9.153033256530762,2.782062292098999,-0.01597086526453495,0.00692070834338665,0.02741665206849575
18612452596175,2.8215668201446533,-9.118317604064941,2.7892448902130127,-0.01357523538172245,0.005589802749454975,0.03087700717151165
18612453833300,2.849100112915039,-9.153033256530762,2.82515811920166,-0.013309055007994175,0.0010647244052961469,0.03087700717151165
18612455070425,2.832340717315674,-9.1446533203125,2.8131871223449707,-0.014373779296875,0.012510511092841625,0.0306108258664608
18612456307575,2.8347349166870117,-9.138668060302734,2.779668092727661,-0.0181003138422966,0.0071868896484375,0.03087700717151165
18612457544712,2.8215668201446533,-9.1446533203125,2.7880477905273438,-0.01410759799182415,0.005589802749454975,0.0295461006462574
18612458781862,2.7964274883270264,-9.10993766784668,2.8000190258026123,-0.012776692397892475,0.007985432632267475,0.0306108258664608
18612460019012,2.7904419898986816,-9.113529205322266,2.809595823287964,-0.00452507846057415,0.005057440605014563,0.0377977155148983
18612461256137,2.8431146144866943,-9.11233139038086,2.8227639198303223,-0.014373779296875,0.010647243820130825,0.02981228195130825
18612462493275,2.808398723602295,-9.135076522827148,2.8155813217163086,-0.012776692397892475,0.00931633822619915,0.02794901467859745
18612463730412,2.809595823287964,-9.097966194152832,2.8227639198303223,-0.01171196810901165,0.0077192517928779125,0.0295461006462574
18612464967525,2.783259391784668,-9.11233139038086,2.8215668201446533,-0.014906140975654125,0.010381062515079975,0.0244886614382267
18612466204687,2.7892448902130127,-9.106346130371094,2.756923198699951,-0.01224433071911335,0.007985432632267475,0.0324740931391716
18612467441825,2.8395233154296875,-9.14345645904541,2.778470993041992,-0.01463996060192585,0.010647243820130825,0.0322079136967659
18612468678962,2.8335378170013428,-9.107542991638184,2.846705913543701,-0.01117960549890995,0.005855984054505825,0.0314093679189682
18612469916100,2.8586769104003906,-9.072827339172363,2.8215668201446533,-0.012510511092841625,0.005589802749454975,0.0364668108522892
18612471153250,2.8658595085144043,-9.115922927856445,2.806004524230957,-0.0167694091796875,0.0015970865497365594,0.0314093679189682
18612472390375,2.8119900226593018,-9.121908187866211,2.7916390895843506,-0.01410759799182415,0.0013309054775163531,0.0311431884765625
18612473627500,2.804807424545288,-9.139864921569824,2.759317398071289,-0.010114881210029125,0.008517795242369175,0.02794901467859745
18612474864662,2.826355218887329,-9.097966194152832,2.8167784214019775,-0.0114457868039608,0.005057440605014563,0.02794901467859745
18612476101787,2.8203697204589844,-9.14225959777832,2.8347349166870117,-0.01410759799182415,0.0053236219100654125,0.0330064557492733
18612477338937,2.808398723602295,-9.124302864074707,2.8383262157440186,-0.01410759799182415,0.0015970865497365594,0.0354020856320858
18612478576087,2.7892448902130127,-9.115922927856445,2.8395233154296875,-0.00692070834338665,0.0013309054775163531,0.0295461006462574
18612479813212,2.808398723602295,-9.14585018157959,2.82515811920166,-0.0071868896484375,0.005057440605014563,0.0340711809694767
18612481050350,2.874239206314087,-9.132682800292969,2.826355218887329,-0.013309055007994175,0.0023956298828125,0.02741665206849575
18612482287475,2.7988219261169434,-9.138668060302734,2.84790301322937,-0.01117960549890995,0.0018632676219567657,0.02901373989880085
18612483524625,2.8012161254882812,-9.153033256530762,2.832340717315674,-0.010647243820130825,0.0037265352439135313,0.0311431884765625
18612484761762,2.7928361892700195,-9.136273384094238,2.853888511657715,-0.013042873702943325,0.0005323622026480734,0.0311431884765625
18612485998900,2.807201623916626,-9.163806915283203,2.8598740100860596,-0.008251613937318325,0.0007985432748682797,0.0348697230219841
18612487236037,2.8012161254882812,-9.127894401550293,2.8203697204589844,-0.0114457868039608,-0.0002661811013240367,0.0351359061896801
18612488473162,2.8215668201446533,-9.115922927856445,2.7964274883270264,-0.015172322280704975,0.0021294488105922937,0.03087700717151165
18612489710312,2.7964274883270264,-9.106346130371094,2.828749418258667,-0.01224433071911335,0.0042588976211845875,0.0300784632563591
18612490947437,2.778470993041992,-9.123106002807617,2.7976248264312744,-0.013042873702943325,0.005057440605014563,0.0292799212038517
18612492184600,2.7928361892700195,-9.137471199035645,2.850297212600708,-0.013042873702943325,-0.0023956298828125,0.0306108258664608
18612493421750,2.810792922973633,-9.149441719055176,2.8658595085144043,-0.0138414166867733,-0.003460354171693325,0.0306108258664608
18612494658862,2.7976248264312744,-9.11233139038086,2.8227639198303223,-0.0162370465695858,0.0005323622026480734,0.0292799212038517
18612495896000,2.807201623916626,-9.137471199035645,2.80241322517395,-0.01650322787463665,0.0018632676219567657,0.0327402763068676
18612497133137,2.7700912952423096,-9.117119789123535,2.8191726207733154,-0.01171196810901165,0.0005323622026480734,0.02874755859375
18612498370275,2.7545289993286133,-9.10874080657959,2.823961019515991,-0.00452507846057415,0.0031941730994731188,0.02661811001598835
18612499607437,2.7234044075012207,-9.1446533203125,2.803610324859619,-0.0114457868039608,0.004791259765625,0.0223592109978199
18612500844562,2.7521347999572754,-9.14585018157959,2.8347349166870117,-0.007985432632267475,-0.0029279920272529125,0.0263519287109375
18612502081700,2.7485435009002686,-9.124302864074707,2.7988219261169434,-0.0066545275039970875,-0.0018632676219567657,0.0282151959836483
18612503318825,2.778470993041992,-9.107542991638184,2.846705913543701,-0.008251613937318325,0.0018632676219567657,0.02794901467859745
18612504555975,2.765302896499634,-9.08838939666748,2.8359320163726807,-0.006122165359556675,0.0010647244052961469,0.0268842913210392
18612505793125,2.8347349166870117,-9.113529205322266,2.7964274883270264,-0.0090501569211483,-0.0005323622026480734,0.02315775491297245
18612507030250,2.761711597442627,-9.077615737915039,2.8431146144866943,-0.00984870083630085,-0.0005323622026480734,0.02422248013317585
18612508267400,2.761711597442627,-9.10993766784668,2.869450807571411,-0.007985432632267475,-0.0029279920272529125,0.0247548408806324
18612509504525,2.7928361892700195,-9.133879661560059,2.8359320163726807,-0.010114881210029125,-0.0039927163161337376,0.0258195661008358
18612510741675,2.8143842220306396,-9.1446533203125,2.851494312286377,-0.008783976547420025,-0.003460354171693325,0.02741665206849575
18612511978800,2.741360902786255,-9.113529205322266,2.829946517944336,-0.0066545275039970875,-0.005057440605014563,0.0271504707634449
18612513215950,2.8131871223449707,-9.149441719055176,2.826355218887329,-0.00692070834338665,-0.0039927163161337376,0.02555338479578495
18612514453075,2.7988219261169434,-9.148244857788086,2.852691411972046,-0.010913425125181675,-0.0005323622026480734,0.0258195661008358
18612515690212,2.786850690841675,-9.1662015914917,2.850297212600708,-0.006122165359556675,0.0002661811013240367,0.02794901467859745
18612516927362,2.804807424545288,-9.14345645904541,2.8419175148010254,-0.005057440605014563,-0.0039927163161337376,0.02129448764026165
18612518164500,2.75812029838562,-9.131484985351562,2.8131871223449707,-0.00931633822619915,0.0005323622026480734,0.0228915736079216
18612519401650,2.7724854946136475,-9.17577838897705,2.810792922973633,-0.013042873702943325,0.00452507846057415,0.02022976242005825
18612520638775,2.7509377002716064,-9.14585018157959,2.8610711097717285,-0.014906140975654125,0.0007985432748682797,0.01996358297765255
18612521875912,2.741360902786255,-9.14345645904541,2.8431146144866943,-0.0071868896484375,-0.0039927163161337376,0.02661811001598835
18612523113062,2.7688941955566406,-9.149441719055176,2.8119900226593018,-0.00692070834338665,-0.006122165359556675,0.0228915736079216
18612524350187,2.7748796939849854,-9.121908187866211,2.8371291160583496,-0.006122165359556675,-0.0013309054775163531,0.0223592109978199
18612525587337,2.804807424545288,-9.137471199035645,2.82515811920166,-0.0039927163161337376,-0.0015970865497365594,0.023956298828125
18612526824462,2.7700912952423096,-9.148244857788086,2.831143617630005,-0.005057440605014563,-0.0021294488105922937,0.0210283063352108
18612528061612,2.736572504043579,-9.1446533203125,2.832340717315674,-0.0063883461989462376,-0.007453070487827063,0.01463996060192585
18612529298750,2.73537540435791,-9.130288124084473,2.829946517944336,-0.005855984054505825,-0.00984870083630085,0.0244886614382267
18612530535900,2.7521347999572754,-9.126696586608887,2.8347349166870117,-0.0031941730994731188,-0.0053236219100654125,0.0244886614382267
18612531773025,2.760514497756958,-9.153033256530762,2.853888511657715,-0.005589802749454975,-0.0013309054775163531,0.0244886614382267
18612533010162,2.7473464012145996,-9.154230117797852,2.8395233154296875,-0.005589802749454975,-0.0010647244052961469,0.01597086526453495
18612534247312,2.7269957065582275,-9.161413192749023,2.84790301322937,-0.0063883461989462376,0.0018632676219567657,0.01650322787463665
18612535484437,2.740163803100586,-9.151836395263672,2.9029695987701416,-0.00692070834338665,-0.0029279920272529125,0.0228915736079216
18612536721562,2.75812029838562,-9.131484985351562,2.846705913543701,-0.0066545275039970875,0.0037265352439135313,0.0223592109978199
18612537958725,2.7090392112731934,-9.148244857788086,2.898181200027466,-0.005589802749454975,0.0031941730994731188,0.0215606689453125
18612539195837,2.7473464012145996,-9.132682800292969,2.8790276050567627,-0.0037265352439135313,-0.0021294488105922937,0.02315775491297245
18612540433012,2.738966703414917,-9.133879661560059,2.8167784214019775,-0.0053236219100654125,-0.004791259765625,0.01996358297765255
18612541670137,2.7688941955566406,-9.106346130371094,2.782062292098999,-0.012776692397892475,-0.005057440605014563,0.0181003138422966
18612542907275,2.738966703414917,-9.106346130371094,2.808398723602295,-0.005589802749454975,-0.0013309054775163531,0.01996358297765255
18612544144412,2.717418909072876,-9.154230117797852,2.8191726207733154,0.0005323622026480734,-0.0018632676219567657,0.02076212503015995
18612545381550,2.7676970958709717,-9.131484985351562,2.8167784214019775,-0.00692070834338665,-0.0015970865497365594,0.0167694091796875
18612546618687,2.7880477905273438,-9.136273384094238,2.875436305999756,-0.005855984054505825,0.0,0.0223592109978199
18612547855812,2.719813108444214,-9.123106002807617,2.8419175148010254,-0.0077192517928779125,-0.0018632676219567657,0.0228915736079216
18612549092962,2.7317841053009033,-9.17817211151123,2.806004524230957,-0.0023956298828125,-0.0077192517928779125,0.02076212503015995
18612550330112,2.7772738933563232,-9.182960510253906,2.8215668201446533,-0.0018632676219567657,-0.004791259765625,0.023956298828125
18612551567262,2.7222073078155518,-9.190143585205078,2.8586769104003906,-0.00692070834338665,-0.0002661811013240367,0.0234239362180233
18612552804375,2.7509377002716064,-9.14225959777832,2.8119900226593018,-0.00452507846057415,0.0,0.0228915736079216
18612554041512,2.784456491470337,-9.162610054016113,2.8395233154296875,-0.0039927163161337376,0.0007985432748682797,0.02129448764026165
18612555278662,2.7078421115875244,-9.170989990234375,2.82515811920166,-0.0013309054775163531,-0.00452507846057415,0.02022976242005825
18612556515787,2.734178304672241,-9.194931983947754,2.8335378170013428,-0.0015970865497365594,-0.0042588976211845875,0.0223592109978199
18612557752925,2.736572504043579,-9.204508781433105,2.7904419898986816,-0.004791259765625,-0.0071868896484375,0.02555338479578495
18612558990062,2.7114334106445312,-9.185355186462402,2.80241322517395,-0.007985432632267475,-0.0053236219100654125,0.02741665206849575
18612560227212,2.7329812049865723,-9.17817211151123,2.804807424545288,-0.008783976547420025,-0.004791259765625,0.02022976242005825
18612561464362,2.7533318996429443,-9.206902503967285,2.8838160037994385,-0.0063883461989462376,0.0002661811013240367,0.02369011752307415
18612562701475,2.7281928062438965,-9.187748908996582,2.8359320163726807,-0.005057440605014563,0.0015970865497365594,0.0244886614382267
18612563938637,2.7222073078155518,-9.244012832641602,2.851494312286377,-0.00931633822619915,-0.0018632676219567657,0.0228915736079216
18612565175750,2.737769603729248,-9.217676162719727,2.8419175148010254,-0.010381062515079975,-0.0031941730994731188,0.0223592109978199
18612566412900,2.738966703414917,-9.17817211151123,2.804807424545288,-0.004791259765625,-0.0029279920272529125,0.02661811001598835
18612567650037,2.738966703414917,-9.190143585205078,2.8455088138580322,-0.01117960549890995,-0.0007985432748682797,0.0210283063352108
18612568887175,2.7305870056152344,-9.214085578918457,2.8143842220306396,-0.01171196810901165,-0.0015970865497365594,0.0210283063352108
18612570124312,2.73537540435791,-9.23563289642334,2.8012161254882812,-0.01171196810901165,-0.0018632676219567657,0.023956298828125
18612571361450,2.7317841053009033,-9.190143585205078,2.8395233154296875,-0.0090501569211483,-0.0029279920272529125,0.02422248013317585
18612572598575,2.7293899059295654,-9.17817211151123,2.826355218887329,-0.010381062515079975,-0.0002661811013240367,0.0220930315554142
18612573835712,2.7126305103302,-9.17697525024414,2.7988219261169434,-0.014373779296875,0.0026618109550327063,0.0247548408806324
18612575072875,2.73537540435791,-9.174580574035645,2.8143842220306396,-0.0173017717897892,0.0018632676219567657,0.01943122036755085
18612576309987,2.713827610015869,-9.181763648986816,2.87064790725708,-0.0210283063352108,0.0013309054775163531,0.0210283063352108
18612577547150,2.7018566131591797,-9.206902503967285,2.810792922973633,-0.01889885775744915,-0.0015970865497365594,0.02555338479578495
18612578784287,2.7078421115875244,-9.127894401550293,2.8586769104003906,-0.0162370465695858,0.0013309054775163531,0.0258195661008358
18612580021412,2.7664999961853027,-9.137471199035645,2.809595823287964,-0.0157046839594841,0.0018632676219567657,0.0252872034907341
18612581258562,2.7114334106445312,-9.190143585205078,2.806004524230957,-0.0090501569211483,0.0026618109550327063,0.02182685025036335
18612582495687,2.7102363109588623,-9.185355186462402,2.8371291160583496,-0.01117960549890995,0.0026618109550327063,0.02076212503015995
18612583732862,2.7760767936706543,-9.190143585205078,2.8383262157440186,-0.0157046839594841,-0.0007985432748682797,0.0191650390625
18612584969975,2.713827610015869,-9.181763648986816,2.869450807571411,-0.0162370465695858,-0.0010647244052961469,0.02076212503015995
18612586207100,2.7317841053009033,-9.180566787719727,2.8407204151153564,-0.014373779296875,-0.0010647244052961469,0.0191650390625
18612587444250,2.7042508125305176,-9.17936897277832,2.8658595085144043,-0.013042873702943325,0.00452507846057415,0.02262539230287075
18612588681387,2.718616008758545,-9.2033109664917,2.823961019515991,-0.013042873702943325,0.005057440605014563,0.02369011752307415
18612589918537,2.691082715988159,-9.187748908996582,2.8131871223449707,-0.01171196810901165,0.0023956298828125,0.0247548408806324
18612591155650,2.6827030181884766,-9.23323917388916,2.851494312286377,-0.0210283063352108,-0.0013309054775163531,0.01783413253724575
18612592392812,2.7281928062438965,-9.198522567749023,2.8622682094573975,-0.02182685025036335,0.0002661811013240367,0.0247548408806324
18612593629937,2.7054479122161865,-9.198522567749023,2.87064790725708,-0.0167694091796875,0.0015970865497365594,0.0327402763068676
18612594867087,2.693476915359497,-9.17817211151123,2.8215668201446533,-0.0162370465695858,0.0021294488105922937,0.0276828333735466
18612596104225,2.715024709701538,-9.21288776397705,2.80241322517395,-0.0204959437251091,0.0018632676219567657,0.0252872034907341
18612597341337,2.7521347999572754,-9.20211410522461,2.827552318572998,-0.0181003138422966,-0.0018632676219567657,0.0292799212038517
18612598578487,2.7533318996429443,-9.208099365234375,2.829946517944336,-0.02022976242005825,0.004791259765625,0.0282151959836483
18612599815637,2.719813108444214,-9.196128845214844,2.871845006942749,-0.0204959437251091,0.0031941730994731188,0.0244886614382267
18612601052775,2.7234044075012207,-9.153033256530762,2.8670566082000732,-0.01597086526453495,0.005057440605014563,0.0276828333735466
18612602289912,2.7054479122161865,-9.182960510253906,2.8838160037994385,-0.015438503585755825,0.0037265352439135313,0.02901373989880085
18612603527037,2.7126305103302,-9.14585018157959,2.8203697204589844,-0.01783413253724575,0.0010647244052961469,0.02874755859375
18612604764200,2.697068214416504,-9.150638580322266,2.8431146144866943,-0.02129448764026165,0.0,0.0258195661008358
18612606001350,2.691082715988159,-9.137471199035645,2.868253707885742,-0.01996358297765255,0.00452507846057415,0.0338049978017807
18612607238462,2.721010208129883,-9.132682800292969,2.8431146144866943,-0.0167694091796875,-0.0013309054775163531,0.02981228195130825
18612608475612,2.7293899059295654,-9.14345645904541,2.8203697204589844,-0.0186326764523983,0.0037265352439135313,0.02874755859375
18612609712725,2.7485435009002686,-9.090784072875977,2.8562827110290527,-0.0167694091796875,0.006122165359556675,0.0258195661008358
18612610949875,2.762908697128296,-9.137471199035645,2.851494312286377,-0.0223592109978199,-0.0002661811013240367,0.0247548408806324
18612612187050,2.742558002471924,-9.170989990234375,2.8335378170013428,-0.02022976242005825,0.00692070834338665,0.0295461006462574
18612613424162,2.7269957065582275,-9.124302864074707,2.8167784214019775,-0.01943122036755085,0.005855984054505825,0.0271504707634449
18612614661287,2.7557260990142822,-9.157821655273438,2.8443117141723633,-0.0191650390625,0.0021294488105922937,0.02981228195130825
18612615898437,2.694674015045166,-9.141061782836914,2.8886044025421143,-0.01889885775744915,0.00452507846057415,0.0252872034907341
18612617135562,2.693476915359497,-9.139864921569824,2.8131871223449707,-0.01996358297765255,0.005589802749454975,0.02741665206849575
18612618372700,2.7054479122161865,-9.167398452758789,2.853888511657715,-0.01756795309484005,0.0053236219100654125,0.0268842913210392
18612619609850,2.6874914169311523,-9.138668060302734,2.875436305999756,-0.02129448764026165,0.006122165359556675,0.02981228195130825
18612620846987,2.716221809387207,-9.114726066589355,2.8143842220306396,-0.02129448764026165,0.0023956298828125,0.02555338479578495
18612622084150,2.694674015045166,-9.124302864074707,2.8622682094573975,-0.0223592109978199,0.0010647244052961469,0.0258195661008358
18612623321275,2.6803088188171387,-9.150638580322266,2.828749418258667,-0.0181003138422966,0.007453070487827063,0.0271504707634449
18612624558412,2.7006595134735107,-9.10874080657959,2.8191726207733154,-0.02076212503015995,0.012776692397892475,0.02502102218568325
18612625795550,2.718616008758545,-9.136273384094238,2.7952303886413574,-0.0244886614382267,0.00958251953125,0.02182685025036335
18612627032712,2.7246015071868896,-9.170989990234375,2.8407204151153564,-0.02022976242005825,0.0029279920272529125,0.0204959437251091
18612628269825,2.736572504043579,-9.17936897277832,2.8227639198303223,-0.0181003138422966,0.00692070834338665,0.0247548408806324
18612629506975,2.7066450119018555,-9.127894401550293,2.761711597442627,-0.0191650390625,0.00931633822619915,0.0204959437251091
18612630744100,2.691082715988159,-9.169792175292969,2.8371291160583496,-0.0268842913210392,0.008251613937318325,0.0252872034907341
18612631981250,2.691082715988159,-9.14585018157959,2.8646624088287354,-0.0173017717897892,0.008783976547420025,0.0252872034907341
18612633218375,2.7269957065582275,-9.148244857788086,2.8371291160583496,-0.0157046839594841,0.01224433071911335,0.02022976242005825
18612634455525,2.7114334106445312,-9.105149269104004,2.8143842220306396,-0.0234239362180233,0.010647243820130825,0.02262539230287075
18612635692662,2.742558002471924,-9.14585018157959,2.782062292098999,-0.0204959437251091,0.0114457868039608,0.02262539230287075
18612636929787,2.7042508125305176,-9.14345645904541,2.8347349166870117,-0.0204959437251091,0.0119781494140625,0.0234239362180233
18612638166937,2.717418909072876,-9.161413192749023,2.852691411972046,-0.0215606689453125,0.008251613937318325,0.02901373989880085
18612639404087,2.7257986068725586,-9.1662015914917,2.8407204151153564,-0.0186326764523983,0.006122165359556675,0.0258195661008358
18612640641212,2.713827610015869,-9.17577838897705,2.8119900226593018,-0.0191650390625,0.013042873702943325,0.0247548408806324
18612641878350,2.7257986068725586,-9.153033256530762,2.826355218887329,-0.0181003138422966,0.01410759799182415,0.0223592109978199
18612643115500,2.7066450119018555,-9.113529205322266,2.826355218887329,-0.01703559048473835,0.010381062515079975,0.0223592109978199
18612644352625,2.715024709701538,-9.125499725341797,2.7988219261169434,-0.01836649514734745,0.00984870083630085,0.02315775491297245
18612645589762,2.713827610015869,-9.139864921569824,2.8179755210876465,-0.01597086526453495,0.010913425125181675,0.0215606689453125
18612646826900,2.669534921646118,-9.168595314025879,2.8359320163726807,-0.0167694091796875,0.0119781494140625,0.0191650390625
18612648064037,2.6659436225891113,-9.193734169006348,2.810792922973633,-0.01756795309484005,0.00958251953125,0.0204959437251091
18612649301187,2.694674015045166,-9.10993766784668,2.8431146144866943,-0.01756795309484005,0.01463996060192585,0.01889885775744915
18612650538312,2.6862943172454834,-9.14225959777832,2.8826189041137695,-0.013309055007994175,0.0157046839594841,0.0186326764523983
18612651775462,2.73537540435791,-9.093177795410156,2.8658595085144043,-0.015172322280704975,0.014906140975654125,0.0162370465695858
18612653012600,2.650381326675415,-9.125499725341797,2.8215668201446533,-0.01357523538172245,0.01410759799182415,0.014906140975654125
18612654249737,2.6815059185028076,-9.126696586608887,2.8143842220306396,-0.0119781494140625,0.0090501569211483,0.0173017717897892
18612655486875,2.715024709701538,-9.14345645904541,2.7904419898986816,-0.0223592109978199,0.0157046839594841,0.012776692397892475
18612656724012,2.6803088188171387,-9.137471199035645,2.8443117141723633,-0.01889885775744915,0.01410759799182415,0.0173017717897892
18612657961137,2.7006595134735107,-9.141061782836914,2.8347349166870117,-0.01410759799182415,0.0173017717897892,0.0191650390625
18612659198300,2.721010208129883,-9.100360870361328,2.80241322517395,-0.013042873702943325,0.0167694091796875,0.01463996060192585
18612660435400,2.7042508125305176,-9.14585018157959,2.8227639198303223,-0.0138414166867733,0.010114881210029125,0.0223592109978199
18612661672537,2.6815059185028076,-9.149441719055176,2.8778305053710938,-0.010913425125181675,0.0157046839594841,0.0191650390625
18612662909700,2.7102363109588623,-9.168595314025879,2.808398723602295,-0.007453070487827063,0.01597086526453495,0.01650322787463665
18612664146837,2.7030537128448486,-9.114726066589355,2.8119900226593018,-0.0077192517928779125,0.015172322280704975,0.01650322787463665
18612665384000,2.7521347999572754,-9.114726066589355,2.8419175148010254,-0.015172322280704975,0.01597086526453495,0.01650322787463665
18612666621100,2.7305870056152344,-9.126696586608887,2.8658595085144043,-0.00931633822619915,0.0114457868039608,0.0157046839594841
18612667858262,2.7078421115875244,-9.153033256530762,2.8347349166870117,-0.01117960549890995,0.01783413253724575,0.01996358297765255
18612669095387,2.677914619445801,-9.149441719055176,2.8598740100860596,-0.00958251953125,0.02555338479578495,0.01783413253724575
18612670332537,2.7042508125305176,-9.119514465332031,2.829946517944336,-0.005589802749454975,0.0210283063352108,0.02262539230287075
18612671569662,2.7078421115875244,-9.105149269104004,2.871845006942749,-0.00931633822619915,0.01836649514734745,0.01650322787463665
18612672806825,2.6839001178741455,-9.163806915283203,2.8443117141723633,-0.0066545275039970875,0.0215606689453125,0.01597086526453495
18612674043962,2.6874914169311523,-9.1662015914917,2.851494312286377,-0.0157046839594841,0.01703559048473835,0.01943122036755085
18612675281087,2.6599581241607666,-9.162610054016113,2.8359320163726807,-0.0167694091796875,0.014906140975654125,0.01783413253724575
18612676518225,2.6671407222747803,-9.101557731628418,2.7976248264312744,-0.010913425125181675,0.01889885775744915,0.0167694091796875
18612677755362,2.713827610015869,-9.113529205322266,2.869450807571411,-0.008251613937318325,0.0210283063352108,0.0196974016726017
18612678992525,2.6815059185028076,-9.151836395263672,2.8562827110290527,-0.01224433071911335,0.0196974016726017,0.0181003138422966
18612680229637,2.7078421115875244,-9.100360870361328,2.855085611343384,-0.01171196810901165,0.0204959437251091,0.0210283063352108
18612681466800,2.721010208129883,-9.160215377807617,2.853888511657715,-0.0042588976211845875,0.0220930315554142,0.02608574740588665
18612682703912,2.694674015045166,-9.11233139038086,2.8383262157440186,-0.008517795242369175,0.0210283063352108,0.0220930315554142
18612683941062,2.6874914169311523,-9.135076522827148,2.8215668201446533,-0.008251613937318325,0.02076212503015995,0.0181003138422966
18612685178200,2.691082715988159,-9.135076522827148,2.8359320163726807,-0.0066545275039970875,0.02076212503015995,0.01996358297765255
18612686415350,2.6791117191314697,-9.138668060302734,2.78086519241333,-0.007453070487827063,0.0210283063352108,0.0173017717897892
18612687652475,2.7018566131591797,-9.132682800292969,2.8215668201446533,-0.0039927163161337376,0.023956298828125,0.02022976242005825
18612688889625,2.7102363109588623,-9.151836395263672,2.8455088138580322,-0.005855984054505825,0.0228915736079216,0.0196974016726017
18612690126762,2.721010208129883,-9.180566787719727,2.823961019515991,-0.0119781494140625,0.0220930315554142,0.0204959437251091
18612691363912,2.671929121017456,-9.194931983947754,2.8431146144866943,-0.0119781494140625,0.02076212503015995,0.02182685025036335
18612692601037,2.716221809387207,-9.1662015914917,2.8383262157440186,-0.006122165359556675,0.02182685025036335,0.0191650390625
18612693838187,2.698265314102173,-9.157821655273438,2.8143842220306396,-0.0031941730994731188,0.0204959437251091,0.0223592109978199
18612695075312,2.7054479122161865,-9.138668060302734,2.8395233154296875,-0.00452507846057415,0.01943122036755085,0.0268842913210392
18612696312450,2.721010208129883,-9.161413192749023,2.8191726207733154,-0.010381062515079975,0.0196974016726017,0.02555338479578495
18612697549587,2.715024709701538,-9.173383712768555,2.8143842220306396,-0.007985432632267475,0.023956298828125,0.0234239362180233
18612698786725,2.692279815673828,-9.151836395263672,2.850297212600708,-0.004791259765625,0.0228915736079216,0.0234239362180233
18612700023862,2.7006595134735107,-9.148244857788086,2.8119900226593018,-0.0053236219100654125,0.0215606689453125,0.02129448764026165
18612701261012,2.7030537128448486,-9.184157371520996,2.828749418258667,-0.0042588976211845875,0.02369011752307415,0.02422248013317585
18612702498150,2.7317841053009033,-9.185355186462402,2.8012161254882812,-0.010114881210029125,0.02608574740588665,0.01996358297765255
18612703735287,2.692279815673828,-9.162610054016113,2.8131871223449707,-0.00931633822619915,0.02794901467859745,0.01783413253724575
18612704972437,2.7102363109588623,-9.17817211151123,2.8203697204589844,-0.008783976547420025,0.0271504707634449,0.02129448764026165
18612706209562,2.7042508125305176,-9.160215377807617,2.827552318572998,-0.008783976547420025,0.0204959437251091,0.0234239362180233
18612707446687,2.6862943172454834,-9.17817211151123,2.831143617630005,-0.0063883461989462376,0.0204959437251091,0.0228915736079216
18612708683850,2.7054479122161865,-9.173383712768555,2.7880477905273438,-0.006122165359556675,0.02369011752307415,0.02369011752307415
18612709920987,2.6623523235321045,-9.174580574035645,2.8347349166870117,-0.007985432632267475,0.0223592109978199,0.01703559048473835
18612711158125,2.7030537128448486,-9.165003776550293,2.8383262157440186,-0.008783976547420025,0.02182685025036335,0.02502102218568325
18612712395275,2.7126305103302,-9.153033256530762,2.810792922973633,-0.00984870083630085,0.02315775491297245,0.02422248013317585
18612713632387,2.7329812049865723,-9.1446533203125,2.807201623916626,-0.00984870083630085,0.0196974016726017,0.02502102218568325
18612714869550,2.7234044075012207,-9.153033256530762,2.8012161254882812,-0.007453070487827063,0.02315775491297245,0.0181003138422966
18612716106687,2.7509377002716064,-9.138668060302734,2.8443117141723633,-0.005057440605014563,0.015172322280704975,0.01996358297765255
18612717343800,2.6898856163024902,-9.168595314025879,2.7928361892700195,-0.008783976547420025,0.0191650390625,0.0220930315554142
18612718580950,2.7006595134735107,-9.194931983947754,2.8443117141723633,-0.0066545275039970875,0.02608574740588665,0.02502102218568325
18612719818087,2.7257986068725586,-9.14345645904541,2.8419175148010254,-0.0077192517928779125,0.02182685025036335,0.02422248013317585
18612721055237,2.673126220703125,-9.14585018157959,2.8227639198303223,-0.010114881210029125,0.0228915736079216,0.02129448764026165
18612722292375,2.6886885166168213,-9.180566787719727,2.8179755210876465,-0.008517795242369175,0.02262539230287075,0.01783413253724575
18612723529500,2.694674015045166,-9.191340446472168,2.8610711097717285,-0.00931633822619915,0.0210283063352108,0.01783413253724575
18612724766637,2.716221809387207,-9.2033109664917,2.829946517944336,-0.0077192517928779125,0.02129448764026165,0.0210283063352108
18612726003800,2.7257986068725586,-9.21288776397705,2.831143617630005,-0.01410759799182415,0.01996358297765255,0.0173017717897892
18612727240912,2.7281928062438965,-9.169792175292969,2.828749418258667,-0.01597086526453495,0.0204959437251091,0.01703559048473835
18612728478075,2.73537540435791,-9.17817211151123,2.827552318572998,-0.008251613937318325,0.02022976242005825,0.01783413253724575
18612729715200,2.7126305103302,-9.204508781433105,2.826355218887329,-0.007985432632267475,0.02129448764026165,0.01996358297765255
18612730952350,2.7329812049865723,-9.160215377807617,2.826355218887329,-0.0090501569211483,0.0186326764523983,0.0196974016726017
18612732189487,2.699462413787842,-9.181763648986816,2.868253707885742,-0.0066545275039970875,0.0196974016726017,0.0191650390625
18612733426637,2.718616008758545,-9.17577838897705,2.807201623916626,-0.008783976547420025,0.01783413253724575,0.02129448764026165
18612734663762,2.7257986068725586,-9.162610054016113,2.829946517944336,-0.00984870083630085,0.02022976242005825,0.0228915736079216
18612735900887,2.7281928062438965,-9.19972038269043,2.8443117141723633,-0.008783976547420025,0.0196974016726017,0.0196974016726017
18612737138037,2.713827610015869,-9.17697525024414,2.849100112915039,-0.01597086526453495,0.01996358297765255,0.01783413253724575
18612738375175,2.7066450119018555,-9.17817211151123,2.8610711097717285,-0.013309055007994175,0.0210283063352108,0.01889885775744915
18612739612325,2.6898856163024902,-9.169792175292969,2.852691411972046,-0.0090501569211483,0.0228915736079216,0.01889885775744915
18612740849450,2.697068214416504,-9.156624794006348,2.8203697204589844,-0.013309055007994175,0.0196974016726017,0.01597086526453495
18612742086612,2.7054479122161865,-9.168595314025879,2.8012161254882812,-0.01783413253724575,0.0181003138422966,0.01943122036755085
18612743323737,2.7305870056152344,-9.209297180175781,2.7892448902130127,-0.013309055007994175,0.01650322787463665,0.0191650390625
18612744560887,2.738966703414917,-9.20211410522461,2.7772738933563232,-0.010647243820130825,0.0181003138422966,0.01756795309484005
18612745798012,2.715024709701538,-9.157821655273438,2.8131871223449707,-0.00958251953125,0.01357523538172245,0.0162370465695858
18612747035137,2.7437551021575928,-9.194931983947754,2.8000190258026123,-0.013042873702943325,0.013042873702943325,0.02182685025036335
18612748272287,2.7293899059295654,-9.185355186462402,2.8646624088287354,-0.01357523538172245,0.015172322280704975,0.02422248013317585
18612749509425,2.7293899059295654,-9.192537307739258,2.8203697204589844,-0.0138414166867733,0.01117960549890995,0.0186326764523983
18612750746562,2.740163803100586,-9.210494041442871,2.831143617630005,-0.01756795309484005,0.012776692397892475,0.0167694091796875
18612751983712,2.738966703414917,-9.193734169006348,2.8562827110290527,-0.0186326764523983,0.012510511092841625,0.01703559048473835
18612753220850,2.7006595134735107,-9.198522567749023,2.8227639198303223,-0.01650322787463665,0.01836649514734745,0.01597086526453495
18612754457987,2.7257986068725586,-9.194931983947754,2.828749418258667,-0.01357523538172245,0.013042873702943325,0.01756795309484005
18612755695137,2.713827610015869,-9.165003776550293,2.8407204151153564,-0.0196974016726017,0.0119781494140625,0.015438503585755825
18612756932262,2.742558002471924,-9.1662015914917,2.8191726207733154,-0.01463996060192585,0.012510511092841625,0.01703559048473835
18612758169400,2.6898856163024902,-9.186552047729492,2.852691411972046,-0.01410759799182415,0.0138414166867733,0.0186326764523983
18612759406550,2.7222073078155518,-9.156624794006348,2.8431146144866943,-0.0138414166867733,0.015438503585755825,0.013309055007994175
18612760643687,2.713827610015869,-9.148244857788086,2.8670566082000732,-0.01889885775744915,0.01703559048473835,0.0138414166867733
18612761880800,2.7317841053009033,-9.160215377807617,2.8802247047424316,-0.0204959437251091,0.0119781494140625,0.015172322280704975
18612763117950,2.719813108444214,-9.168595314025879,2.87064790725708,-0.0181003138422966,0.014906140975654125,0.01650322787463665
18612764355100,2.7557260990142822,-9.14225959777832,2.808398723602295,-0.0167694091796875,0.0119781494140625,0.01171196810901165
18612765592237,2.716221809387207,-9.168595314025879,2.8443117141723633,-0.01117960549890995,0.0071868896484375,0.01117960549890995
18612766829387,2.741360902786255,-9.159018516540527,2.8586769104003906,-0.01357523538172245,0.01117960549890995,0.01357523538172245
18612768066525,2.7006595134735107,-9.193734169006348,2.84790301322937,-0.01703559048473835,0.015172322280704975,0.01756795309484005
18612769303650,2.7030537128448486,-9.14585018157959,2.8227639198303223,-0.01597086526453495,0.014906140975654125,0.01943122036755085
18612770540800,2.693476915359497,-9.17817211151123,2.827552318572998,-0.0196974016726017,0.00984870083630085,0.0114457868039608
18612771777937,2.73537540435791,-9.139864921569824,2.7928361892700195,-0.01597086526453495,0.0042588976211845875,0.010647243820130825
18612773015075,2.721010208129883,-9.14345645904541,2.8347349166870117,-0.014373779296875,0.0066545275039970875,0.01783413253724575
18612774252200,2.691082715988159,-9.185355186462402,2.849100112915039,-0.014906140975654125,0.008251613937318325,0.0114457868039608
18612775489337,2.692279815673828,-9.113529205322266,2.8335378170013428,-0.015172322280704975,0.0071868896484375,0.0114457868039608
18612776726475,2.7066450119018555,-9.165003776550293,2.8598740100860596,-0.0181003138422966,0.007453070487827063,0.01357523538172245
18612777963625,2.7234044075012207,-9.148244857788086,2.829946517944336,-0.0191650390625,0.0066545275039970875,0.010647243820130825
18612779200775,2.7054479122161865,-9.14345645904541,2.8371291160583496,-0.01703559048473835,0.00984870083630085,0.0039927163161337376
18612780437912,2.6791117191314697,-9.172186851501465,2.890998601913452,-0.01597086526453495,0.0090501569211483,0.005855984054505825
18612781675050,2.6815059185028076,-9.113529205322266,2.8622682094573975,-0.02422248013317585,0.0031941730994731188,0.010381062515079975
18612782912200,2.760514497756958,-9.119514465332031,2.828749418258667,-0.02022976242005825,0.007985432632267475,0.0077192517928779125
18612784149312,2.7054479122161865,-9.151836395263672,2.8407204151153564,-0.01889885775744915,0.008251613937318325,0.0042588976211845875
18612785386437,2.7293899059295654,-9.121908187866211,2.855085611343384,-0.015438503585755825,0.0039927163161337376,0.010913425125181675
18612786623612,2.718616008758545,-9.093177795410156,2.823961019515991,-0.0167694091796875,0.005057440605014563,0.010647243820130825
18612787860725,2.7054479122161865,-9.133879661560059,2.855085611343384,-0.01410759799182415,0.005855984054505825,0.0013309054775163531
18612789097875,2.7066450119018555,-9.138668060302734,2.8646624088287354,-0.015438503585755825,0.007453070487827063,0.0026618109550327063
18612790335025,2.699462413787842,-9.120711326599121,2.810792922973633,-0.01889885775744915,0.00452507846057415,0.00692070834338665
18612791572150,2.7018566131591797,-9.123106002807617,2.875436305999756,-0.0196974016726017,0.00452507846057415,0.005855984054505825
18612792809300,2.697068214416504,-9.07522201538086,2.855085611343384,-0.0162370465695858,0.0029279920272529125,0.00692070834338665
18612794046425,2.715024709701538,-9.113529205322266,2.82515811920166,-0.0167694091796875,0.0023956298828125,0.0018632676219567657
18612795283587,2.7509377002716064,-9.082404136657715,2.8395233154296875,-0.01597086526453495,0.0071868896484375,-0.0002661811013240367
18612796520712,2.717418909072876,-9.084798812866211,2.849100112915039,-0.0167694091796875,0.0023956298828125,0.0023956298828125
18612797757862,2.7222073078155518,-9.120711326599121,2.850297212600708,-0.01357523538172245,0.0029279920272529125,0.0021294488105922937
18612798995000,2.7485435009002686,-9.089587211608887,2.874239206314087,-0.01650322787463665,0.0018632676219567657,0.0063883461989462376
18612800232112,2.719813108444214,-9.117119789123535,2.8347349166870117,-0.01783413253724575,0.0007985432748682797,0.0077192517928779125
18612801469275,2.718616008758545,-9.115922927856445,2.8586769104003906,-0.01783413253724575,-0.0015970865497365594,0.0037265352439135313
18612802706425,2.741360902786255,-9.093177795410156,2.852691411972046,-0.01756795309484005,0.0015970865497365594,-0.0007985432748682797
18612803943550,2.7030537128448486,-9.115922927856445,2.8610711097717285,-0.01597086526453495,0.0023956298828125,-0.0023956298828125
18612805180700,2.7054479122161865,-9.089587211608887,2.8574798107147217,-0.01836649514734745,0.0037265352439135313,-0.004791259765625
18612806417812,2.7281928062438965,-9.11113452911377,2.8179755210876465,-0.01703559048473835,-0.0005323622026480734,-0.003460354171693325
18612807654975,2.7257986068725586,-9.130288124084473,2.8155813217163086,-0.015172322280704975,-0.0015970865497365594,-0.0023956298828125
18612808892100,2.699462413787842,-9.141061782836914,2.8227639198303223,-0.012776692397892475,-0.0015970865497365594,-0.0013309054775163531
18612810129250,2.734178304672241,-9.125499725341797,2.8215668201446533,-0.013042873702943325,-0.0013309054775163531,-0.005589802749454975
18612811366375,2.6862943172454834,-9.114726066589355,2.8431146144866943,-0.0167694091796875,-0.0005323622026480734,-0.010647243820130825
18612812603525,2.7066450119018555,-9.114726066589355,2.849100112915039,-0.015438503585755825,-0.0002661811013240367,-0.0031941730994731188
18612813840662,2.674323320388794,-9.127894401550293,2.8419175148010254,-0.0114457868039608,-0.0039927163161337376,-0.0010647244052961469
18612815077800,2.740163803100586,-9.150638580322266,2.8407204151153564,-0.01117960549890995,0.0031941730994731188,-0.0119781494140625
18612816314925,2.7317841053009033,-9.118317604064941,2.7916390895843506,-0.010381062515079975,0.0013309054775163531,-0.005855984054505825
18612817552100,2.742558002471924,-9.135076522827148,2.810792922973633,-0.01650322787463665,-0.0007985432748682797,-0.0042588976211845875
18612818789212,2.7126305103302,-9.125499725341797,2.8155813217163086,-0.01756795309484005,-0.0007985432748682797,-0.006122165359556675
18612820026362,2.7066450119018555,-9.149441719055176,2.8562827110290527,-0.013309055007994175,-0.0029279920272529125,-0.0090501569211483
18612821263500,2.7042508125305176,-9.147047996520996,2.8407204151153564,-0.012776692397892475,0.0,-0.007453070487827063
18612822500625,2.7281928062438965,-9.114726066589355,2.8371291160583496,-0.013309055007994175,0.0005323622026480734,-0.00984870083630085
18612823737775,2.6647465229034424,-9.149441719055176,2.8598740100860596,-0.010381062515079975,0.0005323622026480734,-0.0071868896484375
18612824974912,2.7054479122161865,-9.147047996520996,2.8646624088287354,-0.010913425125181675,-0.0002661811013240367,-0.0071868896484375
18612826212062,2.7030537128448486,-9.157821655273438,2.8215668201446533,-0.010647243820130825,-0.0037265352439135313,-0.01171196810901165
18612827449200,2.6647465229034424,-9.113529205322266,2.8622682094573975,-0.008783976547420025,0.0021294488105922937,-0.0077192517928779125
18612828686325,2.734178304672241,-9.120711326599121,2.7940332889556885,-0.00958251953125,0.0,-0.010114881210029125
18612829923487,2.694674015045166,-9.115922927856445,2.8359320163726807,-0.010114881210029125,0.0026618109550327063,-0.005057440605014563
18612831160600,2.7557260990142822,-9.102754592895508,2.831143617630005,-0.01463996060192585,0.0018632676219567657,-0.00984870083630085
18612832397750,2.721010208129883,-9.148244857788086,2.8407204151153564,-0.010913425125181675,0.00452507846057415,-0.012510511092841625
18612833634862,2.7102363109588623,-9.100360870361328,2.8646624088287354,-0.010647243820130825,0.0039927163161337376,-0.014373779296875
18612834872025,2.716221809387207,-9.124302864074707,2.832340717315674,-0.01224433071911335,0.0002661811013240367,-0.010381062515079975
18612836109150,2.7317841053009033,-9.141061782836914,2.809595823287964,-0.007985432632267475,0.0,-0.007985432632267475
18612837346300,2.7114334106445312,-9.163806915283203,2.850297212600708,-0.010381062515079975,0.0015970865497365594,-0.010381062515079975
18612838583450,2.715024709701538,-9.151836395263672,2.8335378170013428,-0.013042873702943325,0.0026618109550327063,-0.01357523538172245
18612839820587,2.6839001178741455,-9.114726066589355,2.827552318572998,-0.01943122036755085,0.0042588976211845875,-0.01650322787463665
18612841057725,2.7066450119018555,-9.103952407836914,2.823961019515991,-0.0090501569211483,0.0010647244052961469,-0.01463996060192585
18612842294862,2.6886885166168213,-9.135076522827148,2.7940332889556885,-0.012510511092841625,0.0037265352439135313,-0.0167694091796875
18612843532000,2.7114334106445312,-9.173383712768555,2.871845006942749,-0.010114881210029125,0.0021294488105922937,-0.015438503585755825
18612844769162,2.6635494232177734,-9.14225959777832,2.8395233154296875,-0.010114881210029125,-0.0023956298828125,-0.0186326764523983
18612846006275,2.736572504043579,-9.1662015914917,2.8215668201446533,-0.01171196810901165,-0.005057440605014563,-0.0181003138422966
18612847243412,2.6839001178741455,-9.115922927856445,2.8359320163726807,-0.01357523538172245,0.0042588976211845875,-0.02129448764026165
18612848480550,2.6815059185028076,-9.172186851501465,2.8586769104003906,-0.01171196810901165,0.0039927163161337376,-0.0215606689453125
18612849717687,2.673126220703125,-9.132682800292969,2.8371291160583496,-0.00958251953125,0.00452507846057415,-0.0191650390625
18612850954825,2.740163803100586,-9.127894401550293,2.8622682094573975,-0.01357523538172245,0.004791259765625,-0.0215606689453125
18612852191987,2.719813108444214,-9.153033256530762,2.8574798107147217,-0.0063883461989462376,0.0071868896484375,-0.02182685025036335
18612853429125,2.6898856163024902,-9.141061782836914,2.803610324859619,-0.00958251953125,0.003460354171693325,-0.0220930315554142
18612854666250,2.674323320388794,-9.137471199035645,2.806004524230957,-0.008783976547420025,0.00452507846057415,-0.0223592109978199
18612855903387,2.677914619445801,-9.141061782836914,2.7880477905273438,-0.012776692397892475,0.00692070834338665,-0.01783413253724575
18612857140525,2.697068214416504,-9.163806915283203,2.828749418258667,-0.0119781494140625,0.006122165359556675,-0.02022976242005825
18612858377650,2.719813108444214,-9.163806915283203,2.823961019515991,-0.00931633822619915,0.0077192517928779125,-0.0210283063352108
18612859614800,2.717418909072876,-9.159018516540527,2.807201623916626,-0.0090501569211483,0.010381062515079975,-0.0186326764523983
18612860851937,2.742558002471924,-9.162610054016113,2.8359320163726807,-0.0114457868039608,0.0053236219100654125,-0.0210283063352108
18612862089087,2.673126220703125,-9.138668060302734,2.8335378170013428,-0.00958251953125,0.010114881210029125,-0.0247548408806324
18612863326225,2.670732021331787,-9.153033256530762,2.829946517944336,-0.0077192517928779125,0.01171196810901165,-0.02315775491297245
18612864563362,2.6874914169311523,-9.124302864074707,2.785653591156006,-0.0090501569211483,0.01410759799182415,-0.0215606689453125
18612865800487,2.7102363109588623,-9.172186851501465,2.851494312286377,-0.0090501569211483,0.013309055007994175,-0.0210283063352108
18612867037650,2.698265314102173,-9.147047996520996,2.82515811920166,-0.0026618109550327063,0.005855984054505825,-0.0186326764523983
18612868274787,2.6874914169311523,-9.161413192749023,2.828749418258667,-0.008517795242369175,0.00931633822619915,-0.02076212503015995
18612869511925,2.693476915359497,-9.172186851501465,2.803610324859619,-0.00958251953125,0.012510511092841625,-0.0228915736079216
18612870749050,2.695871114730835,-9.163806915283203,2.7976248264312744,-0.008517795242369175,0.010913425125181675,-0.0215606689453125
18612871986212,2.7006595134735107,-9.172186851501465,2.807201623916626,-0.01171196810901165,0.00931633822619915,-0.01889885775744915
18612873223350,2.7018566131591797,-9.163806915283203,2.7916390895843506,-0.013309055007994175,0.0114457868039608,-0.0181003138422966
18612874460487,2.697068214416504,-9.129091262817383,2.82515811920166,-0.00692070834338665,0.014906140975654125,-0.0181003138422966
18612875697600,2.7030537128448486,-9.172186851501465,2.829946517944336,-0.0063883461989462376,0.01117960549890995,-0.02076212503015995
18612876934775,2.6850972175598145,-9.163806915283203,2.803610324859619,-0.008251613937318325,0.0138414166867733,-0.0247548408806324
18612878171912,2.7509377002716064,-9.169792175292969,2.7916390895843506,-0.005855984054505825,0.014906140975654125,-0.02022976242005825
18612879409037,2.736572504043579,-9.182960510253906,2.7952303886413574,-0.00958251953125,0.01650322787463665,-0.01889885775744915
18612880646175,2.716221809387207,-9.153033256530762,2.8143842220306396,-0.008251613937318325,0.012776692397892475,-0.0173017717897892
18612881883325,2.73537540435791,-9.162610054016113,2.851494312286377,-0.0077192517928779125,0.015438503585755825,-0.02262539230287075
18612883120462,2.6803088188171387,-9.184157371520996,2.8443117141723633,-0.00958251953125,0.015172322280704975,-0.02369011752307415
18612884357587,2.7281928062438965,-9.167398452758789,2.8191726207733154,-0.012776692397892475,0.015172322280704975,-0.02315775491297245
18612885594737,2.7281928062438965,-9.1446533203125,2.80241322517395,-0.012776692397892475,0.02129448764026165,-0.01996358297765255
18612886831887,2.736572504043579,-9.137471199035645,2.8143842220306396,-0.007453070487827063,0.02182685025036335,-0.01836649514734745
18612888069000,2.7066450119018555,-9.14225959777832,2.7988219261169434,-0.010913425125181675,0.0167694091796875,-0.023956298828125
18612889306162,2.717418909072876,-9.14345645904541,2.852691411972046,-0.010913425125181675,0.01836649514734745,-0.01836649514734745
18612890543287,2.7281928062438965,-9.17697525024414,2.8215668201446533,-0.015438503585755825,0.02022976242005825,-0.0223592109978199
18612891780462,2.737769603729248,-9.159018516540527,2.808398723602295,-0.0162370465695858,0.01756795309484005,-0.0210283063352108
18612893017575,2.7257986068725586,-9.187748908996582,2.7964274883270264,-0.013042873702943325,0.01463996060192585,-0.0191650390625
18612894254725,2.713827610015869,-9.170989990234375,2.803610324859619,-0.010114881210029125,0.015172322280704975,-0.013309055007994175
18612895491862,2.740163803100586,-9.17577838897705,2.8335378170013428,-0.01171196810901165,0.01996358297765255,-0.01650322787463665
18612896728975,2.7257986068725586,-9.153033256530762,2.8335378170013428,-0.0138414166867733,0.0228915736079216,-0.0181003138422966
18612897966150,2.7102363109588623,-9.165003776550293,2.832340717315674,-0.01357523538172245,0.023956298828125,-0.01943122036755085
18612899203275,2.7329812049865723,-9.180566787719727,2.8347349166870117,-0.007985432632267475,0.02422248013317585,-0.01756795309484005
18612900440412,2.7545289993286133,-9.192537307739258,2.7940332889556885,-0.00958251953125,0.02608574740588665,-0.015438503585755825
18612901677537,2.7317841053009033,-9.205705642700195,2.782062292098999,-0.01597086526453495,0.0210283063352108,-0.02129448764026165
18612902914700,2.734178304672241,-9.19972038269043,2.8179755210876465,-0.010913425125181675,0.0223592109978199,-0.0167694091796875
18612904151825,2.715024709701538,-9.182960510253906,2.7772738933563232,-0.00984870083630085,0.0247548408806324,-0.0114457868039608
18612905388962,2.7940332889556885,-9.180566787719727,2.7700912952423096,-0.01171196810901165,0.02182685025036335,-0.014373779296875
18612906626112,2.699462413787842,-9.174580574035645,2.8203697204589844,-0.015438503585755825,0.01996358297765255,-0.01597086526453495
18612907863237,2.7305870056152344,-9.206902503967285,2.7904419898986816,-0.015172322280704975,0.02076212503015995,-0.01117960549890995
18612909100375,2.7281928062438965,-9.169792175292969,2.7916390895843506,-0.014373779296875,0.02608574740588665,-0.01783413253724575
18612910337525,2.7281928062438965,-9.220070838928223,2.804807424545288,-0.01889885775744915,0.0276828333735466,-0.015438503585755825
18612911574662,2.7557260990142822,-9.215282440185547,2.7940332889556885,-0.01357523538172245,0.0234239362180233,-0.0119781494140625
18612912811800,2.7269957065582275,-9.17577838897705,2.80241322517395,-0.010114881210029125,0.02315775491297245,-0.010647243820130825
18612914048975,2.7533318996429443,-9.191340446472168,2.8359320163726807,-0.015438503585755825,0.03034464456140995,-0.01357523538172245
18612915286100,2.7748796939849854,-9.20091724395752,2.806004524230957,-0.01703559048473835,0.0282151959836483,-0.015172322280704975
18612916523212,2.7281928062438965,-9.196128845214844,2.8155813217163086,-0.014373779296875,0.02794901467859745,-0.014373779296875
18612917760375,2.737769603729248,-9.20091724395752,2.7928361892700195,-0.01650322787463665,0.0276828333735466,-0.012776692397892475
18612918997500,2.803610324859619,-9.214085578918457,2.7724854946136475,-0.014906140975654125,0.0314093679189682,-0.015172322280704975
18612920234650,2.740163803100586,-9.209297180175781,2.829946517944336,-0.01463996060192585,0.0346035435795784,-0.00931633822619915
18612921471775,2.7485435009002686,-9.20091724395752,2.783259391784668,-0.01597086526453495,0.0282151959836483,-0.013309055007994175
18612922708912,2.736572504043579,-9.214085578918457,2.80241322517395,-0.012510511092841625,0.0244886614382267,-0.0119781494140625
18612923946062,2.7724854946136475,-9.174580574035645,2.8179755210876465,-0.015438503585755825,0.0300784632563591,-0.010114881210029125
18612925183187,2.7988219261169434,-9.182960510253906,2.764105796813965,-0.01756795309484005,0.0300784632563591,-0.010381062515079975
18612926420350,2.7748796939849854,-9.163806915283203,2.7952303886413574,-0.0191650390625,0.02981228195130825,-0.0071868896484375
18612927657487,2.7305870056152344,-9.165003776550293,2.8012161254882812,-0.01171196810901165,0.02901373989880085,-0.008783976547420025
18612928894612,2.7952303886413574,-9.190143585205078,2.807201623916626,-0.0114457868039608,0.0348697230219841,-0.010114881210029125
18612930131750,2.8143842220306396,-9.204508781433105,2.7928361892700195,-0.01650322787463665,0.0316755510866642,-0.007985432632267475
18612931368900,2.784456491470337,-9.20211410522461,2.7724854946136475,-0.01650322787463665,0.03034464456140995,-0.0029279920272529125
18612932606037,2.7904419898986816,-9.17936897277832,2.8131871223449707,-0.0138414166867733,0.02981228195130825,-0.005855984054505825
18612933843187,2.804807424545288,-9.193734169006348,2.759317398071289,-0.0138414166867733,0.0271504707634449,-0.0071868896484375
18612935080325,2.8000190258026123,-9.210494041442871,2.7880477905273438,-0.0173017717897892,0.0295461006462574,-0.005589802749454975
18612936317462,2.7928361892700195,-9.204508781433105,2.8167784214019775,-0.0162370465695858,0.02901373989880085,-0.0013309054775163531
18612937554587,2.8395233154296875,-9.218873977661133,2.762908697128296,-0.0181003138422966,0.0295461006462574,-0.0023956298828125
18612938791737,2.826355218887329,-9.21288776397705,2.7952303886413574,-0.01756795309484005,0.0319417305290699,-0.0018632676219567657
18612940028875,2.809595823287964,-9.181763648986816,2.809595823287964,-0.01889885775744915,0.03087700717151165,0.0029279920272529125
18612941266012,2.7880477905273438,-9.174580574035645,2.78086519241333,-0.02022976242005825,0.0271504707634449,0.0010647244052961469
18612942503150,2.7736825942993164,-9.187748908996582,2.7772738933563232,-0.02076212503015995,0.0322079136967659,0.003460354171693325
18612943740300,2.7928361892700195,-9.20091724395752,2.779668092727661,-0.014906140975654125,0.03087700717151165,0.0005323622026480734
18612944977450,2.8167784214019775,-9.238027572631836,2.778470993041992,-0.01650322787463665,0.0300784632563591,0.0037265352439135313
18612946214562,2.8012161254882812,-9.21288776397705,2.765302896499634,-0.02182685025036335,0.02874755859375,0.0026618109550327063
18612947451725,2.8227639198303223,-9.249998092651367,2.7964274883270264,-0.01597086526453495,0.02741665206849575,0.0039927163161337376
18612948688850,2.7952303886413574,-9.190143585205078,2.761711597442627,-0.01756795309484005,0.02608574740588665,0.006122165359556675
18612949926000,2.827552318572998,-9.205705642700195,2.80241322517395,-0.0220930315554142,0.02608574740588665,0.0063883461989462376
18612951163125,2.8215668201446533,-9.161413192749023,2.783259391784668,-0.0223592109978199,0.0292799212038517,0.0066545275039970875
18612952400275,2.8359320163726807,-9.192537307739258,2.7916390895843506,-0.0196974016726017,0.02502102218568325,0.010647243820130825
18612953637412,2.829946517944336,-9.21288776397705,2.779668092727661,-0.02022976242005825,0.02502102218568325,0.008783976547420025
18612954874550,2.803610324859619,-9.210494041442871,2.7916390895843506,-0.0215606689453125,0.0247548408806324,0.010647243820130825
18612956111687,2.8395233154296875,-9.17936897277832,2.786850690841675,-0.0220930315554142,0.0300784632563591,0.008251613937318325
18612957348837,2.7976248264312744,-9.206902503967285,2.7772738933563232,-0.02022976242005825,0.0234239362180233,0.005855984054505825
18612958585987,2.7928361892700195,-9.186552047729492,2.8203697204589844,-0.0210283063352108,0.02129448764026165,0.010647243820130825
18612959823125,2.8335378170013428,-9.165003776550293,2.8191726207733154,-0.02555338479578495,0.0247548408806324,0.00984870083630085
18612961060237,2.8383262157440186,-9.192537307739258,2.7676970958709717,-0.02502102218568325,0.0228915736079216,0.00931633822619915
18612962297400,2.8646624088287354,-9.193734169006348,2.7928361892700195,-0.0252872034907341,0.02315775491297245,0.01171196810901165
18612963534537,2.8407204151153564,-9.20091724395752,2.7664999961853027,-0.02422248013317585,0.023956298828125,0.0173017717897892
18612964771675,2.846705913543701,-9.215282440185547,2.764105796813965,-0.0215606689453125,0.02661811001598835,0.015438503585755825
18612966008812,2.828749418258667,-9.20091724395752,2.762908697128296,-0.02262539230287075,0.02422248013317585,0.01597086526453495
18612967245937,2.8012161254882812,-9.17577838897705,2.8131871223449707,-0.0215606689453125,0.02315775491297245,0.01597086526453495
18612968483100,2.8407204151153564,-9.187748908996582,2.808398723602295,-0.023956298828125,0.02262539230287075,0.015438503585755825
18612969720225,2.827552318572998,-9.17817211151123,2.828749418258667,-0.0234239362180233,0.0244886614382267,0.02022976242005825
18612970957375,2.829946517944336,-9.227252960205078,2.7736825942993164,-0.02369011752307415,0.0244886614382267,0.01889885775744915
18612972194512,2.82515811920166,-9.20211410522461,2.7688941955566406,-0.02262539230287075,0.01650322787463665,0.01783413253724575
18612973431650,2.827552318572998,-9.163806915283203,2.783259391784668,-0.01889885775744915,0.01996358297765255,0.0191650390625
18612974668787,2.8778305053710938,-9.17936897277832,2.7676970958709717,-0.0247548408806324,0.0167694091796875,0.02076212503015995
18612975905912,2.8634653091430664,-9.20211410522461,2.8155813217163086,-0.0234239362180233,0.0167694091796875,0.02022976242005825
18612977143087,2.849100112915039,-9.160215377807617,2.782062292098999,-0.02315775491297245,0.015172322280704975,0.01836649514734745
18612978380200,2.8131871223449707,-9.197325706481934,2.778470993041992,-0.02794901467859745,0.01943122036755085,0.015172322280704975
18612979617350,2.868253707885742,-9.192537307739258,2.8119900226593018,-0.02794901467859745,0.01783413253724575,0.02262539230287075
18612980854475,2.8598740100860596,-9.205705642700195,2.82515811920166,-0.02555338479578495,0.010913425125181675,0.0210283063352108
18612982091625,2.8455088138580322,-9.180566787719727,2.7521347999572754,-0.02129448764026165,0.01597086526453495,0.0215606689453125
18612983328762,2.8646624088287354,-9.185355186462402,2.761711597442627,-0.0228915736079216,0.0162370465695858,0.0228915736079216
18612984565900,2.8347349166870117,-9.185355186462402,2.80241322517395,-0.0234239362180233,0.010381062515079975,0.023956298828125
18612985803037,2.852691411972046,-9.149441719055176,2.7772738933563232,-0.0263519287109375,0.0114457868039608,0.02422248013317585
18612987040175,2.8574798107147217,-9.2033109664917,2.782062292098999,-0.0247548408806324,0.0114457868039608,0.02741665206849575
18612988277337,2.8371291160583496,-9.196128845214844,2.785653591156006,-0.02608574740588665,0.010913425125181675,0.02369011752307415
18612989514450,2.8658595085144043,-9.222464561462402,2.7892448902130127,-0.02874755859375,0.01224433071911335,0.023956298828125
18612990751600,2.869450807571411,-9.20091724395752,2.761711597442627,-0.0244886614382267,0.010647243820130825,0.02848137728869915
18612991988725,2.8778305053710938,-9.187748908996582,2.7437551021575928,-0.0247548408806324,0.0090501569211483,0.0258195661008358
18612993225875,2.832340717315674,-9.155426979064941,2.73537540435791,-0.02502102218568325,0.0063883461989462376,0.02608574740588665
18612994463012,2.853888511657715,-9.184157371520996,2.8000190258026123,-0.02502102218568325,0.0157046839594841,0.0244886614382267
18612995700150,2.8586769104003906,-9.170989990234375,2.779668092727661,-0.0220930315554142,0.00452507846057415,0.0271504707634449
18612996937287,2.8395233154296875,-9.172186851501465,2.783259391784668,-0.02422248013317585,0.003460354171693325,0.02129448764026165
18612998174437,2.8658595085144043,-9.157821655273438,2.7712883949279785,-0.0244886614382267,0.003460354171693325,0.0292799212038517
18612999411587,2.853888511657715,-9.173383712768555,2.7880477905273438,-0.02608574740588665,0.007985432632267475,0.02901373989880085
18613000648712,2.829946517944336,-9.137471199035645,2.827552318572998,-0.0220930315554142,0.005057440605014563,0.0271504707634449
18613001885837,2.8790276050567627,-9.141061782836914,2.7521347999572754,-0.0204959437251091,0.00692070834338665,0.0300784632563591
18613003122975,2.8383262157440186,-9.161413192749023,2.784456491470337,-0.0247548408806324,0.00452507846057415,0.0306108258664608
18613004360137,2.855085611343384,-9.157821655273438,2.75812029838562,-0.0223592109978199,0.0007985432748682797,0.02981228195130825
18613005597262,2.868253707885742,-9.17697525024414,2.759317398071289,-0.02369011752307415,0.0018632676219567657,0.0348697230219841
18613006834412,2.8431146144866943,-9.215282440185547,2.7533318996429443,-0.023956298828125,0.0010647244052961469,0.0263519287109375
18613008071550,2.826355218887329,-9.174580574035645,2.7892448902130127,-0.0247548408806324,-0.005057440605014563,0.02794901467859745
18613009308675,2.8119900226593018,-9.174580574035645,2.7736825942993164,-0.0252872034907341,-0.004791259765625,0.0324740931391716
18613010545825,2.8646624088287354,-9.132682800292969,2.7904419898986816,-0.0223592109978199,-0.0042588976211845875,0.0311431884765625
18613011782962,2.8143842220306396,-9.180566787719727,2.7700912952423096,-0.02369011752307415,-0.006122165359556675,0.02129448764026165
18613013020100,2.8670566082000732,-9.155426979064941,2.762908697128296,-0.0252872034907341,-0.006122165359556675,0.0282151959836483
18613014257250,2.8167784214019775,-9.147047996520996,2.7497406005859375,-0.0204959437251091,-0.0071868896484375,0.0316755510866642
18613015494387,2.846705913543701,-9.153033256530762,2.7545289993286133,-0.0223592109978199,-0.0071868896484375,0.02874755859375
18613016731525,2.831143617630005,-9.141061782836914,2.7533318996429443,-0.02608574740588665,-0.0114457868039608,0.033538818359375
18613017968662,2.810792922973633,-9.127894401550293,2.783259391784668,-0.0244886614382267,-0.008517795242369175,0.0367329902946949
18613019205800,2.809595823287964,-9.161413192749023,2.7964274883270264,-0.02076212503015995,-0.007453070487827063,0.0338049978017807
18613020442950,2.8155813217163086,-9.136273384094238,2.8000190258026123,-0.0191650390625,-0.01357523538172245,0.0327402763068676
18613021680075,2.8191726207733154,-9.091980934143066,2.8191726207733154,-0.02022976242005825,-0.008251613937318325,0.0340711809694767
18613022917212,2.8598740100860596,-9.095572471618652,2.823961019515991,-0.0228915736079216,-0.01224433071911335,0.0369991734623909
18613024154350,2.803610324859619,-9.113529205322266,2.786850690841675,-0.015172322280704975,-0.013042873702943325,0.0340711809694767
18613025391512,2.8167784214019775,-9.114726066589355,2.7904419898986816,-0.0162370465695858,-0.01117960549890995,0.0324740931391716
18613026628625,2.855085611343384,-9.097966194152832,2.8179755210876465,-0.0186326764523983,-0.014373779296875,0.0340711809694767
18613027865775,2.8167784214019775,-9.107542991638184,2.784456491470337,-0.014373779296875,-0.015438503585755825,0.0364668108522892
18613029102912,2.826355218887329,-9.11233139038086,2.7928361892700195,-0.014906140975654125,-0.015438503585755825,0.02981228195130825
18613030340050,2.804807424545288,-9.120711326599121,2.78086519241333,-0.01410759799182415,-0.0162370465695858,0.033538818359375
18613031577212,2.8191726207733154,-9.120711326599121,2.7509377002716064,-0.013042873702943325,-0.01597086526453495,0.0362006276845932
18613032814337,2.8371291160583496,-9.149441719055176,2.7688941955566406,-0.012510511092841625,-0.0186326764523983,0.0330064557492733
18613034051475,2.8143842220306396,-9.137471199035645,2.7485435009002686,-0.013309055007994175,-0.02022976242005825,0.0351359061896801
18613035288612,2.8227639198303223,-9.138668060302734,2.810792922973633,-0.01410759799182415,-0.02129448764026165,0.0377977155148983
18613036525762,2.810792922973633,-9.133879661560059,2.7545289993286133,-0.01943122036755085,-0.01836649514734745,0.0340711809694767
18613037762900,2.7988219261169434,-9.133879661560059,2.764105796813965,-0.013042873702943325,-0.0138414166867733,0.0364668108522892
18613039000037,2.84790301322937,-9.147047996520996,2.7473464012145996,-0.0071868896484375,-0.0210283063352108,0.0362006276845932
18613040237162,2.78086519241333,-9.163806915283203,2.7676970958709717,-0.0162370465695858,-0.02315775491297245,0.0377977155148983
18613041474312,2.803610324859619,-9.162610054016113,2.7317841053009033,-0.012510511092841625,-0.0220930315554142,0.0423227921128273
18613042711450,2.7976248264312744,-9.117119789123535,2.762908697128296,-0.0071868896484375,-0.02794901467859745,0.0306108258664608
18613043948587,2.7904419898986816,-9.113529205322266,2.762908697128296,-0.01410759799182415,-0.02794901467859745,0.0282151959836483
18613045185737,2.8000190258026123,-9.155426979064941,2.75812029838562,-0.01703559048473835,-0.0258195661008358,0.03034464456140995
18613046422875,2.8012161254882812,-9.095572471618652,2.7437551021575928,-0.01171196810901165,-0.02608574740588665,0.02901373989880085
18613047660000,2.779668092727661,-9.162610054016113,2.7329812049865723,-0.0071868896484375,-0.0247548408806324,0.0356682650744915
18613048897150,2.782062292098999,-9.126696586608887,2.742558002471924,-0.0077192517928779125,-0.0244886614382267,0.0367329902946949
18613050134300,2.7724854946136475,-9.174580574035645,2.786850690841675,-0.0119781494140625,-0.02502102218568325,0.0324740931391716
18613051371425,2.7928361892700195,-9.139864921569824,2.786850690841675,-0.01357523538172245,-0.0268842913210392,0.0300784632563591
18613052608562,2.8179755210876465,-9.14345645904541,2.7533318996429443,-0.010913425125181675,-0.02874755859375,0.02901373989880085
18613053845725,2.784456491470337,-9.138668060302734,2.784456491470337,-0.008251613937318325,-0.02848137728869915,0.0372653529047966
18613055082862,2.7988219261169434,-9.124302864074707,2.7437551021575928,-0.01117960549890995,-0.0319417305290699,0.0364668108522892
18613056319975,2.765302896499634,-9.123106002807617,2.737769603729248,-0.012776692397892475,-0.0295461006462574,0.0292799212038517
18613057557137,2.75812029838562,-9.095572471618652,2.7449522018432617,-0.012776692397892475,-0.0300784632563591,0.02848137728869915
18613058794275,2.779668092727661,-9.137471199035645,2.7952303886413574,-0.01224433071911335,-0.02608574740588665,0.0276828333735466
18613060031412,2.7126305103302,-9.135076522827148,2.7712883949279785,-0.0157046839594841,-0.0263519287109375,0.0314093679189682
18613061268562,2.778470993041992,-9.133879661560059,2.7724854946136475,-0.008517795242369175,-0.0282151959836483,0.0322079136967659
18613062505687,2.8155813217163086,-9.141061782836914,2.7712883949279785,-0.00958251953125,-0.0268842913210392,0.0300784632563591
18613063742837,2.762908697128296,-9.168595314025879,2.8119900226593018,-0.008251613937318325,-0.02502102218568325,0.0322079136967659
18613064979975,2.75812029838562,-9.132682800292969,2.7940332889556885,-0.007985432632267475,-0.0268842913210392,0.0276828333735466
18613066217100,2.7736825942993164,-9.118317604064941,2.7976248264312744,-0.004791259765625,-0.02848137728869915,0.02741665206849575
18613067454250,2.765302896499634,-9.125499725341797,2.7760767936706543,-0.0023956298828125,-0.02848137728869915,0.03087700717151165
18613068691400,2.715024709701538,-9.139864921569824,2.7509377002716064,-0.0015970865497365594,-0.0322079136967659,0.0311431884765625
18613069928537,2.761711597442627,-9.081207275390625,2.7437551021575928,-0.007453070487827063,-0.03087700717151165,0.03034464456140995
18613071165675,2.759317398071289,-9.119514465332031,2.73537540435791,-0.008251613937318325,-0.033272635191679,0.02502102218568325
18613072402812,2.7222073078155518,-9.127894401550293,2.7497406005859375,-0.005057440605014563,-0.033272635191679,0.02901373989880085
18613073639937,2.7904419898986816,-9.135076522827148,2.7509377002716064,0.0010647244052961469,-0.03087700717151165,0.03087700717151165
18613074877100,2.736572504043579,-9.120711326599121,2.7485435009002686,0.0031941730994731188,-0.02981228195130825,0.0327402763068676
18613076114225,2.7557260990142822,-9.118317604064941,2.756923198699951,-0.0021294488105922937,-0.0311431884765625,0.0276828333735466
18613077351375,2.741360902786255,-9.155426979064941,2.7509377002716064,-0.005589802749454975,-0.03087700717151165,0.0258195661008358
18613078588500,2.7234044075012207,-9.1446533203125,2.73537540435791,-0.004791259765625,-0.033538818359375,0.03034464456140995
18613079825662,2.7329812049865723,-9.156624794006348,2.764105796813965,-0.005589802749454975,-0.0295461006462574,0.0311431884765625
18613081062787,2.73537540435791,-9.139864921569824,2.691082715988159,-0.005057440605014563,-0.03034464456140995,0.02901373989880085
18613082299937,2.699462413787842,-9.139864921569824,2.7269957065582275,-0.003460354171693325,-0.033272635191679,0.0252872034907341
18613083537075,2.742558002471924,-9.07641887664795,2.740163803100586,-0.00692070834338665,-0.0282151959836483,0.0220930315554142
18613084774200,2.7461493015289307,-9.062053680419922,2.7222073078155518,-0.0031941730994731188,-0.03034464456140995,0.02901373989880085
18613086011350,2.6874914169311523,-9.124302864074707,2.734178304672241,-0.0018632676219567657,-0.02981228195130825,0.0292799212038517
18613087248475,2.713827610015869,-9.14345645904541,2.741360902786255,-0.004791259765625,-0.0319417305290699,0.0268842913210392
18613088485625,2.759317398071289,-9.099164009094238,2.6886885166168213,-0.0018632676219567657,-0.0282151959836483,0.0340711809694767
18613089722762,2.7078421115875244,-9.105149269104004,2.7485435009002686,-0.0026618109550327063,-0.02608574740588665,0.0343373604118824
18613090959900,2.7246015071868896,-9.148244857788086,2.759317398071289,0.0010647244052961469,-0.02741665206849575,0.0276828333735466
18613092197037,2.693476915359497,-9.11233139038086,2.7222073078155518,0.0013309054775163531,-0.0268842913210392,0.03034464456140995
18613093434175,2.692279815673828,-9.127894401550293,2.756923198699951,-0.0013309054775163531,-0.02848137728869915,0.0306108258664608
18613094671350,2.7018566131591797,-9.14225959777832,2.740163803100586,-0.0018632676219567657,-0.0319417305290699,0.0306108258664608
18613095908462,2.738966703414917,-9.120711326599121,2.783259391784668,0.0005323622026480734,-0.0268842913210392,0.02901373989880085
18613097145612,2.6803088188171387,-9.093177795410156,2.7700912952423096,0.0010647244052961469,-0.0252872034907341,0.0282151959836483
18613098382762,2.6599581241607666,-9.125499725341797,2.7461493015289307,0.0010647244052961469,-0.0276828333735466,0.02874755859375
18613099619875,2.630030632019043,-9.155426979064941,2.7676970958709717,0.005057440605014563,-0.03034464456140995,0.0311431884765625
18613100857012,2.6443958282470703,-9.147047996520996,2.783259391784668,0.0039927163161337376,-0.0295461006462574,0.02741665206849575
18613102094162,2.695871114730835,-9.124302864074707,2.7461493015289307,0.0013309054775163531,-0.0276828333735466,0.02848137728869915
18613103331312,2.677914619445801,-9.167398452758789,2.7246015071868896,0.0029279920272529125,-0.02502102218568325,0.02874755859375
18613104568450,2.713827610015869,-9.138668060302734,2.716221809387207,0.0063883461989462376,-0.02502102218568325,0.02794901467859745
18613105805575,2.7018566131591797,-9.155426979064941,2.736572504043579,0.0031941730994731188,-0.02794901467859745,0.0292799212038517
18613107042700,2.6874914169311523,-9.159018516540527,2.756923198699951,0.0013309054775163531,-0.0276828333735466,0.02661811001598835
18613108279850,2.7042508125305176,-9.150638580322266,2.783259391784668,0.0037265352439135313,-0.0252872034907341,0.02608574740588665
18613109517000,2.676717519760132,-9.198522567749023,2.7880477905273438,0.00452507846057415,-0.02182685025036335,0.02848137728869915
18613110754150,2.6827030181884766,-9.14585018157959,2.7724854946136475,0.0013309054775163531,-0.023956298828125,0.0300784632563591
18613111991275,2.6563668251037598,-9.161413192749023,2.7712883949279785,0.0010647244052961469,-0.02369011752307415,0.0338049978017807
18613113228412,2.7090392112731934,-9.172186851501465,2.7545289993286133,0.005855984054505825,-0.0220930315554142,0.02794901467859745
18613114465550,2.7006595134735107,-9.148244857788086,2.78086519241333,0.0066545275039970875,-0.01889885775744915,0.02741665206849575
18613115702700,2.6886885166168213,-9.135076522827148,2.7928361892700195,0.0037265352439135313,-0.02369011752307415,0.0322079136967659
18613116939825,2.7293899059295654,-9.120711326599121,2.7916390895843506,0.0039927163161337376,-0.02022976242005825,0.03034464456140995
18613118176975,2.693476915359497,-9.156624794006348,2.734178304672241,0.0042588976211845875,-0.0220930315554142,0.0268842913210392
18613119414125,2.699462413787842,-9.155426979064941,2.7676970958709717,0.005589802749454975,-0.0210283063352108,0.02901373989880085
18613120651250,2.6886885166168213,-9.129091262817383,2.741360902786255,0.007985432632267475,-0.01597086526453495,0.02794901467859745
18613121888387,2.6575639247894287,-9.127894401550293,2.7664999961853027,0.008251613937318325,-0.02076212503015995,0.02741665206849575
18613123125537,2.7030537128448486,-9.159018516540527,2.713827610015869,0.0066545275039970875,-0.0191650390625,0.0263519287109375
18613124362662,2.7066450119018555,-9.165003776550293,2.760514497756958,0.0066545275039970875,-0.0196974016726017,0.02502102218568325
18613125599812,2.6850972175598145,-9.133879661560059,2.759317398071289,0.007453070487827063,-0.0223592109978199,0.03087700717151165
18613126836962,2.669534921646118,-9.159018516540527,2.8012161254882812,0.0063883461989462376,-0.0215606689453125,0.0324740931391716
18613128074100,2.677914619445801,-9.1662015914917,2.759317398071289,0.006122165359556675,-0.0196974016726017,0.033538818359375
18613129311237,2.7449522018432617,-9.114726066589355,2.78086519241333,0.007453070487827063,-0.01597086526453495,0.0282151959836483
18613130548362,2.6850972175598145,-9.1446533203125,2.7712883949279785,0.010647243820130825,-0.0157046839594841,0.0258195661008358
18613131785525,2.6886885166168213,-9.17577838897705,2.759317398071289,0.010647243820130825,-0.015172322280704975,0.02874755859375
18613133022650,2.692279815673828,-9.138668060302734,2.8203697204589844,0.0090501569211483,-0.01703559048473835,0.0314093679189682
18613134259800,2.674323320388794,-9.139864921569824,2.7988219261169434,0.01224433071911335,-0.014906140975654125,0.02848137728869915
18613135496937,2.6815059185028076,-9.14225959777832,2.7676970958709717,0.010381062515079975,-0.0157046839594841,0.02661811001598835
18613136734062,2.674323320388794,-9.163806915283203,2.7724854946136475,0.008251613937318325,-0.01463996060192585,0.0324740931391716
18613137971212,2.6431987285614014,-9.167398452758789,2.7952303886413574,0.00931633822619915,-0.01756795309484005,0.0282151959836483
18613139208350,2.673126220703125,-9.192537307739258,2.8000190258026123,0.015438503585755825,-0.0167694091796875,0.0271504707634449
18613140445500,2.6611552238464355,-9.153033256530762,2.782062292098999,0.012510511092841625,-0.01463996060192585,0.0252872034907341
18613141682625,2.631227731704712,-9.1446533203125,2.764105796813965,0.0071868896484375,-0.013309055007994175,0.023956298828125
18613142919775,2.671929121017456,-9.172186851501465,2.78086519241333,0.00984870083630085,-0.010381062515079975,0.0220930315554142
18613144156912,2.7114334106445312,-9.163806915283203,2.7772738933563232,0.0090501569211483,-0.0138414166867733,0.02608574740588665
18613145394050,2.7114334106445312,-9.168595314025879,2.7748796939849854,0.010381062515079975,-0.01117960549890995,0.0228915736079216
18613146631200,2.6862943172454834,-9.159018516540527,2.806004524230957,0.012510511092841625,-0.0042588976211845875,0.0220930315554142
18613147868337,2.6827030181884766,-9.155426979064941,2.7485435009002686,0.01171196810901165,-0.0090501569211483,0.0282151959836483
18613149105475,2.693476915359497,-9.147047996520996,2.7688941955566406,0.00958251953125,-0.008783976547420025,0.02502102218568325
18613150342612,2.6827030181884766,-9.160215377807617,2.7760767936706543,0.00931633822619915,-0.01224433071911335,0.02555338479578495
18613151579750,2.6803088188171387,-9.17697525024414,2.765302896499634,0.0090501569211483,-0.014373779296875,0.02369011752307415
18613152816887,2.676717519760132,-9.14225959777832,2.7748796939849854,0.010647243820130825,-0.0077192517928779125,0.02129448764026165
18613154054025,2.6839001178741455,-9.126696586608887,2.7676970958709717,0.010381062515079975,-0.0042588976211845875,0.0276828333735466
18613155291187,2.693476915359497,-9.115922927856445,2.803610324859619,0.01117960549890995,-0.0077192517928779125,0.02794901467859745
18613156528312,2.670732021331787,-9.154230117797852,2.803610324859619,0.010381062515079975,-0.00931633822619915,0.02369011752307415
18613157765462,2.6575639247894287,-9.125499725341797,2.783259391784668,0.01224433071911335,-0.007985432632267475,0.0271504707634449
18613159002587,2.6563668251037598,-9.131484985351562,2.7760767936706543,0.0077192517928779125,-0.007453070487827063,0.0258195661008358
18613160239712,2.651578426361084,-9.119514465332031,2.7437551021575928,0.01117960549890995,-0.0077192517928779125,0.02661811001598835
18613161476862,2.7126305103302,-9.132682800292969,2.783259391784668,0.0157046839594841,-0.010114881210029125,0.02076212503015995
18613162714000,2.699462413787842,-9.118317604064941,2.782062292098999,0.015438503585755825,-0.0063883461989462376,0.01783413253724575
18613163951125,2.670732021331787,-9.141061782836914,2.75812029838562,0.0167694091796875,-0.010114881210029125,0.02129448764026165
18613165188287,2.699462413787842,-9.156624794006348,2.8203697204589844,0.015438503585755825,-0.01117960549890995,0.01650322787463665
18613166425437,2.677914619445801,-9.154230117797852,2.8000190258026123,0.013309055007994175,-0.0077192517928779125,0.0263519287109375
18613167662562,2.7126305103302,-9.114726066589355,2.7724854946136475,0.015172322280704975,-0.00692070834338665,0.01943122036755085
18613168899700,2.649184226989746,-9.130288124084473,2.784456491470337,0.0157046839594841,-0.005057440605014563,0.01836649514734745
18613170136850,2.670732021331787,-9.138668060302734,2.8000190258026123,0.010647243820130825,-0.0015970865497365594,0.02022976242005825
18613171373987,2.7281928062438965,-9.184157371520996,2.7772738933563232,0.01357523538172245,-0.0031941730994731188,0.01996358297765255
18613172611125,2.6815059185028076,-9.149441719055176,2.785653591156006,0.01703559048473835,-0.0042588976211845875,0.0167694091796875
18613173848250,2.7054479122161865,-9.149441719055176,2.823961019515991,0.0157046839594841,-0.0042588976211845875,0.01889885775744915
18613175085400,2.692279815673828,-9.191340446472168,2.80241322517395,0.0138414166867733,-0.0031941730994731188,0.0191650390625
18613176322525,2.63362193107605,-9.21288776397705,2.782062292098999,0.0157046839594841,0.0010647244052961469,0.01703559048473835
18613177559675,2.7006595134735107,-9.198522567749023,2.8227639198303223,0.01650322787463665,0.0007985432748682797,0.01650322787463665
18613178796825,2.7234044075012207,-9.208099365234375,2.8395233154296875,0.013042873702943325,-0.0007985432748682797,0.0167694091796875
18613180033962,2.6791117191314697,-9.206902503967285,2.7509377002716064,0.01756795309484005,-0.0023956298828125,0.014906140975654125
18613181271100,2.693476915359497,-9.19972038269043,2.7736825942993164,0.01650322787463665,-0.0063883461989462376,0.0173017717897892
18613182508237,2.676717519760132,-9.184157371520996,2.78086519241333,0.01650322787463665,-0.0042588976211845875,0.0186326764523983
18613183745375,2.6850972175598145,-9.20091724395752,2.7952303886413574,0.010647243820130825,-0.0018632676219567657,0.01703559048473835
18613184982525,2.647987127304077,-9.172186851501465,2.7988219261169434,0.010114881210029125,-0.0005323622026480734,0.0167694091796875
18613186219662,2.6611552238464355,-9.170989990234375,2.7952303886413574,0.012776692397892475,-0.0029279920272529125,0.01597086526453495
18613187456800,2.6874914169311523,-9.138668060302734,2.760514497756958,0.01463996060192585,-0.0039927163161337376,0.0186326764523983
18613188693950,2.6791117191314697,-9.172186851501465,2.7736825942993164,0.01357523538172245,-0.0042588976211845875,0.01783413253724575
18613189931075,2.6563668251037598,-9.136273384094238,2.7892448902130127,0.012510511092841625,-0.0021294488105922937,0.01943122036755085
18613191168212,2.7509377002716064,-9.181763648986816,2.7988219261169434,0.0162370465695858,-0.0007985432748682797,0.02022976242005825
18613192405375,2.699462413787842,-9.232041358947754,2.803610324859619,0.015438503585755825,-0.0010647244052961469,0.0223592109978199
18613193642500,2.676717519760132,-9.190143585205078,2.765302896499634,0.014373779296875,-0.006122165359556675,0.01650322787463665
18613194879650,2.6647465229034424,-9.168595314025879,2.719813108444214,0.01836649514734745,-0.0023956298828125,0.01703559048473835
18613196116775,2.677914619445801,-9.2033109664917,2.82515811920166,0.01410759799182415,0.0039927163161337376,0.0215606689453125
18613197353925,2.6898856163024902,-9.188945770263672,2.7964274883270264,0.012510511092841625,0.0023956298828125,0.0186326764523983
18613198591050,2.7090392112731934,-9.147047996520996,2.7964274883270264,0.01224433071911335,-0.005589802749454975,0.01410759799182415
18613199828200,2.73537540435791,-9.17817211151123,2.7533318996429443,0.01597086526453495,0.0013309054775163531,0.01410759799182415
18613201065337,2.694674015045166,-9.17577838897705,2.759317398071289,0.01597086526453495,0.0007985432748682797,0.01703559048473835
18613202302475,2.7257986068725586,-9.168595314025879,2.782062292098999,0.01597086526453495,0.0037265352439135313,0.0138414166867733
18613203539625,2.7042508125305176,-9.17577838897705,2.7964274883270264,0.0138414166867733,-0.0015970865497365594,0.01410759799182415
18613204776775,2.713827610015869,-9.187748908996582,2.808398723602295,0.008517795242369175,-0.0021294488105922937,0.0167694091796875
18613206013900,2.7257986068725586,-9.14585018157959,2.7700912952423096,0.01357523538172245,-0.0005323622026480734,0.01410759799182415
18613207251037,2.6874914169311523,-9.167398452758789,2.809595823287964,0.014906140975654125,-0.003460354171693325,0.015172322280704975
18613208488175,2.6886885166168213,-9.156624794006348,2.853888511657715,0.013309055007994175,-0.006122165359556675,0.0210283063352108
18613209725337,2.695871114730835,-9.161413192749023,2.8131871223449707,0.010647243820130825,-0.0007985432748682797,0.01756795309484005
18613210962437,2.697068214416504,-9.192537307739258,2.786850690841675,0.0071868896484375,-0.0021294488105922937,0.01463996060192585
18613212199612,2.7066450119018555,-9.174580574035645,2.849100112915039,0.01463996060192585,-0.003460354171693325,0.01943122036755085
18613213436737,2.7449522018432617,-9.130288124084473,2.803610324859619,0.010913425125181675,0.0026618109550327063,0.0157046839594841
18613214673862,2.7222073078155518,-9.125499725341797,2.807201623916626,0.013309055007994175,-0.0031941730994731188,0.0204959437251091
18613215911025,2.716221809387207,-9.151836395263672,2.828749418258667,0.0114457868039608,-0.0007985432748682797,0.0186326764523983
18613217148162,2.6599581241607666,-9.135076522827148,2.786850690841675,0.01597086526453495,-0.0031941730994731188,0.01597086526453495
18613218385312,2.6791117191314697,-9.197325706481934,2.7904419898986816,0.01463996060192585,-0.0015970865497365594,0.015172322280704975
18613219622425,2.6611552238464355,-9.156624794006348,2.738966703414917,0.0157046839594841,-0.0007985432748682797,0.01996358297765255
18613220859575,2.6886885166168213,-9.1662015914917,2.761711597442627,0.01410759799182415,-0.005589802749454975,0.0173017717897892
18613222096700,2.6611552238464355,-9.151836395263672,2.827552318572998,0.012510511092841625,0.0,0.0138414166867733
18613223333837,2.6839001178741455,-9.215282440185547,2.804807424545288,0.01171196810901165,0.0013309054775163531,0.013309055007994175
18613224571012,2.7090392112731934,-9.165003776550293,2.764105796813965,0.013309055007994175,-0.0039927163161337376,0.013309055007994175
18613225808150,2.691082715988159,-9.161413192749023,2.7892448902130127,0.01171196810901165,-0.0021294488105922937,0.00984870083630085
18613227045287,2.670732021331787,-9.14345645904541,2.810792922973633,0.01889885775744915,-0.00452507846057415,0.01117960549890995
18613228282412,2.7054479122161865,-9.133879661560059,2.7988219261169434,0.02129448764026165,-0.008517795242369175,0.0138414166867733
18613229519562,2.7234044075012207,-9.211690902709961,2.7533318996429443,0.0114457868039608,-0.0002661811013240367,0.010647243820130825
18613230756700,2.6886885166168213,-9.136273384094238,2.7940332889556885,0.013042873702943325,0.005057440605014563,0.0162370465695858
18613231993850,2.721010208129883,-9.153033256530762,2.7916390895843506,0.01357523538172245,-0.0015970865497365594,0.01703559048473835
18613233230975,2.692279815673828,-9.153033256530762,2.7688941955566406,0.00984870083630085,-0.0037265352439135313,0.01463996060192585
18613234468112,2.691082715988159,-9.160215377807617,2.831143617630005,0.01357523538172245,-0.004791259765625,0.01463996060192585
18613235705262,2.7329812049865723,-9.173383712768555,2.7952303886413574,0.0138414166867733,-0.0021294488105922937,0.0138414166867733
18613236942412,2.694674015045166,-9.132682800292969,2.806004524230957,0.0119781494140625,-0.003460354171693325,0.0039927163161337376
18613238179537,2.6827030181884766,-9.174580574035645,2.8155813217163086,0.01463996060192585,-0.003460354171693325,0.008251613937318325
18613239416687,2.7090392112731934,-9.184157371520996,2.8000190258026123,0.015172322280704975,-0.0037265352439135313,0.010913425125181675
18613240653812,2.717418909072876,-9.205705642700195,2.80241322517395,0.0138414166867733,-0.0005323622026480734,0.00958251953125
18613241890950,2.7018566131591797,-9.192537307739258,2.8143842220306396,0.013042873702943325,-0.0026618109550327063,0.013309055007994175
18613243128100,2.669534921646118,-9.149441719055176,2.82515811920166,0.01410759799182415,-0.0037265352439135313,0.0114457868039608
18613244365237,2.7042508125305176,-9.161413192749023,2.8167784214019775,0.01410759799182415,-0.008251613937318325,0.008251613937318325
18613245602375,2.7234044075012207,-9.188945770263672,2.7952303886413574,0.015172322280704975,-0.00958251953125,0.008251613937318325
18613246839525,2.7066450119018555,-9.209297180175781,2.7976248264312744,0.01650322787463665,-0.0053236219100654125,0.008251613937318325
18613248076675,2.699462413787842,-9.150638580322266,2.8359320163726807,0.012776692397892475,-0.0005323622026480734,0.0071868896484375
18613249313812,2.7257986068725586,-9.180566787719727,2.80241322517395,0.013042873702943325,-0.008251613937318325,0.0063883461989462376
18613250550937,2.759317398071289,-9.216479301452637,2.8227639198303223,0.0114457868039608,-0.007985432632267475,0.0021294488105922937
18613251788087,2.7281928062438965,-9.248801231384277,2.850297212600708,0.014373779296875,-0.00452507846057415,0.0066545275039970875
18613253025237,2.7437551021575928,-9.185355186462402,2.7988219261169434,0.014373779296875,-0.004791259765625,0.0063883461989462376
18613254262350,2.734178304672241,-9.208099365234375,2.8131871223449707,0.010381062515079975,-0.0071868896484375,0.008517795242369175
18613255499500,2.7018566131591797,-9.187748908996582,2.8347349166870117,0.012776692397892475,-0.00452507846057415,0.008783976547420025
18613256736637,2.738966703414917,-9.187748908996582,2.810792922973633,0.008517795242369175,-0.0039927163161337376,0.008517795242369175
18613257973787,2.7102363109588623,-9.216479301452637,2.782062292098999,0.0090501569211483,-0.00958251953125,0.010913425125181675
18613259210912,2.7521347999572754,-9.222464561462402,2.7952303886413574,0.013309055007994175,-0.0063883461989462376,0.0119781494140625
18613260448075,2.7102363109588623,-9.23443603515625,2.829946517944336,0.015172322280704975,-0.0077192517928779125,0.008251613937318325
18613261685200,2.7114334106445312,-9.228450775146484,2.8143842220306396,0.010647243820130825,-0.008251613937318325,0.005589802749454975
18613262922337,2.716221809387207,-9.223662376403809,2.785653591156006,0.01117960549890995,-0.0071868896484375,0.0029279920272529125
18613264159487,2.719813108444214,-9.252392768859863,2.7772738933563232,0.00984870083630085,-0.007985432632267475,0.0007985432748682797
18613265396600,2.7437551021575928,-9.206902503967285,2.831143617630005,0.0114457868039608,-0.0063883461989462376,0.005589802749454975
18613266633775,2.7042508125305176,-9.25598430633545,2.75812029838562,0.0071868896484375,-0.005855984054505825,0.0007985432748682797
18613267870900,2.7246015071868896,-9.17936897277832,2.8143842220306396,0.0063883461989462376,-0.0063883461989462376,0.0039927163161337376
18613269108050,2.7293899059295654,-9.216479301452637,2.8131871223449707,0.008517795242369175,-0.00958251953125,0.010381062515079975
18613270345175,2.7090392112731934,-9.220070838928223,2.8179755210876465,0.007985432632267475,-0.0066545275039970875,0.010114881210029125
18613271582325,2.7078421115875244,-9.241618156433105,2.828749418258667,0.00692070834338665,-0.0063883461989462376,0.0063883461989462376
18613272819462,2.694674015045166,-9.17817211151123,2.7676970958709717,0.008517795242369175,-0.0071868896484375,0.010913425125181675
18613274056575,2.7246015071868896,-9.222464561462402,2.7712883949279785,0.010647243820130825,-0.014906140975654125,0.01224433071911335
18613275293725,2.699462413787842,-9.251195907592773,2.8119900226593018,0.010647243820130825,-0.007453070487827063,0.010913425125181675
18613276530862,2.673126220703125,-9.20091724395752,2.8119900226593018,0.005589802749454975,-0.008517795242369175,0.010114881210029125
18613277768025,2.7090392112731934,-9.21288776397705,2.804807424545288,0.004791259765625,-0.0039927163161337376,0.0023956298828125
18613279005150,2.73537540435791,-9.157821655273438,2.806004524230957,0.004791259765625,-0.007985432632267475,0.0077192517928779125
18613280242287,2.677914619445801,-9.17817211151123,2.8359320163726807,0.0042588976211845875,-0.00931633822619915,0.0090501569211483
18613281479437,2.7329812049865723,-9.186552047729492,2.809595823287964,0.0018632676219567657,-0.007453070487827063,0.0090501569211483
18613282716575,2.717418909072876,-9.150638580322266,2.7676970958709717,0.0005323622026480734,-0.0090501569211483,0.00958251953125
18613283953725,2.7222073078155518,-9.216479301452637,2.7688941955566406,0.0013309054775163531,-0.01224433071911335,0.010381062515079975
18613285190862,2.736572504043579,-9.186552047729492,2.82515811920166,0.0013309054775163531,-0.0066545275039970875,0.0090501569211483
18613286428025,2.715024709701538,-9.197325706481934,2.832340717315674,0.003460354171693325,-0.00931633822619915,0.01117960549890995
18613287665137,2.6886885166168213,-9.182960510253906,2.8419175148010254,0.0053236219100654125,-0.014373779296875,0.010114881210029125
18613288902300,2.715024709701538,-9.173383712768555,2.8167784214019775,0.006122165359556675,-0.014373779296875,0.012776692397892475
18613290139425,2.7054479122161865,-9.173383712768555,2.7976248264312744,0.0013309054775163531,-0.0039927163161337376,0.00958251953125
18613291376562,2.6839001178741455,-9.185355186462402,2.7940332889556885,0.005057440605014563,-0.0063883461989462376,0.012510511092841625
18613292613700,2.7054479122161865,-9.187748908996582,2.785653591156006,0.005589802749454975,-0.0114457868039608,0.008251613937318325
18613293850862,2.721010208129883,-9.182960510253906,2.8143842220306396,-0.0002661811013240367,-0.0066545275039970875,0.00958251953125
18613295087987,2.669534921646118,-9.21288776397705,2.80241322517395,0.008783976547420025,-0.010647243820130825,0.00984870083630085
18613296325125,2.697068214416504,-9.173383712768555,2.806004524230957,0.0018632676219567657,-0.010647243820130825,0.00984870083630085
18613297562262,2.7246015071868896,-9.217676162719727,2.7916390895843506,-0.0026618109550327063,-0.00692070834338665,0.0077192517928779125
18613298799412,2.713827610015869,-9.223662376403809,2.7880477905273438,0.0031941730994731188,-0.008783976547420025,0.0077192517928779125
18613300036537,2.7234044075012207,-9.205705642700195,2.832340717315674,0.0029279920272529125,-0.005057440605014563,0.0071868896484375
18613301273700,2.715024709701538,-9.251195907592773,2.80241322517395,0.0002661811013240367,-0.00958251953125,0.0077192517928779125
18613302510825,2.7042508125305176,-9.229647636413574,2.764105796813965,-0.0007985432748682797,-0.006122165359556675,0.01171196810901165
18613303747975,2.674323320388794,-9.244012832641602,2.8131871223449707,0.0031941730994731188,-0.00958251953125,0.0138414166867733
18613304985125,2.694674015045166,-9.220070838928223,2.7964274883270264,-0.0013309054775163531,-0.0071868896484375,0.00692070834338665
18613306222237,2.7054479122161865,-9.215282440185547,2.783259391784668,-0.0023956298828125,-0.0114457868039608,0.012510511092841625
18613307459387,2.7246015071868896,-9.23682975769043,2.778470993041992,-0.0023956298828125,-0.012776692397892475,0.015172322280704975
18613308696537,2.6874914169311523,-9.276334762573242,2.8179755210876465,0.0007985432748682797,-0.0029279920272529125,0.012776692397892475
18613309933662,2.7114334106445312,-9.273940086364746,2.8000190258026123,0.0002661811013240367,-0.0023956298828125,0.013042873702943325
18613311170800,2.7030537128448486,-9.246407508850098,2.808398723602295,-0.0007985432748682797,-0.00958251953125,0.01650322787463665
18613312407950,2.670732021331787,-9.224859237670898,2.806004524230957,-0.0005323622026480734,-0.008517795242369175,0.01836649514734745
18613313645087,2.669534921646118,-9.283516883850098,2.7988219261169434,-0.0039927163161337376,-0.010381062515079975,0.01597086526453495
18613314882225,2.694674015045166,-9.271546363830566,2.7976248264312744,-0.0042588976211845875,-0.0071868896484375,0.02076212503015995
18613316119375,2.693476915359497,-9.253589630126953,2.828749418258667,-0.0021294488105922937,-0.0039927163161337376,0.01756795309484005
18613317356500,2.7102363109588623,-9.238027572631836,2.8155813217163086,-0.0071868896484375,-0.0042588976211845875,0.010913425125181675
18613318593637,2.699462413787842,-9.17697525024414,2.8131871223449707,-0.005057440605014563,-0.0063883461989462376,0.01410759799182415
18613319830775,2.671929121017456,-9.205705642700195,2.8119900226593018,-0.005589802749454975,0.0,0.0138414166867733
18613321067925,2.7030537128448486,-9.198522567749023,2.8012161254882812,-0.008783976547420025,-0.008517795242369175,0.01836649514734745
18613322305062,2.713827610015869,-9.196128845214844,2.779668092727661,-0.005057440605014563,-0.0063883461989462376,0.0119781494140625
18613323542212,2.7114334106445312,-9.224859237670898,2.7904419898986816,-0.008251613937318325,-0.0015970865497365594,0.014906140975654125
18613324779350,2.6839001178741455,-9.186552047729492,2.783259391784668,-0.008251613937318325,-0.0066545275039970875,0.02022976242005825
18613326016487,2.6815059185028076,-9.185355186462402,2.759317398071289,-0.003460354171693325,-0.0013309054775163531,0.014906140975654125
18613327253612,2.6659436225891113,-9.17697525024414,2.807201623916626,-0.00692070834338665,-0.0053236219100654125,0.01783413253724575
18613328490775,2.6874914169311523,-9.2033109664917,2.8119900226593018,-0.007453070487827063,-0.0066545275039970875,0.0157046839594841
18613329727912,2.6898856163024902,-9.188945770263672,2.803610324859619,-0.0077192517928779125,-0.0042588976211845875,0.01597086526453495
18613330965050,2.6791117191314697,-9.174580574035645,2.7724854946136475,-0.012776692397892475,-0.007985432632267475,0.01357523538172245
18613332202175,2.698265314102173,-9.215282440185547,2.778470993041992,-0.014373779296875,-0.00452507846057415,0.013309055007994175
18613333439325,2.671929121017456,-9.210494041442871,2.810792922973633,-0.010913425125181675,-0.0005323622026480734,0.015172322280704975
18613334676475,2.6850972175598145,-9.230844497680664,2.7976248264312744,-0.01171196810901165,0.0,0.01224433071911335
18613335913600,2.6850972175598145,-9.2033109664917,2.7688941955566406,-0.008783976547420025,-0.0018632676219567657,0.00958251953125
18613337150737,2.6587610244750977,-9.220070838928223,2.7916390895843506,-0.0090501569211483,-0.0029279920272529125,0.008251613937318325
18613338387887,2.6563668251037598,-9.196128845214844,2.7688941955566406,-0.0114457868039608,-0.0037265352439135313,0.004791259765625
18613339625012,2.6420016288757324,-9.182960510253906,2.785653591156006,-0.00984870083630085,-0.004791259765625,0.0077192517928779125
18613340862150,2.671929121017456,-9.239224433898926,2.8395233154296875,-0.0090501569211483,-0.0063883461989462376,0.01117960549890995
18613342099287,2.649184226989746,-9.17697525024414,2.7712883949279785,-0.0119781494140625,-0.0037265352439135313,0.005855984054505825
18613343336450,2.675520420074463,-9.210494041442871,2.8000190258026123,-0.01410759799182415,-0.0042588976211845875,0.0071868896484375
18613344573575,2.7006595134735107,-9.222464561462402,2.8167784214019775,-0.012776692397892475,-0.005855984054505825,0.008251613937318325
18613345810725,2.670732021331787,-9.215282440185547,2.7664999961853027,-0.0119781494140625,-0.0090501569211483,0.0063883461989462376
18613347047850,2.653972625732422,-9.242815971374512,2.7521347999572754,-0.013309055007994175,0.0023956298828125,0.0042588976211845875
18613348285000,2.669534921646118,-9.224859237670898,2.7760767936706543,-0.012776692397892475,0.0026618109550327063,0.0042588976211845875
18613349522150,2.717418909072876,-9.223662376403809,2.8167784214019775,-0.01171196810901165,-0.004791259765625,0.0066545275039970875
18613350759275,2.6791117191314697,-9.215282440185547,2.786850690841675,-0.010114881210029125,-0.0029279920272529125,0.0090501569211483
18613351996425,2.6647465229034424,-9.23323917388916,2.7916390895843506,-0.0162370465695858,0.0018632676219567657,0.0053236219100654125
18613353233562,2.6587610244750977,-9.187748908996582,2.8383262157440186,-0.013309055007994175,0.0029279920272529125,0.0066545275039970875
18613354470712,2.6671407222747803,-9.221267700195312,2.7904419898986816,-0.01117960549890995,-0.0013309054775163531,0.0077192517928779125
18613355707850,2.7126305103302,-9.223662376403809,2.7928361892700195,-0.013309055007994175,-0.0029279920272529125,0.006122165359556675
18613356944975,2.677914619445801,-9.257181167602539,2.8167784214019775,-0.01756795309484005,0.0005323622026480734,0.00692070834338665
18613358182125,2.7305870056152344,-9.221267700195312,2.759317398071289,-0.01463996060192585,0.0063883461989462376,0.0053236219100654125
18613359419275,2.6803088188171387,-9.251195907592773,2.765302896499634,-0.01650322787463665,-0.0039927163161337376,0.0037265352439135313
18613360656412,2.6874914169311523,-9.222464561462402,2.786850690841675,-0.0173017717897892,0.005057440605014563,0.0
18613361893537,2.668337821960449,-9.211690902709961,2.741360902786255,-0.01703559048473835,0.0023956298828125,0.0026618109550327063
18613363130687,2.6815059185028076,-9.188945770263672,2.782062292098999,-0.01597086526453495,0.0053236219100654125,0.0071868896484375
18613364367837,2.670732021331787,-9.162610054016113,2.783259391784668,-0.0167694091796875,0.00452507846057415,0.004791259765625
18613365604950,2.7257986068725586,-9.186552047729492,2.7916390895843506,-0.0244886614382267,0.0042588976211845875,0.0002661811013240367
18613366842112,2.6431987285614014,-9.226056098937988,2.778470993041992,-0.023956298828125,0.0071868896484375,-0.0021294488105922937
18613368079250,2.671929121017456,-9.196128845214844,2.7533318996429443,-0.01783413253724575,0.006122165359556675,-0.0015970865497365594
18613369316387,2.6443958282470703,-9.163806915283203,2.721010208129883,-0.0167694091796875,0.0037265352439135313,-0.0015970865497365594
18613370553525,2.6815059185028076,-9.160215377807617,2.78086519241333,-0.0181003138422966,0.0,0.0018632676219567657
18613371790662,2.6827030181884766,-9.172186851501465,2.7700912952423096,-0.0210283063352108,0.0031941730994731188,-0.0026618109550327063
18613373027825,2.7006595134735107,-9.162610054016113,2.7449522018432617,-0.0220930315554142,0.003460354171693325,-0.0071868896484375
18613374264950,2.653972625732422,-9.165003776550293,2.7724854946136475,-0.02076212503015995,0.00452507846057415,-0.0066545275039970875
18613375502100,2.6898856163024902,-9.148244857788086,2.741360902786255,-0.0244886614382267,0.0077192517928779125,-0.006122165359556675
18613376739225,2.6886885166168213,-9.181763648986816,2.7880477905273438,-0.01996358297765255,0.00958251953125,-0.0013309054775163531
18613377976375,2.694674015045166,-9.137471199035645,2.7461493015289307,-0.01597086526453495,0.0063883461989462376,-0.0031941730994731188
18613379213500,2.693476915359497,-9.162610054016113,2.7461493015289307,-0.01943122036755085,0.005855984054505825,-0.0042588976211845875
18613380450662,2.6623523235321045,-9.14345645904541,2.738966703414917,-0.02262539230287075,0.0063883461989462376,-0.008251613937318325
18613381687812,2.6671407222747803,-9.1446533203125,2.762908697128296,-0.02262539230287075,0.007453070487827063,-0.01171196810901165
18613382924950,2.6599581241607666,-9.167398452758789,2.7257986068725586,-0.0223592109978199,0.0066545275039970875,-0.010647243820130825
18613384162075,2.7030537128448486,-9.129091262817383,2.7880477905273438,-0.0186326764523983,0.0063883461989462376,-0.005589802749454975
18613385399225,2.6611552238464355,-9.185355186462402,2.7988219261169434,-0.0162370465695858,0.010647243820130825,-0.0039927163161337376
18613386636350,2.6862943172454834,-9.139864921569824,2.75812029838562,-0.012510511092841625,0.00931633822619915,-0.00692070834338665
18613387873500,2.6827030181884766,-9.131484985351562,2.7437551021575928,-0.0191650390625,0.010114881210029125,-0.0063883461989462376
18613389110650,2.677914619445801,-9.141061782836914,2.7736825942993164,-0.0223592109978199,0.00931633822619915,-0.01117960549890995
18613390347775,2.7317841053009033,-9.154230117797852,2.78086519241333,-0.01836649514734745,0.0220930315554142,-0.0114457868039608
18613391584925,2.693476915359497,-9.182960510253906,2.742558002471924,-0.0215606689453125,0.01117960549890995,-0.0119781494140625
18613392822050,2.671929121017456,-9.150638580322266,2.785653591156006,-0.0196974016726017,0.008251613937318325,-0.0077192517928779125
18613394059200,2.6623523235321045,-9.168595314025879,2.806004524230957,-0.01463996060192585,0.0114457868039608,-0.0053236219100654125
18613395296337,2.7054479122161865,-9.14225959777832,2.7676970958709717,-0.01463996060192585,0.010913425125181675,-0.0063883461989462376
18613396533487,2.6623523235321045,-9.119514465332031,2.7533318996429443,-0.0138414166867733,0.008251613937318325,-0.003460354171693325
18613397770625,2.651578426361084,-9.14345645904541,2.7497406005859375,-0.0162370465695858,0.01650322787463665,-0.005589802749454975
18613399007750,2.6815059185028076,-9.138668060302734,2.7676970958709717,-0.0162370465695858,0.0204959437251091,-0.008251613937318325
18613400244887,2.6420016288757324,-9.126696586608887,2.75812029838562,-0.01410759799182415,0.013309055007994175,-0.0063883461989462376
18613401482050,2.6563668251037598,-9.169792175292969,2.7676970958709717,-0.0157046839594841,0.014373779296875,-0.0071868896484375
18613402719175,2.6587610244750977,-9.192537307739258,2.7054479122161865,-0.0167694091796875,0.01171196810901165,-0.008251613937318325
18613403956312,2.652775526046753,-9.17577838897705,2.7437551021575928,-0.01597086526453495,0.01703559048473835,-0.0053236219100654125
18613405193450,2.655169725418091,-9.135076522827148,2.7736825942993164,-0.015172322280704975,0.0215606689453125,-0.0053236219100654125
18613406430600,2.697068214416504,-9.150638580322266,2.7676970958709717,-0.0114457868039608,0.01943122036755085,-0.008251613937318325
18613407667725,2.6886885166168213,-9.169792175292969,2.761711597442627,-0.01463996060192585,0.01889885775744915,-0.0077192517928779125
18613408904862,2.693476915359497,-9.14585018157959,2.7521347999572754,-0.01117960549890995,0.0210283063352108,-0.008783976547420025
18613410142012,2.6898856163024902,-9.10993766784668,2.7222073078155518,-0.0114457868039608,0.02022976242005825,-0.007453070487827063
18613411379150,2.694674015045166,-9.131484985351562,2.761711597442627,-0.0196974016726017,0.023956298828125,-0.013309055007994175
18613412616275,2.674323320388794,-9.133879661560059,2.78086519241333,-0.01117960549890995,0.0173017717897892,-0.0053236219100654125
18613413853475,2.697068214416504,-9.151836395263672,2.7533318996429443,-0.015172322280704975,0.02076212503015995,-0.0042588976211845875
18613415090562,2.6827030181884766,-9.14225959777832,2.764105796813965,-0.014906140975654125,0.0191650390625,-0.0063883461989462376
18613416327725,2.7078421115875244,-9.149441719055176,2.7006595134735107,-0.008251613937318325,0.01756795309484005,-0.004791259765625
18613417564862,2.7222073078155518,-9.157821655273438,2.7688941955566406,-0.01117960549890995,0.0220930315554142,-0.0002661811013240367
18613418802000,2.6839001178741455,-9.141061782836914,2.764105796813965,-0.013042873702943325,0.02369011752307415,-0.0023956298828125
18613420039150,2.6791117191314697,-9.182960510253906,2.759317398071289,-0.015172322280704975,0.023956298828125,-0.005589802749454975
18613421276275,2.7114334106445312,-9.150638580322266,2.7676970958709717,-0.013042873702943325,0.02555338479578495,-0.0077192517928779125
18613422513425,2.668337821960449,-9.165003776550293,2.7521347999572754,-0.00984870083630085,0.01996358297765255,-0.005057440605014563
18613423750562,2.716221809387207,-9.14345645904541,2.760514497756958,-0.010913425125181675,0.01650322787463665,-0.0037265352439135313
18613424987712,2.7281928062438965,-9.136273384094238,2.7257986068725586,-0.010647243820130825,0.02315775491297245,0.0002661811013240367
18613426224850,2.694674015045166,-9.17697525024414,2.738966703414917,-0.010913425125181675,0.02315775491297245,-0.0010647244052961469
18613427462000,2.6862943172454834,-9.162610054016113,2.718616008758545,-0.008783976547420025,0.02262539230287075,0.0007985432748682797
18613428699125,2.7293899059295654,-9.20211410522461,2.736572504043579,-0.0077192517928779125,0.02555338479578495,0.0010647244052961469
18613429936262,2.7042508125305176,-9.204508781433105,2.734178304672241,-0.00958251953125,0.0234239362180233,0.0063883461989462376
18613431173412,2.7222073078155518,-9.17577838897705,2.7293899059295654,-0.01224433071911335,0.0282151959836483,0.0037265352439135313
18613432410537,2.715024709701538,-9.210494041442871,2.740163803100586,-0.0071868896484375,0.0258195661008358,-0.0007985432748682797
18613433647675,2.697068214416504,-9.169792175292969,2.7664999961853027,-0.007453070487827063,0.0234239362180233,-0.0037265352439135313
18613434884812,2.7018566131591797,-9.141061782836914,2.7712883949279785,-0.01117960549890995,0.0228915736079216,-0.0010647244052961469
18613436121975,2.6886885166168213,-9.129091262817383,2.6850972175598145,-0.008517795242369175,0.02608574740588665,-0.0023956298828125
18613437359100,2.719813108444214,-9.167398452758789,2.7437551021575928,-0.008783976547420025,0.02315775491297245,0.0010647244052961469
18613438596250,2.719813108444214,-9.185355186462402,2.717418909072876,-0.0066545275039970875,0.0228915736079216,0.0002661811013240367
18613439833412,2.7497406005859375,-9.185355186462402,2.699462413787842,-0.00984870083630085,0.0258195661008358,-0.0002661811013240367
18613441070537,2.7257986068725586,-9.170989990234375,2.7234044075012207,-0.01703559048473835,0.0300784632563591,-0.0015970865497365594
18613442307675,2.738966703414917,-9.204508781433105,2.716221809387207,-0.01171196810901165,0.02874755859375,0.0042588976211845875
18613443544812,2.7473464012145996,-9.191340446472168,2.7437551021575928,-0.01224433071911335,0.02794901467859745,0.003460354171693325
18613444781937,2.7090392112731934,-9.182960510253906,2.7485435009002686,-0.012510511092841625,0.0252872034907341,-0.0023956298828125
18613446019087,2.7557260990142822,-9.167398452758789,2.738966703414917,-0.013309055007994175,0.02608574740588665,-0.0015970865497365594
18613447256237,2.738966703414917,-9.156624794006348,2.7054479122161865,-0.008251613937318325,0.02502102218568325,0.004791259765625
18613448493375,2.717418909072876,-9.184157371520996,2.7257986068725586,-0.007453070487827063,0.02901373989880085,0.0029279920272529125
18613449730512,2.717418909072876,-9.184157371520996,2.760514497756958,-0.005855984054505825,0.023956298828125,0.0
18613450967650,2.736572504043579,-9.168595314025879,2.7461493015289307,-0.008517795242369175,0.0234239362180233,-0.0015970865497365594
18613452204800,2.7006595134735107,-9.17817211151123,2.760514497756958,-0.00984870083630085,0.0220930315554142,0.0018632676219567657
18613453441950,2.692279815673828,-9.173383712768555,2.75812029838562,-0.0090501569211483,0.02502102218568325,0.007453070487827063
18613454679075,2.7293899059295654,-9.186552047729492,2.7449522018432617,-0.006122165359556675,0.0244886614382267,0.0053236219100654125
