timestamp_ns,accel_x,accel_y,accel_z,gyro_x,gyro_y,gyro_z
2400387281900,1.237802267074585,-9.703699111938477,1.3551181554794312,0.01117960549890995,-0.0042588976211845875,0.02422248013317585
2400388519087,1.2509703636169434,-9.696516990661621,1.4041993618011475,0.0119781494140625,-0.0015970865497365594,0.0268842913210392
2400389756312,1.2856863737106323,-9.68813705444336,1.43532395362854,0.01224433071911335,-0.0023956298828125,0.0244886614382267
2400390993500,1.2629413604736328,-9.657012939453125,1.4113819599151611,0.013309055007994175,-0.0066545275039970875,0.02555338479578495
2400392230687,1.2797008752822876,-9.654618263244629,1.434126853942871,0.010381062515079975,0.0,0.02315775491297245
2400393467900,1.2713210582733154,-9.716867446899414,1.434126853942871,0.01463996060192585,-0.0029279920272529125,0.0292799212038517
2400394705112,1.2665326595306396,-9.732430458068848,1.3970166444778442,0.014906140975654125,-0.007985432632267475,0.02422248013317585
2400395942300,1.2832921743392944,-9.697713851928711,1.3874398469924927,0.01943122036755085,-0.00931633822619915,0.02422248013317585
2400397179512,1.2761094570159912,-9.668983459472656,1.3670891523361206,0.01756795309484005,-0.010381062515079975,0.0271504707634449
2400398416725,1.2761094570159912,-9.683348655700684,1.4317326545715332,0.010647243820130825,-0.0077192517928779125,0.0196974016726017
2400399653912,1.2413935661315918,-9.730035781860352,1.3754688501358032,0.013309055007994175,-0.005855984054505825,0.023956298828125
2400400891125,1.2521674633026123,-9.68574333190918,1.3910311460494995,0.014906140975654125,-0.008783976547420025,0.0252872034907341
2400402128300,1.2713210582733154,-9.671378135681152,1.4077906608581543,0.0173017717897892,-0.010913425125181675,0.02608574740588665
2400403365500,1.2401964664459229,-9.66299819946289,1.4317326545715332,0.014373779296875,-0.00931633822619915,0.02901373989880085
2400404602712,1.2294225692749023,-9.694122314453125,1.416170358657837,0.01650322787463665,-0.00984870083630085,0.02502102218568325
2400405839925,1.2449848651885986,-9.701305389404297,1.3922282457351685,0.01756795309484005,-0.008251613937318325,0.0258195661008358
2400407077125,1.2449848651885986,-9.726444244384766,1.4257471561431885,0.01943122036755085,-0.013042873702943325,0.0252872034907341
2400408314337,1.236605167388916,-9.709685325622559,1.3886369466781616,0.012776692397892475,-0.007985432632267475,0.02182685025036335
2400409551550,1.2246341705322266,-9.6989107131958,1.3886369466781616,0.01597086526453495,-0.00452507846057415,0.02262539230287075
2400410788725,1.2318167686462402,-9.704896926879883,1.380257248878479,0.0173017717897892,-0.00931633822619915,0.01996358297765255
2400412025937,1.2797008752822876,-9.758766174316406,1.3838485479354858,0.0173017717897892,-0.006122165359556675,0.0210283063352108
2400413263112,1.2844892740249634,-9.707290649414062,1.3718775510787964,0.01783413253724575,-0.01171196810901165,0.02315775491297245
2400414500325,1.2042834758758545,-9.68933391571045,1.4041993618011475,0.0247548408806324,-0.01171196810901165,0.02022976242005825
2400415737537,1.2246341705322266,-9.736021041870117,1.4257471561431885,0.0228915736079216,-0.01224433071911335,0.02022976242005825
2400416974737,1.2437877655029297,-9.732430458068848,1.3611036539077759,0.02022976242005825,-0.00931633822619915,0.0215606689453125
2400418211937,1.2282254695892334,-9.714473724365234,1.4185645580291748,0.02315775491297245,-0.01117960549890995,0.01996358297765255
2400419449137,1.212663173675537,-9.75517463684082,1.4065935611724854,0.02315775491297245,-0.01117960549890995,0.0181003138422966
2400420686350,1.2294225692749023,-9.764751434326172,1.4173674583435059,0.0196974016726017,-0.0138414166867733,0.0181003138422966
2400421923550,1.2533645629882812,-9.756372451782227,1.4317326545715332,0.0210283063352108,-0.01650322787463665,0.01996358297765255
2400423160750,1.2270283699035645,-9.731232643127441,1.3886369466781616,0.02129448764026165,-0.010381062515079975,0.01996358297765255
2400424397962,1.237802267074585,-9.740809440612793,1.4113819599151611,0.01836649514734745,-0.0114457868039608,0.0204959437251091
2400425635150,1.2497732639312744,-9.750386238098145,1.3742717504501343,0.0162370465695858,-0.01171196810901165,0.0167694091796875
2400426872350,1.2270283699035645,-9.726444244384766,1.4449007511138916,0.014906140975654125,-0.010114881210029125,0.0162370465695858
2400428109550,1.259350061416626,-9.750386238098145,1.4113819599151611,0.01597086526453495,-0.010381062515079975,0.01943122036755085
2400429346762,1.2246341705322266,-9.727641105651855,1.381454348564148,0.02076212503015995,-0.01463996060192585,0.0186326764523983
2400430583962,1.2557587623596191,-9.763554573059082,1.3658920526504517,0.0191650390625,-0.014373779296875,0.01703559048473835
2400431821175,1.2868834733963013,-9.75278091430664,1.43532395362854,0.01836649514734745,-0.00958251953125,0.0173017717897892
2400433058375,1.2449848651885986,-9.71926212310791,1.4041993618011475,0.01650322787463665,-0.010647243820130825,0.0186326764523983
2400434295575,1.2521674633026123,-9.733627319335938,1.413776159286499,0.0191650390625,-0.013309055007994175,0.01597086526453495
2400435532775,1.2497732639312744,-9.707290649414062,1.4006080627441406,0.0186326764523983,-0.015172322280704975,0.0167694091796875
2400436769975,1.2665326595306396,-9.733627319335938,1.3670891523361206,0.015172322280704975,-0.01357523538172245,0.0186326764523983
2400438007162,1.2294225692749023,-9.747992515563965,1.3922282457351685,0.01756795309484005,-0.013309055007994175,0.01889885775744915
2400439244362,1.235408067703247,-9.736021041870117,1.41257905960083,0.0186326764523983,-0.014373779296875,0.013309055007994175
2400440481562,1.258152961730957,-9.733627319335938,1.3958195447921753,0.0220930315554142,-0.013309055007994175,0.01889885775744915
2400441718775,1.2294225692749023,-9.759963035583496,1.4305355548858643,0.0215606689453125,-0.014373779296875,0.01783413253724575
2400442955962,1.1899182796478271,-9.71926212310791,1.4520833492279053,0.0186326764523983,-0.0138414166867733,0.01410759799182415
2400444193175,1.2198457717895508,-9.761160850524902,1.4053964614868164,0.0196974016726017,-0.0167694091796875,0.0215606689453125
2400445430375,1.2461819648742676,-9.71926212310791,1.4041993618011475,0.02022976242005825,-0.0119781494140625,0.0138414166867733
2400446667587,1.194706678390503,-9.706093788146973,1.4113819599151611,0.02369011752307415,-0.0167694091796875,0.015438503585755825
2400447904775,1.2401964664459229,-9.75397777557373,1.3862427473068237,0.01943122036755085,-0.01597086526453495,0.0157046839594841
2400449141987,1.213860273361206,-9.75158405303955,1.4065935611724854,0.02129448764026165,-0.015172322280704975,0.0173017717897892
2400450379187,1.2030863761901855,-9.769539833068848,1.3982137441635132,0.0196974016726017,-0.01410759799182415,0.01703559048473835
2400451616375,1.2066776752471924,-9.7420072555542,1.41257905960083,0.02022976242005825,-0.01943122036755085,0.01703559048473835
2400452853575,1.2401964664459229,-9.769539833068848,1.4508862495422363,0.0215606689453125,-0.014373779296875,0.0119781494140625
2400454090787,1.1839327812194824,-9.733627319335938,1.3934253454208374,0.0157046839594841,-0.01597086526453495,0.0138414166867733
2400455327987,1.2234370708465576,-9.77672290802002,1.3706804513931274,0.015172322280704975,-0.015438503585755825,0.015172322280704975
2400456565200,1.213860273361206,-9.761160850524902,1.381454348564148,0.01756795309484005,-0.013042873702943325,0.0114457868039608
2400457802400,1.2018892765045166,-9.736021041870117,1.455674648284912,0.01783413253724575,-0.0119781494140625,0.0138414166867733
2400459039587,1.2246341705322266,-9.757569313049316,1.3898340463638306,0.01943122036755085,-0.012776692397892475,0.015438503585755825
2400460276800,1.216254472732544,-9.731232643127441,1.4389152526855469,0.0162370465695858,-0.0119781494140625,0.014373779296875
2400461514000,1.2018892765045166,-9.730035781860352,1.4173674583435059,0.01889885775744915,-0.01117960549890995,0.01756795309484005
2400462751212,1.1982979774475098,-9.793481826782227,1.3994109630584717,0.01889885775744915,-0.0090501569211483,0.0210283063352108
2400463988412,1.2210428714752197,-9.7420072555542,1.3898340463638306,0.02182685025036335,-0.01171196810901165,0.0210283063352108
2400465225600,1.2006921768188477,-9.750386238098145,1.414973258972168,0.0181003138422966,-0.01357523538172245,0.01703559048473835
2400466462800,1.2234370708465576,-9.739612579345703,1.4413094520568848,0.0196974016726017,-0.013042873702943325,0.0138414166867733
2400467700000,1.2042834758758545,-9.745597839355469,1.4221558570861816,0.02076212503015995,-0.015172322280704975,0.0090501569211483
2400468937225,1.2198457717895508,-9.709685325622559,1.4065935611724854,0.0157046839594841,-0.012510511092841625,0.008251613937318325
2400470174425,1.2246341705322266,-9.728838920593262,1.4065935611724854,0.0173017717897892,-0.01410759799182415,0.007453070487827063
2400471411612,1.1779472827911377,-9.725247383117676,1.4077906608581543,0.0173017717897892,-0.01756795309484005,0.0119781494140625
2400472648837,1.1875240802764893,-9.737218856811523,1.4640543460845947,0.01650322787463665,-0.0114457868039608,0.01703559048473835
2400473886012,1.1959037780761719,-9.768342971801758,1.4065935611724854,0.015438503585755825,-0.0119781494140625,0.012776692397892475
2400475123225,1.2066776752471924,-9.75278091430664,1.3910311460494995,0.01463996060192585,-0.0066545275039970875,0.008783976547420025
2400476360425,1.2078747749328613,-9.77552604675293,1.4065935611724854,0.01783413253724575,-0.01117960549890995,0.014373779296875
2400477597625,1.2018892765045166,-9.708487510681152,1.4269442558288574,0.0162370465695858,-0.013309055007994175,0.01597086526453495
2400478834825,1.1767501831054688,-9.732430458068848,1.4437036514282227,0.0181003138422966,-0.008783976547420025,0.0114457868039608
2400480072037,1.2282254695892334,-9.757569313049316,1.3982137441635132,0.02076212503015995,-0.010913425125181675,0.00692070834338665
2400481309237,1.2294225692749023,-9.691728591918945,1.3850456476211548,0.02502102218568325,-0.013309055007994175,0.0077192517928779125
2400482546437,1.1767501831054688,-9.730035781860352,1.4030022621154785,0.0196974016726017,-0.012776692397892475,0.010381062515079975
2400483783625,1.192312479019165,-9.743204116821289,1.4736311435699463,0.01463996060192585,-0.007453070487827063,0.0071868896484375
2400485020825,1.2102689743041992,-9.727641105651855,1.413776159286499,0.01943122036755085,-0.00931633822619915,0.0090501569211483
2400486258037,1.2018892765045166,-9.694122314453125,1.4197616577148438,0.01889885775744915,-0.0090501569211483,0.005057440605014563
2400487495250,1.2186486721038818,-9.716867446899414,1.3970166444778442,0.0186326764523983,-0.008783976547420025,0.0015970865497365594
2400488732450,1.256955862045288,-9.702502250671387,1.4041993618011475,0.0220930315554142,-0.010381062515079975,0.0031941730994731188
2400489969625,1.238999366760254,-9.682151794433594,1.4532804489135742,0.0210283063352108,-0.0066545275039970875,0.0026618109550327063
2400491206837,1.1875240802764893,-9.700108528137207,1.45806884765625,0.0223592109978199,-0.010114881210029125,0.0031941730994731188
2400492444037,1.2198457717895508,-9.703699111938477,1.4221558570861816,0.0173017717897892,-0.0071868896484375,0.0005323622026480734
2400493681250,1.2186486721038818,-9.696516990661621,1.4173674583435059,0.01996358297765255,-0.007985432632267475,-0.0031941730994731188
2400494918450,1.2413935661315918,-9.678560256958008,1.4700398445129395,0.0204959437251091,-0.00931633822619915,0.0015970865497365594
2400496155650,1.212663173675537,-9.715670585632324,1.48081374168396,0.01943122036755085,-0.010913425125181675,0.0015970865497365594
2400497392862,1.1887211799621582,-9.706093788146973,1.4006080627441406,0.02262539230287075,-0.00692070834338665,-0.0015970865497365594
2400498630062,1.2006921768188477,-9.655815124511719,1.4041993618011475,0.02422248013317585,-0.004791259765625,-0.0013309054775163531
2400499867250,1.1851298809051514,-9.701305389404297,1.4089877605438232,0.0196974016726017,-0.0077192517928779125,-0.0026618109550327063
2400501104462,1.171961784362793,-9.701305389404297,1.414973258972168,0.02182685025036335,-0.01463996060192585,-0.0039927163161337376
2400502341650,1.1803414821624756,-9.676166534423828,1.4006080627441406,0.0247548408806324,-0.0063883461989462376,-0.003460354171693325
2400503578862,1.1575965881347656,-9.706093788146973,1.3958195447921753,0.02369011752307415,-0.0066545275039970875,-0.0013309054775163531
2400504816050,1.1659762859344482,-9.692925453186035,1.3994109630584717,0.023956298828125,-0.0077192517928779125,0.0005323622026480734
2400506053262,1.192312479019165,-9.730035781860352,1.4460978507995605,0.0223592109978199,-0.0077192517928779125,-0.0071868896484375
2400507290462,1.2198457717895508,-9.700108528137207,1.4484920501708984,0.0247548408806324,-0.005589802749454975,-0.00452507846057415
2400508527675,1.1803414821624756,-9.704896926879883,1.4616601467132568,0.0263519287109375,-0.0071868896484375,-0.0031941730994731188
2400509764875,1.191115379333496,-9.68813705444336,1.4640543460845947,0.02981228195130825,-0.0042588976211845875,-0.0042588976211845875
2400511002075,1.1755530834197998,-9.676166534423828,1.436521053314209,0.0276828333735466,-0.0005323622026480734,-0.0071868896484375
2400512239262,1.192312479019165,-9.690531730651855,1.4508862495422363,0.0258195661008358,0.0005323622026480734,-0.0119781494140625
2400513476475,1.1635820865631104,-9.710882186889648,1.455674648284912,0.02315775491297245,-0.0013309054775163531,-0.00692070834338665
2400514713662,1.1540051698684692,-9.696516990661621,1.4293384552001953,0.02555338479578495,-0.0015970865497365594,-0.008517795242369175
2400515950887,1.1767501831054688,-9.744400978088379,1.4700398445129395,0.02874755859375,-0.003460354171693325,-0.0138414166867733
2400517188087,1.1599907875061035,-9.758766174316406,1.4652514457702637,0.02874755859375,-0.0042588976211845875,-0.007453070487827063
2400518425275,1.1755530834197998,-9.743204116821289,1.4437036514282227,0.02608574740588665,0.0015970865497365594,-0.0053236219100654125
2400519662462,1.1827356815338135,-9.745597839355469,1.4844050407409668,0.0234239362180233,0.0031941730994731188,-0.0114457868039608
2400520899687,1.1300631761550903,-9.732430458068848,1.3994109630584717,0.0271504707634449,-0.0010647244052961469,-0.007453070487827063
2400522136875,1.1575965881347656,-9.730035781860352,1.4089877605438232,0.0276828333735466,0.0,-0.0063883461989462376
2400523374100,1.193509578704834,-9.771934509277344,1.3886369466781616,0.0276828333735466,0.003460354171693325,-0.00931633822619915
2400524611300,1.169567584991455,-9.758766174316406,1.4233529567718506,0.0316755510866642,0.0026618109550327063,-0.0031941730994731188
2400525848500,1.1767501831054688,-9.769539833068848,1.4053964614868164,0.02741665206849575,0.008783976547420025,-0.0037265352439135313
2400527085700,1.1456254720687866,-9.700108528137207,1.3910311460494995,0.0311431884765625,0.0013309054775163531,-0.004791259765625
2400528322912,1.1779472827911377,-9.72285270690918,1.3934253454208374,0.0282151959836483,0.003460354171693325,-0.0026618109550327063
2400529560087,1.169567584991455,-9.712079048156738,1.3970166444778442,0.02502102218568325,0.0031941730994731188,-0.004791259765625
2400530797300,1.1827356815338135,-9.733627319335938,1.3970166444778442,0.0306108258664608,0.007453070487827063,-0.003460354171693325
2400532034500,1.1420341730117798,-9.696516990661621,1.3910311460494995,0.02981228195130825,0.0021294488105922937,-0.00452507846057415
2400533271700,1.2042834758758545,-9.713275909423828,1.4089877605438232,0.0282151959836483,0.0039927163161337376,-0.006122165359556675
2400534508900,1.1683704853057861,-9.712079048156738,1.416170358657837,0.02555338479578495,0.008251613937318325,-0.008517795242369175
2400535746112,1.2222399711608887,-9.732430458068848,1.4760253429412842,0.0263519287109375,0.004791259765625,-0.005855984054505825
2400536983312,1.2653355598449707,-9.732430458068848,1.43532395362854,0.033538818359375,0.007985432632267475,-0.0071868896484375
2400538220512,1.1743559837341309,-9.718064308166504,1.4460978507995605,0.0295461006462574,0.01117960549890995,-0.008251613937318325
2400539457725,1.1623849868774414,-9.757569313049316,1.4437036514282227,0.0234239362180233,0.0053236219100654125,-0.00452507846057415
2400540694937,1.194706678390503,-9.783905029296875,1.4329297542572021,0.0263519287109375,0.006122165359556675,-0.008517795242369175
2400541932112,1.1863269805908203,-9.771934509277344,1.4173674583435059,0.02901373989880085,0.0037265352439135313,-0.0063883461989462376
2400543169325,1.192312479019165,-9.745597839355469,1.4245500564575195,0.02874755859375,0.0037265352439135313,-0.0007985432748682797
2400544406525,1.2006921768188477,-9.731232643127441,1.4018051624298096,0.02794901467859745,0.00958251953125,-0.0119781494140625
2400545643725,1.194706678390503,-9.806650161743164,1.4293384552001953,0.02555338479578495,0.014373779296875,-0.0090501569211483
2400546880925,1.1563994884490967,-9.75158405303955,1.4053964614868164,0.0282151959836483,0.00931633822619915,-0.005589802749454975
2400548118112,1.1863269805908203,-9.768342971801758,1.4221558570861816,0.0252872034907341,0.005057440605014563,-0.005589802749454975
2400549355325,1.215057373046875,-9.759963035583496,1.413776159286499,0.02848137728869915,0.008517795242369175,-0.005589802749454975
2400550592525,1.1575965881347656,-9.767146110534668,1.3994109630584717,0.02661811001598835,0.008783976547420025,-0.005589802749454975
2400551829737,1.1635820865631104,-9.78869342803955,1.4006080627441406,0.02555338479578495,0.00931633822619915,-0.008251613937318325
2400553066937,1.1791443824768066,-9.756372451782227,1.4472949504852295,0.02262539230287075,0.012776692397892475,-0.010913425125181675
2400554304125,1.1815385818481445,-9.759963035583496,1.3874398469924927,0.02262539230287075,0.01357523538172245,-0.010647243820130825
2400555541325,1.1528080701828003,-9.783905029296875,1.4628572463989258,0.02315775491297245,0.013042873702943325,-0.008251613937318325
2400556778537,1.213860273361206,-9.789891242980957,1.4832079410552979,0.0210283063352108,0.01357523538172245,-0.007985432632267475
2400558015737,1.217451572418213,-9.786299705505371,1.4508862495422363,0.02502102218568325,0.014373779296875,-0.0063883461989462376
2400559252950,1.169567584991455,-9.765949249267578,1.4413094520568848,0.0263519287109375,0.0114457868039608,-0.006122165359556675
2400560490137,1.1563994884490967,-9.771934509277344,1.4077906608581543,0.02076212503015995,0.010913425125181675,-0.008783976547420025
2400561727350,1.1803414821624756,-9.7791166305542,1.4329297542572021,0.01836649514734745,0.013042873702943325,-0.007453070487827063
2400562964550,1.215057373046875,-9.793481826782227,1.456871747970581,0.0191650390625,0.01410759799182415,-0.0031941730994731188
2400564201750,1.2210428714752197,-9.798270225524902,1.4640543460845947,0.01756795309484005,0.01597086526453495,-0.006122165359556675
2400565438962,1.2030863761901855,-9.818621635437012,1.4269442558288574,0.014373779296875,0.01357523538172245,-0.005855984054505825
2400566676137,1.1803414821624756,-9.815030097961426,1.414973258972168,0.0167694091796875,0.014906140975654125,-0.00958251953125
2400567913350,1.1815385818481445,-9.789891242980957,1.3886369466781616,0.01783413253724575,0.01650322787463665,-0.0090501569211483
2400569150562,1.1767501831054688,-9.782708168029785,1.4089877605438232,0.0215606689453125,0.014906140975654125,-0.0077192517928779125
2400570387775,1.2330138683319092,-9.791088104248047,1.4185645580291748,0.01650322787463665,0.0162370465695858,-0.0042588976211845875
2400571624975,1.1552022695541382,-9.794679641723633,1.3646949529647827,0.0119781494140625,0.02076212503015995,-0.00958251953125
2400572862162,1.1444283723831177,-9.795876502990723,1.4030022621154785,0.013309055007994175,0.0196974016726017,-0.006122165359556675
2400574099362,1.1959037780761719,-9.823410034179688,1.3958195447921753,0.013042873702943325,0.014373779296875,-0.007453070487827063
2400575336562,1.1683704853057861,-9.84376049041748,1.4425065517425537,0.0119781494140625,0.01463996060192585,-0.005855984054505825
2400576573775,1.1982979774475098,-9.824606895446777,1.4508862495422363,0.012776692397892475,0.01597086526453495,-0.003460354171693325
2400577810950,1.192312479019165,-9.801861763000488,1.4496891498565674,0.010114881210029125,0.0181003138422966,-0.0037265352439135313
2400579048175,1.1492167711257935,-9.838972091674805,1.4089877605438232,0.007985432632267475,0.02022976242005825,-0.0026618109550327063
2400580285387,1.1659762859344482,-9.830592155456543,1.434126853942871,0.005589802749454975,0.0191650390625,-0.004791259765625
2400581522587,1.1563994884490967,-9.818621635437012,1.382651448249817,0.0037265352439135313,0.0186326764523983,-0.0018632676219567657
2400582759762,1.1587936878204346,-9.819818496704102,1.4425065517425537,0.0010647244052961469,0.02369011752307415,-0.006122165359556675
2400583996975,1.2066776752471924,-9.821015357971191,1.4018051624298096,0.00958251953125,0.01996358297765255,-0.0071868896484375
2400585234175,1.2102689743041992,-9.797073364257812,1.4221558570861816,0.010114881210029125,0.01597086526453495,-0.005057440605014563
2400586471362,1.1827356815338135,-9.847352027893066,1.4413094520568848,0.007453070487827063,0.01597086526453495,0.0005323622026480734
2400587708600,1.192312479019165,-9.841365814208984,1.436521053314209,0.0063883461989462376,0.0162370465695858,0.0007985432748682797
2400588945787,1.1827356815338135,-9.834183692932129,1.3898340463638306,0.0039927163161337376,0.0204959437251091,0.0015970865497365594
2400590182987,1.2042834758758545,-9.806650161743164,1.3623007535934448,0.0026618109550327063,0.0196974016726017,-0.0015970865497365594
2400591420187,1.1336544752120972,-9.865307807922363,1.4113819599151611,0.0005323622026480734,0.02262539230287075,-0.0021294488105922937
2400592657387,1.1647791862487793,-9.838972091674805,1.4460978507995605,0.0037265352439135313,0.0204959437251091,0.0002661811013240367
2400593894587,1.1982979774475098,-9.865307807922363,1.4221558570861816,0.0018632676219567657,0.01756795309484005,0.0053236219100654125
2400595131800,1.1827356815338135,-9.815030097961426,1.4101848602294922,-0.0015970865497365594,0.0204959437251091,0.007453070487827063
2400596369012,1.1647791862487793,-9.821015357971191,1.4173674583435059,-0.0010647244052961469,0.0215606689453125,0.008517795242369175
2400597606187,1.236605167388916,-9.855731010437012,1.4460978507995605,-0.003460354171693325,0.0215606689453125,0.008517795242369175
2400598843400,1.1887211799621582,-9.817423820495605,1.4185645580291748,-0.004791259765625,0.02555338479578495,0.0066545275039970875
2400600080600,1.173158884048462,-9.774328231811523,1.4245500564575195,-0.00452507846057415,0.0196974016726017,0.010647243820130825
2400601317800,1.1887211799621582,-9.81263542175293,1.4413094520568848,-0.0031941730994731188,0.02022976242005825,0.007453070487827063
2400602555000,1.2054805755615234,-9.805453300476074,1.4293384552001953,-0.004791259765625,0.02502102218568325,0.007985432632267475
2400603792212,1.2282254695892334,-9.792284965515137,1.4245500564575195,-0.00692070834338665,0.02262539230287075,0.014373779296875
2400605029400,1.2497732639312744,-9.758766174316406,1.3982137441635132,-0.0090501569211483,0.023956298828125,0.0090501569211483
2400606266625,1.2102689743041992,-9.77552604675293,1.3982137441635132,-0.012510511092841625,0.0263519287109375,0.01357523538172245
2400607503812,1.236605167388916,-9.792284965515137,1.4065935611724854,-0.0066545275039970875,0.0247548408806324,0.014906140975654125
2400608741012,1.2318167686462402,-9.769539833068848,1.4413094520568848,-0.01117960549890995,0.0228915736079216,0.014373779296875
2400609978212,1.2258312702178955,-9.781511306762695,1.413776159286499,-0.00958251953125,0.0215606689453125,0.01171196810901165
2400611215412,1.2641384601593018,-9.713275909423828,1.4425065517425537,-0.010114881210029125,0.02182685025036335,0.0157046839594841
2400612452625,1.2066776752471924,-9.769539833068848,1.3982137441635132,-0.0090501569211483,0.01996358297765255,0.01597086526453495
2400613689837,1.2330138683319092,-9.793481826782227,1.4425065517425537,-0.00984870083630085,0.02502102218568325,0.014906140975654125
2400614927025,1.2497732639312744,-9.738415718078613,1.4233529567718506,-0.0090501569211483,0.02369011752307415,0.0173017717897892
2400616164225,1.2102689743041992,-9.736021041870117,1.41257905960083,-0.007453070487827063,0.02129448764026165,0.01597086526453495
2400617401425,1.192312479019165,-9.724050521850586,1.4544775485992432,-0.012510511092841625,0.0173017717897892,0.0173017717897892
2400618638625,1.2318167686462402,-9.762357711791992,1.3754688501358032,-0.012776692397892475,0.0186326764523983,0.0220930315554142
2400619875837,1.256955862045288,-9.7791166305542,1.3778630495071411,-0.008251613937318325,0.01996358297765255,0.02262539230287075
2400621113012,1.2042834758758545,-9.7420072555542,1.4245500564575195,-0.0119781494140625,0.0244886614382267,0.014373779296875
2400622350237,1.213860273361206,-9.747992515563965,1.4269442558288574,-0.012510511092841625,0.0191650390625,0.0196974016726017
2400623587450,1.258152961730957,-9.768342971801758,1.437718152999878,-0.008517795242369175,0.02262539230287075,0.0276828333735466
2400624824637,1.2449848651885986,-9.712079048156738,1.459265947341919,-0.0090501569211483,0.0220930315554142,0.02741665206849575
2400626061837,1.2234370708465576,-9.774328231811523,1.4209587574005127,-0.00984870083630085,0.0210283063352108,0.0181003138422966
2400627299037,1.236605167388916,-9.75158405303955,1.4676456451416016,-0.01117960549890995,0.01943122036755085,0.0191650390625
2400628536237,1.2078747749328613,-9.715670585632324,1.48081374168396,-0.00931633822619915,0.0196974016726017,0.02262539230287075
2400629773437,1.259350061416626,-9.737218856811523,1.4460978507995605,-0.00984870083630085,0.0220930315554142,0.0196974016726017
2400631010650,1.2461819648742676,-9.768342971801758,1.3970166444778442,-0.0114457868039608,0.0210283063352108,0.0138414166867733
2400632247862,1.2413935661315918,-9.787496566772461,1.3862427473068237,-0.010114881210029125,0.0167694091796875,0.0220930315554142
2400633485037,1.2473790645599365,-9.759963035583496,1.4197616577148438,-0.012776692397892475,0.0196974016726017,0.01996358297765255
2400634722250,1.2282254695892334,-9.758766174316406,1.4425065517425537,-0.014906140975654125,0.01783413253724575,0.02182685025036335
2400635959462,1.2270283699035645,-9.799468040466309,1.4413094520568848,-0.010913425125181675,0.015438503585755825,0.0228915736079216
2400637196675,1.2270283699035645,-9.77672290802002,1.455674648284912,-0.0119781494140625,0.02022976242005825,0.02129448764026165
2400638433862,1.2533645629882812,-9.763554573059082,1.4329297542572021,-0.0157046839594841,0.014906140975654125,0.02608574740588665
2400639671050,1.2557587623596191,-9.768342971801758,1.416170358657837,-0.014373779296875,0.01756795309484005,0.02262539230287075
2400640908262,1.217451572418213,-9.77552604675293,1.436521053314209,-0.0114457868039608,0.014906140975654125,0.0247548408806324
2400642145475,1.2234370708465576,-9.783905029296875,1.4041993618011475,-0.0114457868039608,0.010647243820130825,0.0234239362180233
2400643382675,1.2282254695892334,-9.774328231811523,1.3958195447921753,-0.01117960549890995,0.015172322280704975,0.0247548408806324
2400644619862,1.2773066759109497,-9.756372451782227,1.4018051624298096,-0.0114457868039608,0.0186326764523983,0.0268842913210392
2400645857087,1.2557587623596191,-9.740809440612793,1.4233529567718506,-0.012510511092841625,0.01357523538172245,0.02741665206849575
2400647094275,1.2653355598449707,-9.718064308166504,1.4401123523712158,-0.014373779296875,0.012776692397892475,0.0271504707634449
2400648331475,1.259350061416626,-9.727641105651855,1.4401123523712158,-0.01117960549890995,0.008517795242369175,0.0258195661008358
2400649568675,1.2282254695892334,-9.716867446899414,1.434126853942871,-0.013042873702943325,0.0119781494140625,0.0258195661008358
2400650805887,1.2234370708465576,-9.696516990661621,1.413776159286499,-0.02022976242005825,0.0138414166867733,0.02182685025036335
2400652043087,1.2330138683319092,-9.6989107131958,1.4113819599151611,-0.014906140975654125,0.010647243820130825,0.01996358297765255
2400653280262,1.2318167686462402,-9.706093788146973,1.4269442558288574,-0.0191650390625,0.01171196810901165,0.0252872034907341
2400654517475,1.212663173675537,-9.736021041870117,1.4293384552001953,-0.01463996060192585,0.0181003138422966,0.0306108258664608
2400655754687,1.2186486721038818,-9.712079048156738,1.4460978507995605,-0.0157046839594841,0.0157046839594841,0.02874755859375
2400656991875,1.2234370708465576,-9.707290649414062,1.4437036514282227,-0.0167694091796875,0.01357523538172245,0.0271504707634449
2400658229100,1.2102689743041992,-9.707290649414062,1.4844050407409668,-0.0162370465695858,0.01224433071911335,0.02608574740588665
2400659466287,1.2473790645599365,-9.737218856811523,1.4437036514282227,-0.010913425125181675,0.00984870083630085,0.0268842913210392
2400660703500,1.2413935661315918,-9.728838920593262,1.4293384552001953,-0.013042873702943325,0.0119781494140625,0.0263519287109375
2400661940700,1.194706678390503,-9.712079048156738,1.4305355548858643,-0.01783413253724575,0.01224433071911335,0.0215606689453125
2400663177887,1.2042834758758545,-9.732430458068848,1.4197616577148438,-0.01889885775744915,0.0119781494140625,0.02129448764026165
2400664415100,1.2018892765045166,-9.713275909423828,1.4652514457702637,-0.0157046839594841,0.0138414166867733,0.02661811001598835
2400665652287,1.2330138683319092,-9.737218856811523,1.43532395362854,-0.013309055007994175,0.010381062515079975,0.02661811001598835
2400666889512,1.1839327812194824,-9.749189376831055,1.45806884765625,-0.01463996060192585,0.013309055007994175,0.02794901467859745
2400668126700,1.2401964664459229,-9.761160850524902,1.4484920501708984,-0.01357523538172245,0.008251613937318325,0.02901373989880085
2400669363900,1.2521674633026123,-9.749189376831055,1.4460978507995605,-0.015172322280704975,0.005589802749454975,0.0268842913210392
2400670601125,1.2078747749328613,-9.715670585632324,1.437718152999878,-0.015172322280704975,0.008251613937318325,0.02076212503015995
2400671838312,1.2330138683319092,-9.732430458068848,1.4173674583435059,-0.0157046839594841,0.008783976547420025,0.02502102218568325
2400673075537,1.2198457717895508,-9.724050521850586,1.456871747970581,-0.0173017717897892,0.008783976547420025,0.02502102218568325
2400674312737,1.2449848651885986,-9.708487510681152,1.4329297542572021,-0.0220930315554142,0.0053236219100654125,0.02129448764026165
2400675549912,1.1971008777618408,-9.739612579345703,1.4053964614868164,-0.012776692397892475,0.006122165359556675,0.023956298828125
2400676787125,1.1982979774475098,-9.72165584564209,1.4077906608581543,-0.01650322787463665,0.0063883461989462376,0.0263519287109375
2400678024337,1.2282254695892334,-9.747992515563965,1.4389152526855469,-0.01756795309484005,0.007453070487827063,0.0247548408806324
2400679261525,1.1982979774475098,-9.691728591918945,1.4329297542572021,-0.01703559048473835,0.0037265352439135313,0.02901373989880085
2400680498725,1.2270283699035645,-9.734824180603027,1.4389152526855469,-0.0173017717897892,0.004791259765625,0.0234239362180233
2400681735937,1.1611878871917725,-9.75517463684082,1.4101848602294922,-0.01703559048473835,0.0037265352439135313,0.01836649514734745
2400682973137,1.2054805755615234,-9.75278091430664,1.4065935611724854,-0.02262539230287075,0.00692070834338665,0.02262539230287075
2400684210337,1.2246341705322266,-9.732430458068848,1.4281413555145264,-0.0191650390625,0.0071868896484375,0.0196974016726017
2400685447537,1.2078747749328613,-9.746795654296875,1.4077906608581543,-0.0173017717897892,0.0018632676219567657,0.01943122036755085
2400686684737,1.2210428714752197,-9.724050521850586,1.436521053314209,-0.01756795309484005,0.0010647244052961469,0.0220930315554142
2400687921950,1.191115379333496,-9.694122314453125,1.4520833492279053,-0.0162370465695858,0.0002661811013240367,0.02369011752307415
2400689159150,1.2018892765045166,-9.704896926879883,1.4413094520568848,-0.0119781494140625,-0.0005323622026480734,0.0223592109978199
2400690396337,1.2330138683319092,-9.763554573059082,1.4425065517425537,-0.015438503585755825,0.00452507846057415,0.0234239362180233
2400691633562,1.216254472732544,-9.713275909423828,1.4413094520568848,-0.01943122036755085,0.00452507846057415,0.02076212503015995
2400692870737,1.2042834758758545,-9.712079048156738,1.4197616577148438,-0.01650322787463665,0.0037265352439135313,0.0210283063352108
2400694107950,1.2294225692749023,-9.715670585632324,1.434126853942871,-0.01943122036755085,0.0063883461989462376,0.01783413253724575
2400695345162,1.2485761642456055,-9.744400978088379,1.460463047027588,-0.02129448764026165,0.005057440605014563,0.01943122036755085
2400696582387,1.2449848651885986,-9.720458984375,1.4449007511138916,-0.0181003138422966,0.0018632676219567657,0.015438503585755825
2400697819575,1.2018892765045166,-9.670180320739746,1.4089877605438232,-0.015438503585755825,0.0010647244052961469,0.01357523538172245
2400699056762,1.235408067703247,-9.694122314453125,1.4496891498565674,-0.0228915736079216,0.0010647244052961469,0.015438503585755825
2400700293962,1.2042834758758545,-9.730035781860352,1.4281413555145264,-0.0204959437251091,0.0010647244052961469,0.0162370465695858
2400701531175,1.2318167686462402,-9.703699111938477,1.455674648284912,-0.01783413253724575,-0.0029279920272529125,0.0210283063352108
2400702768375,1.2198457717895508,-9.725247383117676,1.4233529567718506,-0.01650322787463665,0.0005323622026480734,0.01836649514734745
2400704005575,1.2078747749328613,-9.695320129394531,1.37906014919281,-0.0223592109978199,0.0029279920272529125,0.0162370465695858
2400705242775,1.1982979774475098,-9.710882186889648,1.4197616577148438,-0.01889885775744915,-0.0007985432748682797,0.01756795309484005
2400706479975,1.2282254695892334,-9.732430458068848,1.3862427473068237,-0.014373779296875,-0.0013309054775163531,0.013309055007994175
2400707717175,1.215057373046875,-9.713275909423828,1.4449007511138916,-0.01889885775744915,0.00452507846057415,0.012510511092841625
2400708954387,1.1971008777618408,-9.707290649414062,1.4089877605438232,-0.0196974016726017,0.0031941730994731188,0.012510511092841625
2400710191575,1.2294225692749023,-9.715670585632324,1.4401123523712158,-0.0191650390625,0.0007985432748682797,0.00958251953125
2400711428775,1.1767501831054688,-9.6989107131958,1.4030022621154785,-0.0181003138422966,-0.0010647244052961469,0.0114457868039608
2400712665987,1.2282254695892334,-9.694122314453125,1.459265947341919,-0.015438503585755825,-0.005855984054505825,0.01463996060192585
2400713903200,1.2234370708465576,-9.683348655700684,1.437718152999878,-0.0157046839594841,-0.0037265352439135313,0.012510511092841625
2400715140387,1.2078747749328613,-9.673771858215332,1.4018051624298096,-0.01463996060192585,0.0007985432748682797,0.00958251953125
2400716377587,1.1887211799621582,-9.702502250671387,1.4544775485992432,-0.01410759799182415,-0.0013309054775163531,0.010114881210029125
2400717614800,1.191115379333496,-9.702502250671387,1.48081374168396,-0.0138414166867733,-0.0002661811013240367,0.010114881210029125
2400718852000,1.1863269805908203,-9.724050521850586,1.4508862495422363,-0.015172322280704975,0.0010647244052961469,0.010647243820130825
2400720089187,1.1863269805908203,-9.700108528137207,1.413776159286499,-0.01597086526453495,0.0013309054775163531,0.008783976547420025
2400721326425,1.1839327812194824,-9.672574996948242,1.4065935611724854,-0.01756795309484005,0.0007985432748682797,0.010913425125181675
2400722563612,1.217451572418213,-9.700108528137207,1.4101848602294922,-0.01224433071911335,-0.0015970865497365594,0.010114881210029125
2400723800812,1.1959037780761719,-9.676166534423828,1.434126853942871,-0.014373779296875,0.0007985432748682797,0.007453070487827063
2400725038012,1.2030863761901855,-9.68933391571045,1.434126853942871,-0.01357523538172245,-0.0002661811013240367,0.0071868896484375
2400726275200,1.2330138683319092,-9.713275909423828,1.4077906608581543,-0.012776692397892475,-0.0002661811013240367,0.0026618109550327063
2400727512412,1.236605167388916,-9.720458984375,1.4508862495422363,-0.00958251953125,0.0010647244052961469,0.005855984054505825
2400728749600,1.1671733856201172,-9.718064308166504,1.41257905960083,-0.0173017717897892,0.0037265352439135313,0.0023956298828125
2400729986825,1.212663173675537,-9.708487510681152,1.4101848602294922,-0.015172322280704975,0.0031941730994731188,0.0029279920272529125
2400731224025,1.192312479019165,-9.707290649414062,1.4736311435699463,-0.014906140975654125,-0.0010647244052961469,0.0063883461989462376
2400732461212,1.2210428714752197,-9.680954933166504,1.4197616577148438,-0.015172322280704975,-0.0013309054775163531,0.0119781494140625
2400733698425,1.213860273361206,-9.707290649414062,1.3922282457351685,-0.013042873702943325,0.0023956298828125,0.0018632676219567657
2400734935637,1.2186486721038818,-9.706093788146973,1.4389152526855469,-0.013309055007994175,0.0007985432748682797,0.0026618109550327063
2400736172837,1.2102689743041992,-9.674968719482422,1.4257471561431885,-0.01703559048473835,-0.0010647244052961469,-0.0002661811013240367
2400737410037,1.1456254720687866,-9.672574996948242,1.4425065517425537,-0.013309055007994175,-0.0002661811013240367,-0.0026618109550327063
2400738647237,1.2258312702178955,-9.660603523254395,1.436521053314209,-0.00984870083630085,-0.007453070487827063,0.0029279920272529125
2400739884437,1.1959037780761719,-9.666589736938477,1.4006080627441406,-0.012510511092841625,-0.0002661811013240367,0.0039927163161337376
2400741121650,1.1528080701828003,-9.653421401977539,1.4449007511138916,-0.01171196810901165,0.0,0.0018632676219567657
2400742358837,1.171961784362793,-9.731232643127441,1.4508862495422363,-0.0042588976211845875,0.0023956298828125,0.0018632676219567657
2400743596050,1.2066776752471924,-9.670180320739746,1.4233529567718506,-0.0063883461989462376,0.0029279920272529125,-0.0002661811013240367
2400744833262,1.2030863761901855,-9.702502250671387,1.414973258972168,-0.0090501569211483,0.0029279920272529125,-0.0037265352439135313
2400746070437,1.1851298809051514,-9.654618263244629,1.436521053314209,-0.01117960549890995,0.0013309054775163531,-0.0039927163161337376
2400747307637,1.1971008777618408,-9.682151794433594,1.4425065517425537,-0.010647243820130825,0.005855984054505825,-0.0066545275039970875
2400748544862,1.1994950771331787,-9.649829864501953,1.4329297542572021,-0.007453070487827063,0.0031941730994731188,-0.004791259765625
2400749782050,1.2006921768188477,-9.654618263244629,1.41257905960083,-0.0071868896484375,0.006122165359556675,-0.0005323622026480734
2400751019275,1.1875240802764893,-9.640253067016602,1.4425065517425537,-0.00958251953125,0.0026618109550327063,-0.0039927163161337376
2400752256462,1.1552022695541382,-9.6989107131958,1.455674648284912,-0.00452507846057415,-0.0002661811013240367,-0.0029279920272529125
2400753493662,1.2054805755615234,-9.68933391571045,1.4401123523712158,-0.0090501569211483,0.00692070834338665,-0.00692070834338665
2400754730862,1.1791443824768066,-9.668983459472656,1.414973258972168,-0.008517795242369175,0.0015970865497365594,-0.0063883461989462376
2400755968050,1.2186486721038818,-9.676166534423828,1.4281413555145264,-0.00692070834338665,0.0005323622026480734,-0.0077192517928779125
2400757205262,1.217451572418213,-9.6618013381958,1.3838485479354858,-0.007453070487827063,0.008251613937318325,-0.00931633822619915
2400758442475,1.2066776752471924,-9.673771858215332,1.4425065517425537,0.0,0.0037265352439135313,-0.0021294488105922937
2400759679675,1.1755530834197998,-9.68813705444336,1.4281413555145264,-0.0023956298828125,-0.0021294488105922937,-0.0066545275039970875
2400760916875,1.1791443824768066,-9.679757118225098,1.4113819599151611,-0.0021294488105922937,0.0042588976211845875,-0.005057440605014563
2400762154075,1.1827356815338135,-9.701305389404297,1.456871747970581,-0.0013309054775163531,0.005855984054505825,-0.007985432632267475
2400763391287,1.1647791862487793,-9.720458984375,1.4030022621154785,-0.0039927163161337376,0.00452507846057415,-0.008517795242369175
2400764628475,1.1779472827911377,-9.668983459472656,1.359906554222107,0.0002661811013240367,0.008251613937318325,-0.0090501569211483
2400765865662,1.2054805755615234,-9.694122314453125,1.4293384552001953,0.0,0.01117960549890995,-0.0090501569211483
2400767102875,1.2042834758758545,-9.634267807006836,1.3958195447921753,-0.0010647244052961469,0.008517795242369175,-0.006122165359556675
2400768340112,1.2401964664459229,-9.706093788146973,1.3754688501358032,0.0013309054775163531,0.0063883461989462376,-0.00692070834338665
2400769577300,1.2449848651885986,-9.6989107131958,1.4484920501708984,0.0031941730994731188,0.00958251953125,-0.007453070487827063
2400770814500,1.2497732639312744,-9.690531730651855,1.4209587574005127,0.0021294488105922937,0.012776692397892475,-0.0071868896484375
2400772051687,1.1899182796478271,-9.682151794433594,1.4030022621154785,0.0002661811013240367,0.00452507846057415,-0.00931633822619915
2400773288900,1.213860273361206,-9.68933391571045,1.437718152999878,-0.0010647244052961469,0.00958251953125,-0.014373779296875
2400774526112,1.2018892765045166,-9.682151794433594,1.4113819599151611,0.0007985432748682797,0.01117960549890995,-0.010913425125181675
2400775763312,1.2509703636169434,-9.668983459472656,1.4185645580291748,0.0010647244052961469,0.0066545275039970875,-0.00931633822619915
2400777000500,1.2306196689605713,-9.671378135681152,1.3994109630584717,0.0026618109550327063,0.00984870083630085,-0.013309055007994175
2400778237700,1.213860273361206,-9.6618013381958,1.381454348564148,0.0031941730994731188,0.0063883461989462376,-0.01463996060192585
2400779474900,1.213860273361206,-9.692925453186035,1.4293384552001953,0.0023956298828125,0.008251613937318325,-0.014906140975654125
2400780712112,1.2473790645599365,-9.619902610778809,1.4245500564575195,0.0013309054775163531,0.013042873702943325,-0.01703559048473835
2400781949312,1.2449848651885986,-9.6618013381958,1.3838485479354858,0.006122165359556675,0.008783976547420025,-0.0167694091796875
2400783186512,1.1887211799621582,-9.670180320739746,1.4305355548858643,0.008251613937318325,0.00692070834338665,-0.012510511092841625
2400784423737,1.2246341705322266,-9.666589736938477,1.4006080627441406,0.0042588976211845875,0.014373779296875,-0.0157046839594841
2400785660925,1.2270283699035645,-9.65222454071045,1.41257905960083,0.0015970865497365594,0.01224433071911335,-0.01597086526453495
2400786898125,1.2042834758758545,-9.68933391571045,1.4389152526855469,0.0042588976211845875,0.013042873702943325,-0.013042873702943325
2400788135325,1.1982979774475098,-9.680954933166504,1.413776159286499,0.01117960549890995,0.014906140975654125,-0.0228915736079216
2400789372525,1.1863269805908203,-9.68694019317627,1.4305355548858643,0.010381062515079975,0.014906140975654125,-0.0223592109978199
2400790609725,1.1899182796478271,-9.66539192199707,1.4018051624298096,0.010647243820130825,0.012776692397892475,-0.0181003138422966
2400791846925,1.171961784362793,-9.694122314453125,1.4041993618011475,0.00931633822619915,0.0162370465695858,-0.01783413253724575
2400793084150,1.2030863761901855,-9.6618013381958,1.3850456476211548,0.0090501569211483,0.0204959437251091,-0.0196974016726017
2400794321325,1.1959037780761719,-9.66539192199707,1.4006080627441406,0.0090501569211483,0.01996358297765255,-0.01889885775744915
2400795558550,1.1875240802764893,-9.68574333190918,1.4065935611724854,0.0119781494140625,0.014906140975654125,-0.02262539230287075
2400796795737,1.1803414821624756,-9.702502250671387,1.3515268564224243,0.0071868896484375,0.0157046839594841,-0.0223592109978199
2400798032950,1.2006921768188477,-9.696516990661621,1.4449007511138916,0.013309055007994175,0.015438503585755825,-0.0191650390625
2400799270137,1.192312479019165,-9.66299819946289,1.4101848602294922,0.010381062515079975,0.01650322787463665,-0.02076212503015995
2400800507350,1.1959037780761719,-9.704896926879883,1.3982137441635132,0.00984870083630085,0.01463996060192585,-0.02262539230287075
2400801744550,1.1971008777618408,-9.743204116821289,1.3946224451065063,0.012510511092841625,0.0157046839594841,-0.0215606689453125
2400802981750,1.292868971824646,-9.702502250671387,1.381454348564148,0.0162370465695858,0.01597086526453495,-0.02369011752307415
2400804218962,1.2198457717895508,-9.702502250671387,1.41257905960083,0.0138414166867733,0.015172322280704975,-0.0252872034907341
2400805456150,1.191115379333496,-9.659406661987305,1.3958195447921753,0.015438503585755825,0.01943122036755085,-0.0223592109978199
2400806693362,1.2246341705322266,-9.707290649414062,1.4173674583435059,0.01597086526453495,0.01756795309484005,-0.02422248013317585
2400807930562,1.2342109680175781,-9.683348655700684,1.3958195447921753,0.00984870083630085,0.0191650390625,-0.02661811001598835
2400809167762,1.236605167388916,-9.673771858215332,1.4281413555145264,0.013309055007994175,0.0186326764523983,-0.02661811001598835
2400810404975,1.237802267074585,-9.683348655700684,1.4401123523712158,0.0191650390625,0.01703559048473835,-0.02182685025036335
2400811642175,1.2030863761901855,-9.706093788146973,1.4197616577148438,0.0196974016726017,0.01996358297765255,-0.0228915736079216
2400812879362,1.2294225692749023,-9.696516990661621,1.3694833517074585,0.0167694091796875,0.01889885775744915,-0.0244886614382267
2400814116575,1.2677297592163086,-9.701305389404297,1.37906014919281,0.01836649514734745,0.0228915736079216,-0.02555338479578495
2400815353775,1.2294225692749023,-9.709685325622559,1.358709454536438,0.015438503585755825,0.0167694091796875,-0.02661811001598835
2400816590987,1.215057373046875,-9.713275909423828,1.4269442558288574,0.01783413253724575,0.01836649514734745,-0.02369011752307415
2400817828187,1.2342109680175781,-9.6989107131958,1.3515268564224243,0.0138414166867733,0.02129448764026165,-0.0263519287109375
2400819065387,1.2557587623596191,-9.712079048156738,1.3766659498214722,0.014373779296875,0.02262539230287075,-0.0258195661008358
2400820302587,1.256955862045288,-9.696516990661621,1.3898340463638306,0.01756795309484005,0.0204959437251091,-0.0258195661008358
2400821539812,1.2246341705322266,-9.696516990661621,1.416170358657837,0.0204959437251091,0.014906140975654125,-0.02608574740588665
2400822777000,1.2210428714752197,-9.694122314453125,1.3934253454208374,0.014373779296875,0.0210283063352108,-0.02422248013317585
2400824014200,1.2461819648742676,-9.727641105651855,1.4077906608581543,0.014906140975654125,0.01943122036755085,-0.02608574740588665
2400825251412,1.258152961730957,-9.727641105651855,1.4006080627441406,0.0210283063352108,0.0204959437251091,-0.0263519287109375
2400826488600,1.2210428714752197,-9.6989107131958,1.382651448249817,0.02129448764026165,0.0181003138422966,-0.02182685025036335
2400827725800,1.2330138683319092,-9.724050521850586,1.4101848602294922,0.01943122036755085,0.01836649514734745,-0.0215606689453125
2400828963025,1.2485761642456055,-9.709685325622559,1.4006080627441406,0.02608574740588665,0.02129448764026165,-0.01996358297765255
2400830200200,1.2785037755966187,-9.691728591918945,1.414973258972168,0.02422248013317585,0.02182685025036335,-0.02608574740588665
2400831437412,1.2761094570159912,-9.6989107131958,1.3682862520217896,0.01597086526453495,0.0215606689453125,-0.01756795309484005
2400832674612,1.2485761642456055,-9.730035781860352,1.3946224451065063,0.01996358297765255,0.0186326764523983,-0.02262539230287075
2400833911800,1.2629413604736328,-9.702502250671387,1.4018051624298096,0.0196974016726017,0.02022976242005825,-0.02794901467859745
2400835149012,1.2342109680175781,-9.691728591918945,1.359906554222107,0.01996358297765255,0.01756795309484005,-0.0220930315554142
2400836386212,1.2713210582733154,-9.68933391571045,1.3898340463638306,0.0210283063352108,0.02315775491297245,-0.0196974016726017
2400837623425,1.2653355598449707,-9.690531730651855,1.4065935611724854,0.02022976242005825,0.0204959437251091,-0.02262539230287075
2400838860625,1.2545616626739502,-9.718064308166504,1.4185645580291748,0.0220930315554142,0.0204959437251091,-0.0252872034907341
2400840097812,1.3048399686813354,-9.765949249267578,1.4101848602294922,0.0244886614382267,0.0204959437251091,-0.0247548408806324
2400841335012,1.3012486696243286,-9.7420072555542,1.4006080627441406,0.023956298828125,0.0204959437251091,-0.0215606689453125
2400842572237,1.2808979749679565,-9.728838920593262,1.4041993618011475,0.0210283063352108,0.0167694091796875,-0.02555338479578495
2400843809437,1.2808979749679565,-9.756372451782227,1.4221558570861816,0.02022976242005825,0.01783413253724575,-0.02182685025036335
2400845046650,1.2797008752822876,-9.714473724365234,1.3754688501358032,0.0223592109978199,0.01783413253724575,-0.0196974016726017
2400846283825,1.2689268589019775,-9.75278091430664,1.4006080627441406,0.0223592109978199,0.015438503585755825,-0.0196974016726017
2400847521025,1.2677297592163086,-9.733627319335938,1.380257248878479,0.01889885775744915,0.01889885775744915,-0.02422248013317585
2400848758237,1.3036428689956665,-9.780314445495605,1.4018051624298096,0.01889885775744915,0.015438503585755825,-0.0228915736079216
2400849995437,1.3072341680526733,-9.75517463684082,1.4329297542572021,0.0210283063352108,0.0173017717897892,-0.0223592109978199
2400851232662,1.2653355598449707,-9.738415718078613,1.3874398469924927,0.0223592109978199,0.0186326764523983,-0.0157046839594841
2400852469862,1.2461819648742676,-9.72285270690918,1.4329297542572021,0.02022976242005825,0.01836649514734745,-0.01650322787463665
2400853707075,1.3000515699386597,-9.78869342803955,1.380257248878479,0.01650322787463665,0.01889885775744915,-0.0173017717897892
2400854944250,1.2749123573303223,-9.756372451782227,1.4329297542572021,0.0167694091796875,0.0173017717897892,-0.01756795309484005
2400856181450,1.2976573705673218,-9.756372451782227,1.4233529567718506,0.01703559048473835,0.01756795309484005,-0.0210283063352108
2400857418662,1.2808979749679565,-9.765949249267578,1.434126853942871,0.02076212503015995,0.015438503585755825,-0.01889885775744915
2400858655850,1.256955862045288,-9.72165584564209,1.416170358657837,0.01996358297765255,0.015438503585755825,-0.015172322280704975
2400859893062,1.313219666481018,-9.757569313049316,1.3730746507644653,0.0167694091796875,0.013309055007994175,-0.01597086526453495
2400861130262,1.313219666481018,-9.75278091430664,1.4018051624298096,0.0173017717897892,0.015438503585755825,-0.02262539230287075
2400862367462,1.2665326595306396,-9.7791166305542,1.3970166444778442,0.023956298828125,0.01756795309484005,-0.0138414166867733
2400863604675,1.2713210582733154,-9.75517463684082,1.4173674583435059,0.0215606689453125,0.0119781494140625,-0.00958251953125
2400864841875,1.2844892740249634,-9.797073364257812,1.414973258972168,0.015438503585755825,0.01117960549890995,-0.013042873702943325
2400866079075,1.3239935636520386,-9.738415718078613,1.3934253454208374,0.015172322280704975,0.0167694091796875,-0.013042873702943325
2400867316300,1.3084312677383423,-9.726444244384766,1.4281413555145264,0.0162370465695858,0.010647243820130825,-0.010114881210029125
2400868553475,1.2868834733963013,-9.768342971801758,1.4257471561431885,0.0138414166867733,0.01117960549890995,-0.010381062515079975
2400869790687,1.3204022645950317,-9.736021041870117,1.455674648284912,0.012776692397892475,0.010647243820130825,-0.01410759799182415
2400871027887,1.2868834733963013,-9.7420072555542,1.3970166444778442,0.01783413253724575,0.008783976547420025,-0.01224433071911335
2400872265062,1.2892776727676392,-9.749189376831055,1.4221558570861816,0.0210283063352108,0.012776692397892475,-0.010381062515079975
2400873502287,1.292868971824646,-9.773131370544434,1.416170358657837,0.01836649514734745,0.013042873702943325,-0.0077192517928779125
2400874739487,1.294066071510315,-9.771934509277344,1.456871747970581,0.014373779296875,0.010647243820130825,-0.0037265352439135313
2400875976687,1.2880805730819702,-9.739612579345703,1.3982137441635132,0.01463996060192585,0.01117960549890995,-0.005855984054505825
2400877213887,1.2713210582733154,-9.726444244384766,1.3898340463638306,0.01410759799182415,0.010913425125181675,-0.007985432632267475
2400878451112,1.314416766166687,-9.764751434326172,1.3874398469924927,0.01463996060192585,0.008517795242369175,-0.0037265352439135313
2400879688300,1.291671872138977,-9.77672290802002,1.4030022621154785,0.014906140975654125,0.0119781494140625,-0.0037265352439135313
2400880925500,1.3108254671096802,-9.762357711791992,1.4245500564575195,0.0119781494140625,0.01117960549890995,-0.003460354171693325
2400882162700,1.3036428689956665,-9.770737648010254,1.4245500564575195,0.014906140975654125,0.0138414166867733,-0.0042588976211845875
2400883399900,1.3263877630233765,-9.75517463684082,1.4389152526855469,0.010913425125181675,0.008517795242369175,-0.0026618109550327063
2400884637125,1.256955862045288,-9.715670585632324,1.4089877605438232,0.0119781494140625,0.00958251953125,-0.0090501569211483
2400885874300,1.2665326595306396,-9.750386238098145,1.3862427473068237,0.0138414166867733,0.0077192517928779125,-0.0010647244052961469
2400887111512,1.294066071510315,-9.769539833068848,1.4089877605438232,0.0173017717897892,0.00931633822619915,0.005057440605014563
2400888348712,1.3192051649093628,-9.759963035583496,1.4006080627441406,0.014373779296875,0.01357523538172245,-0.0015970865497365594
2400889585912,1.3108254671096802,-9.732430458068848,1.4077906608581543,0.01410759799182415,0.005057440605014563,-0.0042588976211845875
2400890823125,1.334767460823059,-9.767146110534668,1.3682862520217896,0.012776692397892475,0.008783976547420025,-0.0023956298828125
2400892060325,1.3084312677383423,-9.77672290802002,1.414973258972168,0.00452507846057415,0.0066545275039970875,0.0015970865497365594
2400893297525,1.3048399686813354,-9.75517463684082,1.4173674583435059,0.010913425125181675,0.00692070834338665,0.005057440605014563
2400894534737,1.3120225667953491,-9.737218856811523,1.4305355548858643,0.010647243820130825,0.0063883461989462376,-0.0010647244052961469
2400895771925,1.2797008752822876,-9.77791976928711,1.4053964614868164,0.008517795242369175,-0.0007985432748682797,0.003460354171693325
2400897009137,1.3024457693099976,-9.780314445495605,1.4269442558288574,0.0071868896484375,0.0002661811013240367,0.0018632676219567657
2400898246350,1.3108254671096802,-9.780314445495605,1.4664485454559326,-0.0010647244052961469,0.00452507846057415,-0.0013309054775163531
2400899483537,1.291671872138977,-9.803058624267578,1.4652514457702637,0.004791259765625,0.0007985432748682797,0.0031941730994731188
2400900720750,1.291671872138977,-9.77672290802002,1.4484920501708984,0.01357523538172245,0.0029279920272529125,0.005057440605014563
2400901957950,1.2701239585876465,-9.771934509277344,1.4532804489135742,0.01171196810901165,-0.0013309054775163531,0.0037265352439135313
2400903195150,1.3036428689956665,-9.791088104248047,1.4616601467132568,0.007453070487827063,0.0029279920272529125,0.006122165359556675
2400904432350,1.334767460823059,-9.78869342803955,1.4496891498565674,0.008517795242369175,0.0,0.0071868896484375
2400905669550,1.2976573705673218,-9.767146110534668,1.4425065517425537,0.0077192517928779125,0.0029279920272529125,0.0029279920272529125
2400906906750,1.292868971824646,-9.771934509277344,1.459265947341919,0.0071868896484375,0.0021294488105922937,0.005589802749454975
2400908143975,1.313219666481018,-9.747992515563965,1.4329297542572021,0.005855984054505825,-0.0023956298828125,0.0066545275039970875
2400909381150,1.3108254671096802,-9.726444244384766,1.4772224426269531,0.003460354171693325,0.0037265352439135313,0.005589802749454975
2400910618375,1.3180080652236938,-9.81263542175293,1.4018051624298096,0.00452507846057415,0.0005323622026480734,0.01224433071911335
2400911855587,1.3084312677383423,-9.761160850524902,1.3934253454208374,0.0053236219100654125,-0.0010647244052961469,0.01224433071911335
2400913092762,1.3060370683670044,-9.78869342803955,1.4221558570861816,0.005855984054505825,0.0023956298828125,0.01224433071911335
2400914329975,1.3048399686813354,-9.780314445495605,1.4257471561431885,0.0077192517928779125,-0.0023956298828125,0.0090501569211483
2400915567187,1.2964602708816528,-9.734824180603027,1.4425065517425537,0.0039927163161337376,-0.0031941730994731188,0.0071868896484375
2400916804362,1.3096283674240112,-9.750386238098145,1.4293384552001953,0.003460354171693325,0.0015970865497365594,0.010647243820130825
2400918041575,1.260547161102295,-9.768342971801758,1.4772224426269531,0.0037265352439135313,-0.0002661811013240367,0.008783976547420025
2400919278787,1.2785037755966187,-9.744400978088379,1.4101848602294922,0.0018632676219567657,-0.0010647244052961469,0.007985432632267475
2400920515987,1.2988544702529907,-9.768342971801758,1.4245500564575195,0.008783976547420025,-0.0042588976211845875,0.01410759799182415
2400921753187,1.3227964639663696,-9.768342971801758,1.434126853942871,0.0039927163161337376,-0.0053236219100654125,0.010647243820130825
2400922990375,1.3024457693099976,-9.7791166305542,1.4760253429412842,0.0013309054775163531,-0.0015970865497365594,0.01171196810901165
2400924227612,1.258152961730957,-9.713275909423828,1.4532804489135742,0.0021294488105922937,-0.0010647244052961469,0.006122165359556675
2400925464812,1.260547161102295,-9.756372451782227,1.4197616577148438,0.0037265352439135313,-0.0018632676219567657,0.01117960549890995
2400926702012,1.2988544702529907,-9.72285270690918,1.4221558570861816,-0.0013309054775163531,-0.0018632676219567657,0.01463996060192585
2400927939187,1.3275848627090454,-9.736021041870117,1.4053964614868164,-0.0026618109550327063,-0.0026618109550327063,0.01224433071911335
2400929176412,1.2713210582733154,-9.737218856811523,1.4508862495422363,0.0071868896484375,-0.003460354171693325,0.014373779296875
2400930413612,1.313219666481018,-9.726444244384766,1.416170358657837,0.0023956298828125,-0.0018632676219567657,0.014373779296875
2400931650825,1.290474772453308,-9.757569313049316,1.4197616577148438,0.0037265352439135313,-0.00452507846057415,0.015172322280704975
2400932888025,1.2689268589019775,-9.743204116821289,1.4305355548858643,0.0042588976211845875,-0.005057440605014563,0.01703559048473835
2400934125225,1.2832921743392944,-9.759963035583496,1.4209587574005127,0.0002661811013240367,-0.00452507846057415,0.0157046839594841
2400935362412,1.3012486696243286,-9.737218856811523,1.4628572463989258,-0.0013309054775163531,-0.0015970865497365594,0.015438503585755825
2400936599612,1.3036428689956665,-9.739612579345703,1.4305355548858643,0.0010647244052961469,-0.0039927163161337376,0.013309055007994175
2400937836812,1.2988544702529907,-9.771934509277344,1.3934253454208374,-0.0007985432748682797,-0.005057440605014563,0.014906140975654125
2400939074025,1.292868971824646,-9.707290649414062,1.4281413555145264,-0.0021294488105922937,-0.007985432632267475,0.014906140975654125
2400940311225,1.3108254671096802,-9.759963035583496,1.4520833492279053,-0.004791259765625,-0.0010647244052961469,0.0119781494140625
2400941548437,1.3000515699386597,-9.77791976928711,1.416170358657837,-0.0015970865497365594,-0.008517795242369175,0.015438503585755825
2400942785637,1.2737152576446533,-9.800664901733398,1.4437036514282227,0.0018632676219567657,-0.0063883461989462376,0.02315775491297245
2400944022825,1.314416766166687,-9.736021041870117,1.4496891498565674,0.0013309054775163531,-0.004791259765625,0.01889885775744915
2400945260037,1.2725181579589844,-9.737218856811523,1.4305355548858643,0.0018632676219567657,-0.003460354171693325,0.0167694091796875
2400946497250,1.314416766166687,-9.738415718078613,1.4532804489135742,0.0018632676219567657,-0.008251613937318325,0.01756795309484005
2400947734437,1.2785037755966187,-9.756372451782227,1.436521053314209,0.005057440605014563,-0.007453070487827063,0.01889885775744915
2400948971650,1.3048399686813354,-9.739612579345703,1.4293384552001953,0.0013309054775163531,-0.007453070487827063,0.014906140975654125
2400950208850,1.2976573705673218,-9.763554573059082,1.4532804489135742,-0.0010647244052961469,-0.0042588976211845875,0.0162370465695858
2400951446050,1.2880805730819702,-9.75278091430664,1.4077906608581543,-0.0007985432748682797,-0.005057440605014563,0.0244886614382267
2400952683250,1.3215993642807007,-9.744400978088379,1.4425065517425537,0.003460354171693325,-0.0021294488105922937,0.01836649514734745
2400953920462,1.3084312677383423,-9.732430458068848,1.4951789379119873,0.0005323622026480734,-0.0063883461989462376,0.015438503585755825
2400955157662,1.2797008752822876,-9.71926212310791,1.4077906608581543,-0.0005323622026480734,-0.0071868896484375,0.0220930315554142
2400956394862,1.2641384601593018,-9.734824180603027,1.43532395362854,-0.0010647244052961469,-0.0071868896484375,0.01996358297765255
2400957632062,1.2629413604736328,-9.724050521850586,1.4413094520568848,0.0007985432748682797,-0.008517795242369175,0.01756795309484005
2400958869275,1.259350061416626,-9.743204116821289,1.4712369441986084,-0.0023956298828125,-0.008251613937318325,0.014373779296875
2400960106475,1.3012486696243286,-9.730035781860352,1.4425065517425537,-0.0005323622026480734,-0.0053236219100654125,0.01756795309484005
2400961343687,1.2820950746536255,-9.747992515563965,1.4185645580291748,-0.0066545275039970875,-0.007453070487827063,0.0191650390625
2400962580875,1.2509703636169434,-9.756372451782227,1.4185645580291748,-0.006122165359556675,-0.0063883461989462376,0.01783413253724575
2400963818087,1.2473790645599365,-9.75278091430664,1.4413094520568848,0.0013309054775163531,-0.0066545275039970875,0.0223592109978199
2400965055287,1.2797008752822876,-9.773131370544434,1.4113819599151611,-0.0018632676219567657,-0.00984870083630085,0.02022976242005825
2400966292487,1.3204022645950317,-9.750386238098145,1.4281413555145264,-0.0066545275039970875,-0.008783976547420025,0.01597086526453495
2400967529700,1.2485761642456055,-9.750386238098145,1.4652514457702637,0.0015970865497365594,-0.0090501569211483,0.01703559048473835
2400968766887,1.2437877655029297,-9.75158405303955,1.4688427448272705,0.0015970865497365594,-0.010913425125181675,0.0220930315554142
2400970004100,1.2701239585876465,-9.734824180603027,1.4113819599151611,-0.0018632676219567657,-0.008783976547420025,0.01943122036755085
2400971241287,1.2797008752822876,-9.710882186889648,1.4293384552001953,-0.0018632676219567657,-0.010114881210029125,0.01943122036755085
2400972478500,1.2665326595306396,-9.769539833068848,1.4293384552001953,-0.0021294488105922937,-0.0042588976211845875,0.01597086526453495
2400973715712,1.2749123573303223,-9.731232643127441,1.414973258972168,-0.0023956298828125,-0.006122165359556675,0.015172322280704975
2400974952912,1.258152961730957,-9.72165584564209,1.436521053314209,0.0021294488105922937,-0.00984870083630085,0.01597086526453495
2400976190112,1.2808979749679565,-9.733627319335938,1.3994109630584717,-0.0026618109550327063,-0.007985432632267475,0.01996358297765255
2400977427325,1.2868834733963013,-9.702502250671387,1.3994109630584717,-0.0013309054775163531,-0.0077192517928779125,0.0223592109978199
2400978664525,1.2437877655029297,-9.725247383117676,1.4185645580291748,0.0005323622026480734,-0.008783976547420025,0.023956298828125
2400979901725,1.3060370683670044,-9.68694019317627,1.4532804489135742,-0.0031941730994731188,-0.008517795242369175,0.02262539230287075
2400981138912,1.2808979749679565,-9.744400978088379,1.4532804489135742,-0.0002661811013240367,-0.005589802749454975,0.0215606689453125
2400982376125,1.2665326595306396,-9.738415718078613,1.4449007511138916,0.003460354171693325,-0.008517795242369175,0.0162370465695858
2400983613325,1.292868971824646,-9.747992515563965,1.4413094520568848,0.0010647244052961469,-0.007453070487827063,0.0167694091796875
2400984850512,1.2737152576446533,-9.750386238098145,1.437718152999878,0.0013309054775163531,-0.00692070834338665,0.0204959437251091
2400986087750,1.2545616626739502,-9.745597839355469,1.4700398445129395,-0.0031941730994731188,-0.0090501569211483,0.0258195661008358
2400987324937,1.2485761642456055,-9.734824180603027,1.4616601467132568,-0.0023956298828125,-0.010114881210029125,0.01943122036755085
2400988562137,1.2449848651885986,-9.720458984375,1.4173674583435059,-0.0039927163161337376,-0.005057440605014563,0.01943122036755085
2400989799337,1.2186486721038818,-9.718064308166504,1.478419542312622,-0.0005323622026480734,-0.008783976547420025,0.01783413253724575
2400991036550,1.2258312702178955,-9.72285270690918,1.4640543460845947,-0.0002661811013240367,-0.01171196810901165,0.015172322280704975
2400992273762,1.2497732639312744,-9.6989107131958,1.4041993618011475,-0.0039927163161337376,-0.0114457868039608,0.01703559048473835
2400993510950,1.2689268589019775,-9.7420072555542,1.3898340463638306,-0.0005323622026480734,-0.010647243820130825,0.01943122036755085
2400994748150,1.294066071510315,-9.759963035583496,1.4676456451416016,0.0005323622026480734,-0.008251613937318325,0.01836649514734745
2400995985350,1.235408067703247,-9.759963035583496,1.4460978507995605,-0.0031941730994731188,-0.0066545275039970875,0.0167694091796875
2400997222562,1.217451572418213,-9.743204116821289,1.4305355548858643,-0.0039927163161337376,-0.007453070487827063,0.0223592109978199
2400998459762,1.2413935661315918,-9.732430458068848,1.3694833517074585,-0.005589802749454975,-0.0071868896484375,0.01650322787463665
2400999696962,1.235408067703247,-9.774328231811523,1.4113819599151611,-0.0029279920272529125,-0.00692070834338665,0.01703559048473835
2401000934162,1.2820950746536255,-9.768342971801758,1.4616601467132568,-0.0023956298828125,-0.010381062515079975,0.02076212503015995
2401002171375,1.2976573705673218,-9.764751434326172,1.4305355548858643,-0.005589802749454975,-0.0077192517928779125,0.0191650390625
2401003408587,1.2797008752822876,-9.7791166305542,1.434126853942871,-0.0042588976211845875,-0.003460354171693325,0.01783413253724575
2401004645775,1.2653355598449707,-9.759963035583496,1.4437036514282227,-0.0026618109550327063,-0.0053236219100654125,0.01783413253724575
2401005882975,1.259350061416626,-9.767146110534668,1.4245500564575195,-0.00958251953125,-0.006122165359556675,0.01889885775744915
2401007120200,1.2437877655029297,-9.709685325622559,1.4472949504852295,-0.006122165359556675,-0.01171196810901165,0.015438503585755825
2401008357387,1.212663173675537,-9.734824180603027,1.479616641998291,-0.0005323622026480734,-0.00958251953125,0.01463996060192585
2401009594600,1.2246341705322266,-9.761160850524902,1.4257471561431885,-0.005855984054505825,-0.005855984054505825,0.01783413253724575
2401010831800,1.2437877655029297,-9.746795654296875,1.4257471561431885,-0.005855984054505825,-0.0077192517928779125,0.01650322787463665
2401012068987,1.2485761642456055,-9.731232643127441,1.41257905960083,-0.007985432632267475,-0.0021294488105922937,0.0215606689453125
2401013306200,1.2270283699035645,-9.718064308166504,1.456871747970581,-0.0063883461989462376,-0.0029279920272529125,0.01650322787463665
2401014543400,1.2497732639312744,-9.734824180603027,1.4544775485992432,-0.005855984054505825,-0.0042588976211845875,0.01756795309484005
2401015780587,1.217451572418213,-9.769539833068848,1.4676456451416016,-0.0071868896484375,-0.0066545275039970875,0.0186326764523983
2401017017800,1.2102689743041992,-9.72285270690918,1.4472949504852295,-0.006122165359556675,-0.00931633822619915,0.01756795309484005
2401018255012,1.2401964664459229,-9.696516990661621,1.48081374168396,-0.0037265352439135313,-0.007453070487827063,0.0173017717897892
2401019492200,1.2653355598449707,-9.75517463684082,1.4173674583435059,-0.007453070487827063,-0.007985432632267475,0.0173017717897892
2401020729400,1.2533645629882812,-9.75158405303955,1.4173674583435059,-0.010913425125181675,-0.008517795242369175,0.0173017717897892
2401021966625,1.2282254695892334,-9.718064308166504,1.4460978507995605,-0.0066545275039970875,-0.007985432632267475,0.013309055007994175
2401023203812,1.2342109680175781,-9.75517463684082,1.3958195447921753,-0.0031941730994731188,-0.0066545275039970875,0.01756795309484005
2401024441025,1.2761094570159912,-9.730035781860352,1.4413094520568848,-0.007453070487827063,-0.007985432632267475,0.0204959437251091
2401025678225,1.2497732639312744,-9.744400978088379,1.459265947341919,-0.0119781494140625,-0.0090501569211483,0.01410759799182415
2401026915425,1.2413935661315918,-9.771934509277344,1.4664485454559326,-0.0029279920272529125,-0.007985432632267475,0.01996358297765255
2401028152637,1.213860273361206,-9.759963035583496,1.382651448249817,-0.007453070487827063,-0.0039927163161337376,0.0223592109978199
2401029389850,1.2294225692749023,-9.75278091430664,1.4077906608581543,-0.0138414166867733,-0.005057440605014563,0.01756795309484005
2401030627025,1.2234370708465576,-9.757569313049316,1.436521053314209,-0.0114457868039608,-0.0071868896484375,0.013309055007994175
2401031864237,1.2186486721038818,-9.743204116821289,1.3982137441635132,-0.008251613937318325,-0.0002661811013240367,0.01597086526453495
2401033101450,1.2485761642456055,-9.785102844238281,1.416170358657837,-0.004791259765625,-0.0013309054775163531,0.01117960549890995
2401034338650,1.2437877655029297,-9.758766174316406,1.4113819599151611,-0.010381062515079975,-0.0026618109550327063,0.015172322280704975
2401035575850,1.2222399711608887,-9.75397777557373,1.41257905960083,-0.013042873702943325,-0.0029279920272529125,0.01703559048473835
2401036813050,1.2330138683319092,-9.739612579345703,1.4245500564575195,-0.010913425125181675,-0.0010647244052961469,0.015438503585755825
2401038050250,1.2282254695892334,-9.747992515563965,1.4317326545715332,-0.00984870083630085,-0.0005323622026480734,0.013042873702943325
2401039287462,1.2198457717895508,-9.703699111938477,1.4113819599151611,-0.01171196810901165,-0.0031941730994731188,0.02022976242005825
2401040524650,1.2318167686462402,-9.744400978088379,1.4173674583435059,-0.0063883461989462376,-0.0031941730994731188,0.0173017717897892
2401041761862,1.2306196689605713,-9.715670585632324,1.4101848602294922,-0.010114881210029125,-0.003460354171693325,0.01463996060192585
2401042999062,1.2401964664459229,-9.736021041870117,1.4437036514282227,-0.012510511092841625,0.0005323622026480734,0.02022976242005825
2401044236275,1.1779472827911377,-9.768342971801758,1.459265947341919,-0.01171196810901165,-0.003460354171693325,0.02129448764026165
2401045473475,1.2270283699035645,-9.730035781860352,1.4664485454559326,-0.01756795309484005,-0.0042588976211845875,0.0157046839594841
2401046710675,1.2425906658172607,-9.732430458068848,1.413776159286499,-0.0114457868039608,0.0005323622026480734,0.01996358297765255
2401047947887,1.2270283699035645,-9.740809440612793,1.3934253454208374,-0.010647243820130825,-0.0023956298828125,0.0204959437251091
2401049185075,1.2629413604736328,-9.728838920593262,1.4401123523712158,-0.00692070834338665,-0.0015970865497365594,0.015438503585755825
2401050422287,1.2509703636169434,-9.718064308166504,1.434126853942871,-0.008783976547420025,-0.005855984054505825,0.01650322787463665
2401051659475,1.259350061416626,-9.720458984375,1.4077906608581543,-0.012776692397892475,0.0021294488105922937,0.01463996060192585
2401052896675,1.235408067703247,-9.762357711791992,1.414973258972168,-0.01463996060192585,0.003460354171693325,0.0162370465695858
2401054133887,1.235408067703247,-9.732430458068848,1.4173674583435059,-0.00984870083630085,-0.0005323622026480734,0.0191650390625
2401055371112,1.1683704853057861,-9.75278091430664,1.4413094520568848,-0.0114457868039608,-0.0015970865497365594,0.02022976242005825
2401056608300,1.2473790645599365,-9.739612579345703,1.3994109630584717,-0.01650322787463665,0.0018632676219567657,0.01703559048473835
2401057845500,1.2198457717895508,-9.726444244384766,1.4185645580291748,-0.01410759799182415,0.0002661811013240367,0.0181003138422966
2401059082700,1.2473790645599365,-9.770737648010254,1.4305355548858643,-0.01224433071911335,0.0015970865497365594,0.0162370465695858
2401060319912,1.1803414821624756,-9.733627319335938,1.3922282457351685,-0.010114881210029125,0.0021294488105922937,0.01597086526453495
2401061557100,1.2473790645599365,-9.740809440612793,1.3491326570510864,-0.01224433071911335,0.0013309054775163531,0.013309055007994175
2401062794312,1.212663173675537,-9.732430458068848,1.4257471561431885,-0.01756795309484005,0.0015970865497365594,0.01597086526453495
2401064031525,1.2677297592163086,-9.71926212310791,1.4496891498565674,-0.013042873702943325,0.0029279920272529125,0.02076212503015995
2401065268725,1.235408067703247,-9.739612579345703,1.4053964614868164,-0.01650322787463665,0.0037265352439135313,0.01650322787463665
2401066505937,1.2497732639312744,-9.767146110534668,1.4449007511138916,-0.0114457868039608,-0.0005323622026480734,0.015438503585755825
2401067743112,1.2198457717895508,-9.740809440612793,1.4209587574005127,-0.010381062515079975,0.0023956298828125,0.0167694091796875
2401068980337,1.256955862045288,-9.737218856811523,1.3886369466781616,-0.0186326764523983,0.0010647244052961469,0.01650322787463665
2401070217537,1.2114660739898682,-9.726444244384766,1.4233529567718506,-0.0114457868039608,0.0031941730994731188,0.015172322280704975
2401071454737,1.171961784362793,-9.732430458068848,1.414973258972168,-0.01171196810901165,0.0013309054775163531,0.015172322280704975
2401072691937,1.237802267074585,-9.731232643127441,1.4209587574005127,-0.015172322280704975,0.004791259765625,0.014906140975654125
2401073929150,1.2018892765045166,-9.731232643127441,1.4401123523712158,-0.0173017717897892,0.003460354171693325,0.014373779296875
2401075166337,1.2234370708465576,-9.728838920593262,1.4197616577148438,-0.015438503585755825,0.0,0.0196974016726017
2401076403537,1.1839327812194824,-9.756372451782227,1.3850456476211548,-0.01463996060192585,0.0002661811013240367,0.0186326764523983
2401077640750,1.2461819648742676,-9.758766174316406,1.4472949504852295,-0.014906140975654125,0.0023956298828125,0.0181003138422966
2401078877962,1.2222399711608887,-9.72285270690918,1.4712369441986084,-0.0162370465695858,0.006122165359556675,0.0220930315554142
2401080115125,1.215057373046875,-9.747992515563965,1.4077906608581543,-0.0181003138422966,0.0031941730994731188,0.0181003138422966
2401081352362,1.2222399711608887,-9.75158405303955,1.3994109630584717,-0.0157046839594841,0.0015970865497365594,0.0162370465695858
2401082589575,1.217451572418213,-9.733627319335938,1.3874398469924927,-0.0162370465695858,0.008783976547420025,0.01224433071911335
2401083826762,1.2102689743041992,-9.747992515563965,1.43532395362854,-0.0173017717897892,0.0007985432748682797,0.01836649514734745
2401085063962,1.2258312702178955,-9.758766174316406,1.4053964614868164,-0.01836649514734745,0.005589802749454975,0.02129448764026165
2401086301162,1.2641384601593018,-9.737218856811523,1.413776159286499,-0.0173017717897892,0.008251613937318325,0.0223592109978199
2401087538375,1.2557587623596191,-9.709685325622559,1.4245500564575195,-0.0162370465695858,0.006122165359556675,0.0204959437251091
2401088775575,1.2725181579589844,-9.715670585632324,1.37906014919281,-0.0204959437251091,0.008783976547420025,0.0204959437251091
2401090012787,1.2066776752471924,-9.706093788146973,1.4401123523712158,-0.02129448764026165,0.01463996060192585,0.015438503585755825
2401091250000,1.2497732639312744,-9.6989107131958,1.4101848602294922,-0.0196974016726017,0.0053236219100654125,0.0181003138422966
2401092487187,1.2198457717895508,-9.700108528137207,1.4077906608581543,-0.0204959437251091,0.008517795242369175,0.01943122036755085
2401093724387,1.2773066759109497,-9.714473724365234,1.3970166444778442,-0.0173017717897892,0.005589802749454975,0.0167694091796875
2401094961587,1.2449848651885986,-9.692925453186035,1.4006080627441406,-0.01703559048473835,0.0018632676219567657,0.01943122036755085
2401096198800,1.191115379333496,-9.684545516967773,1.3730746507644653,-0.014906140975654125,0.005057440605014563,0.0191650390625
2401097436000,1.2318167686462402,-9.750386238098145,1.4281413555145264,-0.0162370465695858,0.01117960549890995,0.0167694091796875
2401098673200,1.2222399711608887,-9.720458984375,1.4101848602294922,-0.01224433071911335,0.010647243820130825,0.01650322787463665
2401099910412,1.2485761642456055,-9.730035781860352,1.4053964614868164,-0.01463996060192585,0.004791259765625,0.01703559048473835
2401101147612,1.2186486721038818,-9.744400978088379,1.4197616577148438,-0.0162370465695858,0.0021294488105922937,0.02076212503015995
2401102384800,1.2318167686462402,-9.714473724365234,1.4030022621154785,-0.0173017717897892,0.0063883461989462376,0.0167694091796875
2401103622025,1.2234370708465576,-9.714473724365234,1.4197616577148438,-0.01756795309484005,0.0053236219100654125,0.0186326764523983
2401104859225,1.2521674633026123,-9.733627319335938,1.4317326545715332,-0.0162370465695858,0.005057440605014563,0.0196974016726017
2401106096412,1.2521674633026123,-9.738415718078613,1.41257905960083,-0.01410759799182415,0.0066545275039970875,0.02076212503015995
2401107333637,1.2270283699035645,-9.708487510681152,1.4113819599151611,-0.0157046839594841,0.005589802749454975,0.01943122036755085
2401108570825,1.217451572418213,-9.75158405303955,1.4041993618011475,-0.0138414166867733,0.006122165359556675,0.01756795309484005
2401109808025,1.2006921768188477,-9.716867446899414,1.381454348564148,-0.013309055007994175,0.006122165359556675,0.015438503585755825
2401111045250,1.259350061416626,-9.704896926879883,1.4317326545715332,-0.013042873702943325,0.0066545275039970875,0.01836649514734745
2401112282450,1.1767501831054688,-9.690531730651855,1.3742717504501343,-0.014373779296875,0.0053236219100654125,0.0228915736079216
2401113519650,1.216254472732544,-9.702502250671387,1.3946224451065063,-0.0181003138422966,0.0071868896484375,0.01996358297765255
2401114756862,1.2413935661315918,-9.71926212310791,1.43532395362854,-0.0173017717897892,0.00452507846057415,0.01996358297765255
2401115994075,1.236605167388916,-9.714473724365234,1.4185645580291748,-0.0114457868039608,0.008783976547420025,0.0234239362180233
2401117231262,1.2629413604736328,-9.68694019317627,1.4305355548858643,-0.0173017717897892,0.0066545275039970875,0.0191650390625
2401118468462,1.2521674633026123,-9.733627319335938,1.41257905960083,-0.0204959437251091,0.012776692397892475,0.014906140975654125
2401119705650,1.2533645629882812,-9.712079048156738,1.4317326545715332,-0.0119781494140625,0.0114457868039608,0.0191650390625
2401120942862,1.238999366760254,-9.730035781860352,1.4425065517425537,-0.007453070487827063,0.0066545275039970875,0.02022976242005825
2401122180075,1.2844892740249634,-9.714473724365234,1.4209587574005127,-0.01224433071911335,0.0053236219100654125,0.01463996060192585
2401123417287,1.2318167686462402,-9.720458984375,1.4305355548858643,-0.0191650390625,0.0077192517928779125,0.0186326764523983
2401124654475,1.2413935661315918,-9.692925453186035,1.4101848602294922,-0.0191650390625,0.0066545275039970875,0.0196974016726017
2401125891675,1.2342109680175781,-9.680954933166504,1.3742717504501343,-0.013309055007994175,0.0063883461989462376,0.023956298828125
2401127128887,1.215057373046875,-9.72285270690918,1.3838485479354858,-0.013309055007994175,0.007985432632267475,0.02076212503015995
2401128366100,1.2749123573303223,-9.672574996948242,1.4245500564575195,-0.010381062515079975,0.0077192517928779125,0.0204959437251091
2401129603287,1.2294225692749023,-9.707290649414062,1.436521053314209,-0.013042873702943325,0.01703559048473835,0.01756795309484005
2401130840500,1.2497732639312744,-9.679757118225098,1.3898340463638306,-0.010647243820130825,0.012776692397892475,0.02076212503015995
2401132077700,1.2749123573303223,-9.643844604492188,1.3934253454208374,-0.008517795242369175,0.0063883461989462376,0.0191650390625
2401133314887,1.2210428714752197,-9.691728591918945,1.4209587574005127,-0.0119781494140625,0.005589802749454975,0.01996358297765255
2401134552100,1.2186486721038818,-9.68574333190918,1.3934253454208374,-0.01889885775744915,0.01171196810901165,0.01597086526453495
2401135789300,1.2222399711608887,-9.709685325622559,1.4185645580291748,-0.01357523538172245,0.0063883461989462376,0.01836649514734745
2401137026512,1.2461819648742676,-9.682151794433594,1.4006080627441406,-0.010381062515079975,0.0039927163161337376,0.02262539230287075
2401138263725,1.2318167686462402,-9.6989107131958,1.3922282457351685,-0.010114881210029125,0.0077192517928779125,0.02022976242005825
2401139500900,1.2090718746185303,-9.657012939453125,1.4425065517425537,-0.005589802749454975,0.010114881210029125,0.01836649514734745
2401140738112,1.2342109680175781,-9.68813705444336,1.4401123523712158,-0.0138414166867733,0.010647243820130825,0.0173017717897892
2401141975325,1.2198457717895508,-9.712079048156738,1.4113819599151611,-0.00958251953125,0.00452507846057415,0.01463996060192585
2401143212537,1.2018892765045166,-9.72285270690918,1.436521053314209,-0.0090501569211483,0.0007985432748682797,0.02262539230287075
2401144449737,1.2521674633026123,-9.713275909423828,1.3898340463638306,-0.010647243820130825,0.0053236219100654125,0.02076212503015995
2401145686937,1.2210428714752197,-9.730035781860352,1.4041993618011475,-0.008251613937318325,0.008517795242369175,0.02182685025036335
2401146924137,1.2509703636169434,-9.684545516967773,1.4460978507995605,-0.0090501569211483,0.007985432632267475,0.01463996060192585
2401148161362,1.2090718746185303,-9.692925453186035,1.3982137441635132,-0.004791259765625,0.010381062515079975,0.01756795309484005
2401149398525,1.2198457717895508,-9.744400978088379,1.4233529567718506,-0.0037265352439135313,0.0119781494140625,0.0157046839594841
2401150635750,1.2270283699035645,-9.72165584564209,1.4077906608581543,-0.0031941730994731188,0.010381062515079975,0.01703559048473835
2401151872937,1.2533645629882812,-9.707290649414062,1.4293384552001953,-0.005589802749454975,0.006122165359556675,0.0210283063352108
2401153110150,1.238999366760254,-9.728838920593262,1.436521053314209,-0.010114881210029125,0.008783976547420025,0.0181003138422966
2401154347362,1.2114660739898682,-9.692925453186035,1.4221558570861816,-0.00692070834338665,0.008517795242369175,0.02022976242005825
2401155584562,1.215057373046875,-9.7420072555542,1.4401123523712158,-0.00452507846057415,0.0023956298828125,0.01836649514734745
2401156821750,1.2270283699035645,-9.72165584564209,1.43532395362854,-0.0066545275039970875,0.0042588976211845875,0.01943122036755085
2401158058962,1.2461819648742676,-9.728838920593262,1.4041993618011475,-0.0042588976211845875,0.008517795242369175,0.01889885775744915
2401159296162,1.256955862045288,-9.68574333190918,1.436521053314209,-0.0013309054775163531,0.005589802749454975,0.0215606689453125
2401160533362,1.2785037755966187,-9.709685325622559,1.3958195447921753,-0.0077192517928779125,0.00452507846057415,0.02315775491297245
2401161770562,1.2485761642456055,-9.703699111938477,1.4760253429412842,-0.005589802749454975,0.008517795242369175,0.0210283063352108
2401163007775,1.2006921768188477,-9.696516990661621,1.436521053314209,-0.0053236219100654125,0.0090501569211483,0.01650322787463665
2401164244975,1.2425906658172607,-9.709685325622559,1.4472949504852295,-0.0037265352439135313,0.005855984054505825,0.01889885775744915
2401165482187,1.2090718746185303,-9.726444244384766,1.3551181554794312,-0.0053236219100654125,0.0066545275039970875,0.0181003138422966
2401166719387,1.235408067703247,-9.720458984375,1.3958195447921753,-0.0013309054775163531,0.0031941730994731188,0.012776692397892475
2401167956575,1.2342109680175781,-9.72285270690918,1.3946224451065063,0.0005323622026480734,0.0077192517928779125,0.015172322280704975
2401169193800,1.2473790645599365,-9.718064308166504,1.416170358657837,-0.0039927163161337376,0.00692070834338665,0.0186326764523983
2401170431000,1.2306196689605713,-9.716867446899414,1.4221558570861816,-0.0066545275039970875,0.00452507846057415,0.013309055007994175
2401171668200,1.258152961730957,-9.68574333190918,1.3694833517074585,-0.004791259765625,0.0066545275039970875,0.0167694091796875
2401172905400,1.2294225692749023,-9.7420072555542,1.4281413555145264,-0.0002661811013240367,0.0029279920272529125,0.01943122036755085
2401174142587,1.238999366760254,-9.709685325622559,1.3539210557937622,-0.0042588976211845875,0.006122165359556675,0.02129448764026165
2401175379812,1.2066776752471924,-9.740809440612793,1.4305355548858643,-0.0090501569211483,0.00958251953125,0.014373779296875
2401176617012,1.2449848651885986,-9.746795654296875,1.4257471561431885,-0.0037265352439135313,0.0042588976211845875,0.015438503585755825
2401177854200,1.2090718746185303,-9.714473724365234,1.4030022621154785,-0.0037265352439135313,0.0039927163161337376,0.014906140975654125
2401179091412,1.2413935661315918,-9.713275909423828,1.3970166444778442,-0.0031941730994731188,0.0007985432748682797,0.0138414166867733
2401180328612,1.2461819648742676,-9.712079048156738,1.416170358657837,0.0002661811013240367,0.0018632676219567657,0.01357523538172245
2401181565812,1.216254472732544,-9.695320129394531,1.4101848602294922,-0.003460354171693325,0.0053236219100654125,0.01410759799182415
2401182803025,1.2629413604736328,-9.68694019317627,1.4305355548858643,0.0005323622026480734,0.00984870083630085,0.0181003138422966
2401184040225,1.2557587623596191,-9.703699111938477,1.3946224451065063,-0.0005323622026480734,0.0042588976211845875,0.0173017717897892
2401185277425,1.2629413604736328,-9.72165584564209,1.4101848602294922,-0.003460354171693325,0.006122165359556675,0.01650322787463665
2401186514625,1.2749123573303223,-9.734824180603027,1.414973258972168,-0.0063883461989462376,0.00692070834338665,0.01703559048473835
2401187751812,1.2018892765045166,-9.677363395690918,1.436521053314209,-0.0031941730994731188,0.004791259765625,0.01756795309484005
2401188989037,1.2198457717895508,-9.732430458068848,1.4449007511138916,-0.0029279920272529125,0.0090501569211483,0.01410759799182415
2401190226237,1.1851298809051514,-9.68574333190918,1.4293384552001953,-0.0026618109550327063,0.0042588976211845875,0.013042873702943325
2401191463437,1.2617442607879639,-9.714473724365234,1.4089877605438232,-0.0005323622026480734,0.0031941730994731188,0.0162370465695858
2401192700637,1.2401964664459229,-9.68574333190918,1.3706804513931274,-0.0013309054775163531,0.004791259765625,0.01463996060192585
2401193937837,1.2557587623596191,-9.68574333190918,1.4089877605438232,-0.0007985432748682797,0.0031941730994731188,0.01117960549890995
2401195175062,1.192312479019165,-9.713275909423828,1.3994109630584717,-0.0013309054775163531,0.0031941730994731188,0.014373779296875
2401196412250,1.212663173675537,-9.710882186889648,1.4053964614868164,0.0013309054775163531,0.0066545275039970875,0.01357523538172245
2401197649462,1.2318167686462402,-9.728838920593262,1.4305355548858643,0.0,0.0053236219100654125,0.0157046839594841
2401198886662,1.2533645629882812,-9.702502250671387,1.4233529567718506,0.0018632676219567657,0.0039927163161337376,0.01783413253724575
2401200123862,1.2258312702178955,-9.710882186889648,1.4389152526855469,0.0007985432748682797,0.0029279920272529125,0.013042873702943325
2401201361075,1.2473790645599365,-9.728838920593262,1.479616641998291,0.0005323622026480734,0.00692070834338665,0.013042873702943325
2401202598287,1.2090718746185303,-9.749189376831055,1.4185645580291748,0.0002661811013240367,0.00692070834338665,0.01756795309484005
2401203835475,1.236605167388916,-9.727641105651855,1.380257248878479,0.0,0.0023956298828125,0.01650322787463665
2401205072675,1.2617442607879639,-9.702502250671387,1.4401123523712158,0.0005323622026480734,0.0037265352439135313,0.0181003138422966
2401206309875,1.2473790645599365,-9.714473724365234,1.434126853942871,-0.0005323622026480734,0.0039927163161337376,0.013309055007994175
2401207547075,1.2713210582733154,-9.703699111938477,1.4101848602294922,0.0031941730994731188,0.0053236219100654125,0.0191650390625
2401208784287,1.2641384601593018,-9.725247383117676,1.41257905960083,0.0029279920272529125,0.004791259765625,0.015172322280704975
2401210021475,1.2222399711608887,-9.731232643127441,1.41257905960083,-0.0013309054775163531,-0.0002661811013240367,0.012776692397892475
2401211258712,1.2198457717895508,-9.728838920593262,1.3742717504501343,-0.0007985432748682797,-0.0007985432748682797,0.010114881210029125
2401212495900,1.2114660739898682,-9.771934509277344,1.4089877605438232,0.005589802749454975,-0.0005323622026480734,0.014906140975654125
2401213733087,1.236605167388916,-9.71926212310791,1.4245500564575195,-0.0023956298828125,0.0031941730994731188,0.015438503585755825
2401214970287,1.259350061416626,-9.712079048156738,1.3766659498214722,-0.0005323622026480734,0.005057440605014563,0.0181003138422966
2401216207500,1.2713210582733154,-9.733627319335938,1.4101848602294922,0.0013309054775163531,0.0021294488105922937,0.013042873702943325
2401217444725,1.2653355598449707,-9.75158405303955,1.4401123523712158,-0.0010647244052961469,-0.0010647244052961469,0.01943122036755085
2401218681912,1.2222399711608887,-9.763554573059082,1.4484920501708984,0.0015970865497365594,-0.0021294488105922937,0.0204959437251091
2401219919112,1.1887211799621582,-9.747992515563965,1.4209587574005127,0.0026618109550327063,-0.0042588976211845875,0.012510511092841625
2401221156325,1.2413935661315918,-9.750386238098145,1.4077906608581543,0.0010647244052961469,0.0023956298828125,0.0114457868039608
2401222393512,1.2629413604736328,-9.781511306762695,1.4293384552001953,-0.0007985432748682797,0.0013309054775163531,0.010647243820130825
2401223630737,1.2114660739898682,-9.734824180603027,1.437718152999878,0.0037265352439135313,0.0023956298828125,0.013309055007994175
2401224867912,1.2030863761901855,-9.738415718078613,1.4245500564575195,-0.0031941730994731188,0.0007985432748682797,0.010114881210029125
2401226105137,1.2042834758758545,-9.75397777557373,1.4233529567718506,0.0018632676219567657,-0.0023956298828125,0.012776692397892475
2401227342337,1.2629413604736328,-9.768342971801758,1.3946224451065063,0.0015970865497365594,-0.0031941730994731188,0.01889885775744915
2401228579537,1.2617442607879639,-9.782708168029785,1.3898340463638306,-0.0053236219100654125,0.0007985432748682797,0.014373779296875
2401229816725,1.2473790645599365,-9.740809440612793,1.4449007511138916,-0.004791259765625,0.0037265352439135313,0.0119781494140625
2401231053937,1.2641384601593018,-9.78869342803955,1.4460978507995605,-0.0026618109550327063,0.0013309054775163531,0.0181003138422966
2401232291137,1.2413935661315918,-9.75517463684082,1.3946224451065063,0.003460354171693325,0.0023956298828125,0.0157046839594841
2401233528337,1.1959037780761719,-9.757569313049316,1.4185645580291748,0.0026618109550327063,0.0,0.015438503585755825
2401234765562,1.217451572418213,-9.734824180603027,1.3922282457351685,-0.007453070487827063,0.0031941730994731188,0.01224433071911335
2401236002762,1.2521674633026123,-9.710882186889648,1.4197616577148438,-0.00452507846057415,0.0,0.013042873702943325
2401237239950,1.1899182796478271,-9.799468040466309,1.414973258972168,-0.0015970865497365594,-0.0013309054775163531,0.010913425125181675
2401238477162,1.2102689743041992,-9.745597839355469,1.4257471561431885,-0.0023956298828125,0.0018632676219567657,0.0029279920272529125
2401239714362,1.1971008777618408,-9.75397777557373,1.4269442558288574,0.0071868896484375,-0.0042588976211845875,0.010114881210029125
2401240951562,1.213860273361206,-9.737218856811523,1.456871747970581,-0.0037265352439135313,-0.0021294488105922937,0.0157046839594841
2401242188762,1.213860273361206,-9.75278091430664,1.3838485479354858,-0.0023956298828125,0.0018632676219567657,0.0167694091796875
2401243425975,1.173158884048462,-9.727641105651855,1.413776159286499,-0.0013309054775163531,0.005057440605014563,0.015438503585755825
2401244663187,1.2102689743041992,-9.734824180603027,1.4484920501708984,0.0005323622026480734,-0.0023956298828125,0.0138414166867733
2401245900375,1.2090718746185303,-9.706093788146973,1.37906014919281,-0.005057440605014563,-0.0026618109550327063,0.01410759799182415
2401247137575,1.2294225692749023,-9.726444244384766,1.4041993618011475,-0.0029279920272529125,-0.0013309054775163531,0.01756795309484005
2401248374787,1.2461819648742676,-9.72165584564209,1.4389152526855469,-0.0029279920272529125,0.0007985432748682797,0.010913425125181675
2401249612000,1.2545616626739502,-9.728838920593262,1.43532395362854,-0.0013309054775163531,-0.0021294488105922937,0.010913425125181675
2401250849200,1.2342109680175781,-9.739612579345703,1.3982137441635132,-0.0037265352439135313,0.0013309054775163531,0.01224433071911335
2401252086400,1.2401964664459229,-9.710882186889648,1.4185645580291748,-0.0013309054775163531,0.0002661811013240367,0.02022976242005825
2401253323600,1.2234370708465576,-9.75278091430664,1.4281413555145264,-0.0029279920272529125,0.0002661811013240367,0.0167694091796875
2401254560800,1.2114660739898682,-9.704896926879883,1.43532395362854,-0.0023956298828125,0.0010647244052961469,0.01943122036755085
2401255798012,1.1887211799621582,-9.718064308166504,1.3910311460494995,-0.0026618109550327063,-0.0010647244052961469,0.01463996060192585
2401257035200,1.235408067703247,-9.683348655700684,1.4269442558288574,-0.0007985432748682797,0.0,0.0119781494140625
2401258272412,1.213860273361206,-9.695320129394531,1.436521053314209,0.0023956298828125,-0.0029279920272529125,0.013042873702943325
2401259509600,1.2246341705322266,-9.71926212310791,1.413776159286499,0.0026618109550327063,0.0015970865497365594,0.013309055007994175
2401260746800,1.2102689743041992,-9.703699111938477,1.4520833492279053,0.007453070487827063,0.0031941730994731188,0.0204959437251091
2401261984025,1.2114660739898682,-9.709685325622559,1.4089877605438232,0.0039927163161337376,-0.0002661811013240367,0.0215606689453125
2401263221212,1.215057373046875,-9.695320129394531,1.4508862495422363,0.004791259765625,-0.0002661811013240367,0.02422248013317585
2401264458425,1.1994950771331787,-9.738415718078613,1.4041993618011475,-0.0015970865497365594,-0.0018632676219567657,0.0173017717897892
2401265695637,1.1994950771331787,-9.72165584564209,1.3886369466781616,-0.0002661811013240367,-0.0031941730994731188,0.014906140975654125
2401266932825,1.2114660739898682,-9.757569313049316,1.4281413555145264,0.007453070487827063,-0.0031941730994731188,0.0173017717897892
2401268170025,1.1899182796478271,-9.7420072555542,1.4329297542572021,0.0066545275039970875,-0.0042588976211845875,0.02129448764026165
2401269407237,1.2473790645599365,-9.75397777557373,1.3682862520217896,0.0018632676219567657,0.0002661811013240367,0.01597086526453495
2401270644462,1.235408067703247,-9.764751434326172,1.4425065517425537,0.0018632676219567657,-0.0031941730994731188,0.01171196810901165
2401271881637,1.2018892765045166,-9.7420072555542,1.455674648284912,0.005855984054505825,-0.005057440605014563,0.01836649514734745
2401273118837,1.2102689743041992,-9.789891242980957,1.3898340463638306,0.0042588976211845875,0.0018632676219567657,0.02076212503015995
2401274356050,1.217451572418213,-9.771934509277344,1.3658920526504517,0.003460354171693325,-0.0031941730994731188,0.01996358297765255
2401275593250,1.2270283699035645,-9.791088104248047,1.4173674583435059,0.0029279920272529125,-0.0029279920272529125,0.0228915736079216
2401276830450,1.1779472827911377,-9.782708168029785,1.4101848602294922,0.0037265352439135313,-0.0063883461989462376,0.02022976242005825
2401278067662,1.2042834758758545,-9.750386238098145,1.3658920526504517,0.0029279920272529125,-0.0021294488105922937,0.01756795309484005
2401279304850,1.193509578704834,-9.77552604675293,1.3862427473068237,0.0037265352439135313,0.0066545275039970875,0.0220930315554142
2401280542075,1.192312479019165,-9.771934509277344,1.3994109630584717,0.0,0.0018632676219567657,0.01650322787463665
2401281779262,1.194706678390503,-9.72285270690918,1.4089877605438232,-0.0010647244052961469,-0.0002661811013240367,0.014906140975654125
2401283016475,1.2270283699035645,-9.736021041870117,1.382651448249817,0.0023956298828125,-0.0013309054775163531,0.015438503585755825
2401284253675,1.1887211799621582,-9.733627319335938,1.4041993618011475,0.0026618109550327063,-0.005057440605014563,0.02076212503015995
2401285490875,1.237802267074585,-9.728838920593262,1.4245500564575195,-0.0039927163161337376,-0.0021294488105922937,0.0196974016726017
2401286728087,1.2078747749328613,-9.762357711791992,1.4293384552001953,-0.0042588976211845875,-0.0005323622026480734,0.0162370465695858
2401287965287,1.2246341705322266,-9.756372451782227,1.4041993618011475,-0.0002661811013240367,-0.0010647244052961469,0.0191650390625
2401289202487,1.1971008777618408,-9.725247383117676,1.4257471561431885,-0.0005323622026480734,-0.0023956298828125,0.0215606689453125
2401290439700,1.1875240802764893,-9.706093788146973,1.3886369466781616,0.0005323622026480734,-0.004791259765625,0.0162370465695858
2401291676900,1.2509703636169434,-9.71926212310791,1.4077906608581543,0.0037265352439135313,-0.0029279920272529125,0.0173017717897892
2401292914112,1.2198457717895508,-9.697713851928711,1.4065935611724854,0.0010647244052961469,0.0002661811013240367,0.0196974016726017
2401294151300,1.1971008777618408,-9.749189376831055,1.4293384552001953,-0.0021294488105922937,-0.0013309054775163531,0.01783413253724575
2401295388512,1.1803414821624756,-9.734824180603027,1.4030022621154785,-0.0018632676219567657,-0.0007985432748682797,0.01756795309484005
2401296625712,1.194706678390503,-9.731232643127441,1.3886369466781616,0.0021294488105922937,-0.0023956298828125,0.0186326764523983
2401297862912,1.217451572418213,-9.712079048156738,1.4041993618011475,0.0021294488105922937,-0.004791259765625,0.0191650390625
2401299100125,1.191115379333496,-9.724050521850586,1.3994109630584717,-0.0010647244052961469,-0.0007985432748682797,0.0167694091796875
2401300337325,1.1528080701828003,-9.757569313049316,1.414973258972168,0.0010647244052961469,-0.0007985432748682797,0.015438503585755825
2401301574512,1.192312479019165,-9.765949249267578,1.3874398469924927,0.0037265352439135313,-0.0029279920272529125,0.01783413253724575
2401302811725,1.2270283699035645,-9.720458984375,1.416170358657837,-0.0021294488105922937,-0.0005323622026480734,0.01836649514734745
2401304048925,1.1959037780761719,-9.715670585632324,1.413776159286499,-0.0018632676219567657,0.0005323622026480734,0.01703559048473835
2401305286150,1.235408067703247,-9.738415718078613,1.4197616577148438,0.0039927163161337376,-0.0042588976211845875,0.01597086526453495
2401306523350,1.192312479019165,-9.695320129394531,1.416170358657837,0.0026618109550327063,-0.006122165359556675,0.01224433071911335
2401307760537,1.1959037780761719,-9.725247383117676,1.4640543460845947,-0.0010647244052961469,-0.005855984054505825,0.014906140975654125
2401308997737,1.2210428714752197,-9.75158405303955,1.4245500564575195,-0.0002661811013240367,-0.0026618109550327063,0.0215606689453125
2401310234962,1.2018892765045166,-9.77672290802002,1.436521053314209,0.0013309054775163531,0.00452507846057415,0.0138414166867733
2401311472162,1.1671733856201172,-9.712079048156738,1.4844050407409668,0.003460354171693325,0.0021294488105922937,0.0191650390625
2401312709375,1.1755530834197998,-9.71926212310791,1.3982137441635132,0.0015970865497365594,-0.0013309054775163531,0.01756795309484005
2401313946550,1.1587936878204346,-9.736021041870117,1.4197616577148438,0.0005323622026480734,-0.0002661811013240367,0.0138414166867733
2401315183775,1.1528080701828003,-9.740809440612793,1.3934253454208374,0.0021294488105922937,0.0007985432748682797,0.0167694091796875
2401316420975,1.171961784362793,-9.7420072555542,1.3982137441635132,0.00452507846057415,-0.005057440605014563,0.01783413253724575
2401317658187,1.1336544752120972,-9.724050521850586,1.3982137441635132,-0.0029279920272529125,0.0010647244052961469,0.01171196810901165
2401318895362,1.1468225717544556,-9.714473724365234,1.4006080627441406,-0.0005323622026480734,0.004791259765625,0.010647243820130825
2401320132575,1.1899182796478271,-9.7420072555542,1.3898340463638306,0.0010647244052961469,-0.0002661811013240367,0.01171196810901165
2401321369787,1.1875240802764893,-9.737218856811523,1.4006080627441406,-0.0029279920272529125,0.0039927163161337376,0.00692070834338665
2401322606987,1.1647791862487793,-9.75158405303955,1.4221558570861816,0.0063883461989462376,0.008251613937318325,0.00958251953125
2401323844187,1.1959037780761719,-9.757569313049316,1.459265947341919,0.005589802749454975,-0.006122165359556675,0.015438503585755825
2401325081387,1.2318167686462402,-9.757569313049316,1.3515268564224243,-0.0010647244052961469,-0.0029279920272529125,0.0138414166867733
2401326318587,1.213860273361206,-9.767146110534668,1.3982137441635132,0.0021294488105922937,0.0005323622026480734,0.00958251953125
2401327555812,1.2222399711608887,-9.759963035583496,1.4209587574005127,-0.0026618109550327063,0.0037265352439135313,0.00958251953125
2401328793012,1.2102689743041992,-9.769539833068848,1.3778630495071411,0.003460354171693325,0.0031941730994731188,0.015172322280704975
2401330030212,1.2282254695892334,-9.77552604675293,1.359906554222107,0.005855984054505825,0.0042588976211845875,0.013042873702943325
2401331267412,1.236605167388916,-9.740809440612793,1.3431471586227417,0.0029279920272529125,0.0007985432748682797,0.00931633822619915
2401332504612,1.2078747749328613,-9.791088104248047,1.3623007535934448,0.0002661811013240367,0.0018632676219567657,0.0077192517928779125
2401333741812,1.169567584991455,-9.768342971801758,1.4293384552001953,0.0010647244052961469,0.0002661811013240367,0.013042873702943325
2401334979037,1.2318167686462402,-9.763554573059082,1.3850456476211548,0.004791259765625,-0.0037265352439135313,0.01463996060192585
2401336216237,1.2006921768188477,-9.758766174316406,1.4065935611724854,0.0,-0.0013309054775163531,0.00692070834338665
2401337453425,1.1863269805908203,-9.81024169921875,1.3778630495071411,0.0,0.0031941730994731188,0.0066545275039970875
2401338690650,1.217451572418213,-9.758766174316406,1.3850456476211548,0.0018632676219567657,0.0037265352439135313,0.0031941730994731188
2401339927825,1.1971008777618408,-9.746795654296875,1.3623007535934448,-0.004791259765625,0.0015970865497365594,0.0031941730994731188
2401341165037,1.2054805755615234,-9.72285270690918,1.3611036539077759,-0.0039927163161337376,0.0010647244052961469,0.0053236219100654125
2401342402250,1.1540051698684692,-9.736021041870117,1.4018051624298096,-0.005057440605014563,0.005589802749454975,0.006122165359556675
2401343639462,1.1659762859344482,-9.736021041870117,1.358709454536438,-0.0042588976211845875,0.006122165359556675,0.0037265352439135313
2401344876650,1.1851298809051514,-9.780314445495605,1.3910311460494995,-0.0015970865497365594,0.003460354171693325,0.005057440605014563
2401346113837,1.216254472732544,-9.7791166305542,1.3778630495071411,-0.0023956298828125,0.0015970865497365594,0.007985432632267475
2401347351050,1.173158884048462,-9.763554573059082,1.3838485479354858,-0.0002661811013240367,0.0002661811013240367,0.0066545275039970875
2401348588262,1.095347285270691,-9.75278091430664,1.4197616577148438,-0.00692070834338665,0.005057440605014563,0.0010647244052961469
2401349825475,1.1803414821624756,-9.758766174316406,1.3730746507644653,-0.00452507846057415,0.005589802749454975,0.0023956298828125
2401351062662,1.2054805755615234,-9.756372451782227,1.3503297567367554,-0.0023956298828125,0.0039927163161337376,-0.0013309054775163531
2401352299862,1.2042834758758545,-9.765949249267578,1.382651448249817,-0.005855984054505825,0.007453070487827063,0.0010647244052961469
2401353537075,1.1971008777618408,-9.761160850524902,1.413776159286499,-0.0023956298828125,0.0013309054775163531,0.0023956298828125
2401354774275,1.1982979774475098,-9.731232643127441,1.459265947341919,-0.00452507846057415,0.0037265352439135313,0.0018632676219567657
2401356011487,1.1755530834197998,-9.761160850524902,1.3646949529647827,-0.0037265352439135313,0.010114881210029125,-0.00452507846057415
2401357248687,1.1887211799621582,-9.746795654296875,1.3682862520217896,-0.003460354171693325,0.0071868896484375,-0.00692070834338665
2401358485887,1.2006921768188477,-9.727641105651855,1.3958195447921753,-0.0053236219100654125,0.0026618109550327063,-0.004791259765625
2401359723075,1.1982979774475098,-9.750386238098145,1.3886369466781616,-0.005057440605014563,0.006122165359556675,-0.0013309054775163531
2401360960287,1.1827356815338135,-9.72165584564209,1.3778630495071411,-0.0042588976211845875,0.00984870083630085,-0.0021294488105922937
2401362197500,1.2306196689605713,-9.739612579345703,1.3718775510787964,-0.0023956298828125,0.0010647244052961469,0.0
2401363434700,1.1982979774475098,-9.769539833068848,1.3730746507644653,-0.008251613937318325,0.005589802749454975,-0.004791259765625
2401364671912,1.2461819648742676,-9.736021041870117,1.3658920526504517,-0.0026618109550327063,0.00692070834338665,-0.0039927163161337376
2401365909100,1.217451572418213,-9.695320129394531,1.359906554222107,-0.0007985432748682797,0.0,-0.0026618109550327063
2401367146325,1.215057373046875,-9.68933391571045,1.3886369466781616,-0.0063883461989462376,0.0,0.0018632676219567657
2401368383500,1.2042834758758545,-9.718064308166504,1.3994109630584717,-0.00452507846057415,0.010647243820130825,0.0023956298828125
2401369620725,1.2090718746185303,-9.767146110534668,1.3862427473068237,-0.0039927163161337376,0.0077192517928779125,-0.0021294488105922937
2401370857925,1.2090718746185303,-9.704896926879883,1.3646949529647827,-0.0039927163161337376,0.005057440605014563,0.0013309054775163531
2401372095125,1.1755530834197998,-9.713275909423828,1.3982137441635132,-0.0037265352439135313,0.007453070487827063,0.0031941730994731188
2401373332325,1.1815385818481445,-9.724050521850586,1.41257905960083,-0.0042588976211845875,0.00931633822619915,0.0013309054775163531
2401374569537,1.1959037780761719,-9.756372451782227,1.4317326545715332,-0.0039927163161337376,0.01171196810901165,0.0010647244052961469
2401375806725,1.213860273361206,-9.731232643127441,1.4065935611724854,-0.0005323622026480734,0.014373779296875,0.0015970865497365594
2401377043912,1.1887211799621582,-9.713275909423828,1.4281413555145264,-0.0015970865497365594,0.007453070487827063,-0.0007985432748682797
2401378281125,1.2114660739898682,-9.709685325622559,1.3862427473068237,-0.0018632676219567657,0.008517795242369175,0.0042588976211845875
2401379518350,1.2497732639312744,-9.68933391571045,1.4030022621154785,0.0007985432748682797,0.006122165359556675,0.0029279920272529125
2401380755537,1.2294225692749023,-9.728838920593262,1.382651448249817,-0.0002661811013240367,0.003460354171693325,-0.0007985432748682797
2401381992737,1.2054805755615234,-9.72285270690918,1.3778630495071411,0.0,0.0063883461989462376,0.004791259765625
2401383229937,1.2066776752471924,-9.696516990661621,1.3898340463638306,-0.0005323622026480734,0.010381062515079975,0.008783976547420025
2401384467150,1.1959037780761719,-9.727641105651855,1.357512354850769,-0.0018632676219567657,0.010381062515079975,0.005589802749454975
2401385704350,1.2030863761901855,-9.739612579345703,1.4221558570861816,-0.0023956298828125,0.008517795242369175,0.0026618109550327063
2401386941562,1.2689268589019775,-9.715670585632324,1.4077906608581543,-0.0013309054775163531,0.006122165359556675,0.0013309054775163531
2401388178775,1.238999366760254,-9.704896926879883,1.43532395362854,0.0039927163161337376,0.0029279920272529125,0.0037265352439135313
2401389415987,1.2437877655029297,-9.740809440612793,1.37906014919281,0.0,0.0010647244052961469,0.007985432632267475
2401390653175,1.2246341705322266,-9.725247383117676,1.3778630495071411,0.0037265352439135313,0.0018632676219567657,0.010381062515079975
2401391890362,1.2246341705322266,-9.712079048156738,1.382651448249817,0.0071868896484375,0.0031941730994731188,0.00452507846057415
2401393127587,1.2653355598449707,-9.660603523254395,1.4185645580291748,0.01171196810901165,0.00958251953125,0.0026618109550327063
2401394364812,1.2330138683319092,-9.68933391571045,1.3970166444778442,0.003460354171693325,0.010913425125181675,0.0071868896484375
2401395602000,1.2449848651885986,-9.691728591918945,1.3862427473068237,0.006122165359556675,0.005589802749454975,0.01357523538172245
2401396839187,1.2258312702178955,-9.691728591918945,1.4101848602294922,0.005589802749454975,0.00692070834338665,0.014373779296875
2401398076387,1.259350061416626,-9.706093788146973,1.3682862520217896,0.0042588976211845875,0.0031941730994731188,0.008251613937318325
2401399313600,1.2090718746185303,-9.677363395690918,1.4233529567718506,0.005057440605014563,0.006122165359556675,0.00984870083630085
2401400550787,1.2222399711608887,-9.670180320739746,1.413776159286499,0.006122165359556675,-0.0007985432748682797,0.010913425125181675
2401401787987,1.212663173675537,-9.667786598205566,1.3862427473068237,0.010381062515079975,-0.0002661811013240367,0.01117960549890995
2401403025200,1.2306196689605713,-9.697713851928711,1.3946224451065063,0.00692070834338665,0.00452507846057415,0.014906140975654125
2401404262412,1.2880805730819702,-9.713275909423828,1.4089877605438232,0.0077192517928779125,0.0002661811013240367,0.01224433071911335
2401405499625,1.2461819648742676,-9.668983459472656,1.4437036514282227,0.00931633822619915,-0.0013309054775163531,-0.0005323622026480734
2401406736825,1.238999366760254,-9.6618013381958,1.3946224451065063,0.0181003138422966,0.0002661811013240367,0.00984870083630085
2401407974012,1.2557587623596191,-9.671378135681152,1.4185645580291748,0.01171196810901165,0.0023956298828125,0.010647243820130825
2401409211237,1.2677297592163086,-9.691728591918945,1.3886369466781616,0.00958251953125,0.0002661811013240367,0.01357523538172245
2401410448437,1.235408067703247,-9.710882186889648,1.3886369466781616,0.0077192517928779125,0.0021294488105922937,0.0138414166867733
2401411685637,1.2497732639312744,-9.701305389404297,1.382651448249817,0.010647243820130825,0.0005323622026480734,0.013309055007994175
2401412922850,1.212663173675537,-9.680954933166504,1.3910311460494995,0.010114881210029125,-0.0023956298828125,0.01410759799182415
2401414160037,1.2856863737106323,-9.680954933166504,1.3886369466781616,0.0090501569211483,-0.0015970865497365594,0.01463996060192585
2401415397250,1.2533645629882812,-9.716867446899414,1.381454348564148,0.01117960549890995,-0.0002661811013240367,0.0114457868039608
2401416634437,1.2617442607879639,-9.726444244384766,1.359906554222107,0.0114457868039608,0.0002661811013240367,0.0167694091796875
2401417871662,1.2473790645599365,-9.726444244384766,1.3838485479354858,0.0186326764523983,-0.0021294488105922937,0.015438503585755825
2401419108850,1.2713210582733154,-9.714473724365234,1.3886369466781616,0.015172322280704975,-0.0010647244052961469,0.0167694091796875
2401420346050,1.2653355598449707,-9.730035781860352,1.3754688501358032,0.014906140975654125,0.0023956298828125,0.01463996060192585
2401421583262,1.2761094570159912,-9.702502250671387,1.380257248878479,0.012776692397892475,0.0037265352439135313,0.01463996060192585
2401422820462,1.2641384601593018,-9.725247383117676,1.4269442558288574,0.0162370465695858,0.0002661811013240367,0.0119781494140625
2401424057662,1.2318167686462402,-9.708487510681152,1.3922282457351685,0.013042873702943325,-0.0021294488105922937,0.0191650390625
2401425294875,1.2797008752822876,-9.712079048156738,1.3922282457351685,0.013309055007994175,-0.0063883461989462376,0.01703559048473835
2401426532087,1.2401964664459229,-9.694122314453125,1.4053964614868164,0.01597086526453495,-0.0021294488105922937,0.014906140975654125
2401427769287,1.2413935661315918,-9.690531730651855,1.3958195447921753,0.01597086526453495,-0.003460354171693325,0.01463996060192585
2401429006487,1.2270283699035645,-9.72165584564209,1.4173674583435059,0.013042873702943325,-0.00452507846057415,0.012510511092841625
2401430243675,1.2485761642456055,-9.715670585632324,1.3898340463638306,0.00984870083630085,-0.004791259765625,0.01889885775744915
2401431480900,1.2545616626739502,-9.690531730651855,1.4317326545715332,0.01357523538172245,-0.0031941730994731188,0.0215606689453125
2401432718100,1.2677297592163086,-9.707290649414062,1.3958195447921753,0.01463996060192585,-0.0042588976211845875,0.0210283063352108
2401433955300,1.217451572418213,-9.714473724365234,1.4257471561431885,0.0119781494140625,-0.005855984054505825,0.01943122036755085
2401435192500,1.2270283699035645,-9.759963035583496,1.3706804513931274,0.0181003138422966,-0.007985432632267475,0.01756795309484005
2401436429712,1.2186486721038818,-9.731232643127441,1.4041993618011475,0.01597086526453495,-0.0053236219100654125,0.015172322280704975
2401437666912,1.2258312702178955,-9.674968719482422,1.3718775510787964,0.0114457868039608,-0.0015970865497365594,0.0173017717897892
2401438904112,1.2401964664459229,-9.680954933166504,1.4197616577148438,0.013042873702943325,-0.007985432632267475,0.01756795309484005
2401440141312,1.2545616626739502,-9.696516990661621,1.416170358657837,0.01357523538172245,-0.005057440605014563,0.01783413253724575
2401441378512,1.2318167686462402,-9.713275909423828,1.4197616577148438,0.01224433071911335,-0.0066545275039970875,0.0167694091796875
2401442615725,1.2186486721038818,-9.704896926879883,1.4077906608581543,0.00958251953125,-0.0090501569211483,0.0162370465695858
2401443852912,1.2030863761901855,-9.697713851928711,1.3754688501358032,0.0157046839594841,-0.0090501569211483,0.0162370465695858
2401445090137,1.2868834733963013,-9.697713851928711,1.4089877605438232,0.012776692397892475,-0.007985432632267475,0.0204959437251091
2401446327337,1.2449848651885986,-9.668983459472656,1.4173674583435059,0.01117960549890995,-0.010381062515079975,0.01703559048473835
2401447564537,1.235408067703247,-9.706093788146973,1.358709454536438,0.008251613937318325,-0.007985432632267475,0.012776692397892475
2401448801750,1.2342109680175781,-9.716867446899414,1.3970166444778442,0.010647243820130825,-0.00958251953125,0.0186326764523983
2401450038937,1.2425906658172607,-9.702502250671387,1.4221558570861816,0.01224433071911335,-0.0071868896484375,0.01943122036755085
2401451276150,1.2282254695892334,-9.707290649414062,1.3994109630584717,0.010114881210029125,-0.0037265352439135313,0.01756795309484005
2401452513337,1.2545616626739502,-9.679757118225098,1.4221558570861816,0.0167694091796875,-0.010913425125181675,0.0186326764523983
2401453750562,1.2701239585876465,-9.679757118225098,1.4173674583435059,0.0173017717897892,-0.01224433071911335,0.0191650390625
2401454987750,1.2653355598449707,-9.68574333190918,1.416170358657837,0.008783976547420025,-0.0162370465695858,0.01836649514734745
2401456224975,1.2485761642456055,-9.695320129394531,1.4006080627441406,0.01650322787463665,-0.014906140975654125,0.02076212503015995
2401457462150,1.2737152576446533,-9.692925453186035,1.4006080627441406,0.0157046839594841,-0.0167694091796875,0.0220930315554142
2401458699362,1.2401964664459229,-9.694122314453125,1.41257905960083,0.0090501569211483,-0.015172322280704975,0.0173017717897892
2401459936575,1.2186486721038818,-9.690531730651855,1.3850456476211548,0.0114457868039608,-0.01463996060192585,0.015438503585755825
2401461173775,1.259350061416626,-9.68574333190918,1.4221558570861816,0.014373779296875,-0.0138414166867733,0.0220930315554142
2401462410975,1.2330138683319092,-9.6989107131958,1.3982137441635132,0.014373779296875,-0.01597086526453495,0.0234239362180233
2401463648200,1.2725181579589844,-9.667786598205566,1.3994109630584717,0.014373779296875,-0.01783413253724575,0.0244886614382267
2401464885387,1.2186486721038818,-9.670180320739746,1.4329297542572021,0.01410759799182415,-0.0173017717897892,0.02422248013317585
2401466122587,1.2533645629882812,-9.744400978088379,1.4185645580291748,0.01117960549890995,-0.0191650390625,0.01597086526453495
2401467359775,1.2246341705322266,-9.716867446899414,1.4173674583435059,0.0119781494140625,-0.0162370465695858,0.01756795309484005
2401468597000,1.2294225692749023,-9.71926212310791,1.4185645580291748,0.01224433071911335,-0.015438503585755825,0.02182685025036335
2401469834200,1.2210428714752197,-9.724050521850586,1.4053964614868164,0.0119781494140625,-0.0173017717897892,0.01783413253724575
2401471071412,1.2413935661315918,-9.718064308166504,1.4437036514282227,0.01597086526453495,-0.0181003138422966,0.0244886614382267
2401472308612,1.2713210582733154,-9.703699111938477,1.3958195447921753,0.014906140975654125,-0.01650322787463665,0.0191650390625
2401473545812,1.2856863737106323,-9.683348655700684,1.4257471561431885,0.014373779296875,-0.0228915736079216,0.01783413253724575
2401474783012,1.1827356815338135,-9.695320129394531,1.4329297542572021,0.01224433071911335,-0.0228915736079216,0.0167694091796875
2401476020225,1.2617442607879639,-9.709685325622559,1.4113819599151611,0.014906140975654125,-0.02022976242005825,0.0181003138422966
2401477257412,1.2318167686462402,-9.678560256958008,1.4329297542572021,0.01703559048473835,-0.0220930315554142,0.0167694091796875
2401478494612,1.2401964664459229,-9.718064308166504,1.455674648284912,0.012510511092841625,-0.0162370465695858,0.0181003138422966
2401479731862,1.1863269805908203,-9.692925453186035,1.4006080627441406,0.01171196810901165,-0.015438503585755825,0.01783413253724575
2401480969037,1.212663173675537,-9.678560256958008,1.4197616577148438,0.01703559048473835,-0.01996358297765255,0.0210283063352108
2401482206225,1.237802267074585,-9.709685325622559,1.4018051624298096,0.02076212503015995,-0.02182685025036335,0.0223592109978199
2401483443450,1.2461819648742676,-9.674968719482422,1.4173674583435059,0.01463996060192585,-0.02076212503015995,0.01756795309484005
2401484680637,1.2689268589019775,-9.72285270690918,1.459265947341919,0.01650322787463665,-0.0228915736079216,0.0173017717897892
2401485917850,1.2425906658172607,-9.6989107131958,1.3850456476211548,0.0157046839594841,-0.0234239362180233,0.01996358297765255
2401487155050,1.2258312702178955,-9.718064308166504,1.4449007511138916,0.012776692397892475,-0.0196974016726017,0.02129448764026165
2401488392262,1.2713210582733154,-9.720458984375,1.4856021404266357,0.0186326764523983,-0.0263519287109375,0.0210283063352108
2401489629475,1.2102689743041992,-9.690531730651855,1.4197616577148438,0.01703559048473835,-0.02608574740588665,0.0196974016726017
2401490866675,1.2198457717895508,-9.709685325622559,1.414973258972168,0.0173017717897892,-0.0276828333735466,0.01756795309484005
2401492103875,1.212663173675537,-9.6618013381958,1.45806884765625,0.013309055007994175,-0.0234239362180233,0.0162370465695858
2401493341100,1.2198457717895508,-9.71926212310791,1.4197616577148438,0.01783413253724575,-0.0234239362180233,0.0181003138422966
2401494578275,1.238999366760254,-9.716867446899414,1.4173674583435059,0.01463996060192585,-0.01836649514734745,0.0138414166867733
2401495815475,1.2030863761901855,-9.724050521850586,1.4329297542572021,0.01463996060192585,-0.01756795309484005,0.0162370465695858
2401497052675,1.1959037780761719,-9.7420072555542,1.4065935611724854,0.0138414166867733,-0.02661811001598835,0.01783413253724575
2401498289900,1.215057373046875,-9.730035781860352,1.4317326545715332,0.015172322280704975,-0.0223592109978199,0.0138414166867733
2401499527100,1.1887211799621582,-9.736021041870117,1.4437036514282227,0.014906140975654125,-0.0215606689453125,0.013309055007994175
