timestamp_ns,accel_x,accel_y,accel_z,gyro_x,gyro_y,gyro_z
18341321896125,4.261679172515869,-6.708553314208984,6.161478042602539,-0.0157046839594841,-0.005057440605014563,0.01783413253724575
18341323133425,4.258087635040283,-6.675034523010254,6.165069580078125,-0.02129448764026165,-0.003460354171693325,0.010647243820130825
18341324370700,4.266467571258545,-6.695384979248047,6.157886981964111,-0.02022976242005825,-0.0018632676219567657,0.013042873702943325
18341325607987,4.241328239440918,-6.720524311065674,6.185420036315918,-0.02182685025036335,-0.0029279920272529125,0.0077192517928779125
18341326845312,4.258087635040283,-6.671442985534668,6.111199855804443,-0.0244886614382267,-0.0042588976211845875,0.010381062515079975
18341328082587,4.247313976287842,-6.6810197830200195,6.1088056564331055,-0.0220930315554142,-0.0018632676219567657,0.0119781494140625
18341329319900,4.261679172515869,-6.696582317352295,6.113594055175781,-0.0220930315554142,0.0007985432748682797,0.008517795242369175
18341330557187,4.195838451385498,-6.657077789306641,6.1088056564331055,-0.0234239362180233,-0.0031941730994731188,0.007453070487827063
18341331794500,4.217386245727539,-6.677428722381592,6.114791393280029,-0.02369011752307415,-0.00692070834338665,0.0090501569211483
18341333031762,4.222174644470215,-6.673837184906006,6.1519012451171875,-0.02608574740588665,-0.0042588976211845875,0.00984870083630085
18341334269075,4.259284973144531,-6.675034523010254,6.121973991394043,-0.02262539230287075,-0.0015970865497365594,0.00931633822619915
18341335506375,4.230554580688477,-6.672640323638916,6.094440460205078,-0.02608574740588665,-0.0037265352439135313,0.00984870083630085
18341336743675,4.2293572425842285,-6.712144374847412,6.1303534507751465,-0.02315775491297245,-0.0053236219100654125,0.005057440605014563
18341337980950,4.261679172515869,-6.66785192489624,6.1519012451171875,-0.02315775491297245,-0.0015970865497365594,0.00692070834338665
18341339218250,4.217386245727539,-6.698976516723633,6.124368190765381,-0.02608574740588665,-0.0026618109550327063,0.00984870083630085
18341340455550,4.28322696685791,-6.67982292175293,6.138733386993408,-0.0196974016726017,-0.0013309054775163531,0.0066545275039970875
18341341692850,4.246116638183594,-6.689399719238281,6.125565052032471,-0.02555338479578495,-0.0026618109550327063,0.007985432632267475
18341342930137,4.228160381317139,-6.712144374847412,6.0884552001953125,-0.0258195661008358,-0.003460354171693325,0.01117960549890995
18341344167437,4.285621166229248,-6.6594719886779785,6.114791393280029,-0.0252872034907341,0.0007985432748682797,0.008517795242369175
18341345404737,4.2544965744018555,-6.703764915466309,6.078877925872803,-0.0220930315554142,-0.0015970865497365594,0.00958251953125
18341346642037,4.252102375030518,-6.645106792449951,6.101623058319092,-0.0228915736079216,-0.0026618109550327063,0.012510511092841625
18341347879325,4.258087635040283,-6.649895191192627,6.160281181335449,-0.0228915736079216,-0.0031941730994731188,0.0066545275039970875
18341349116637,4.253299236297607,-6.642712593078613,6.132747650146484,-0.0234239362180233,-0.0021294488105922937,0.010114881210029125
18341350353925,4.280832767486572,-6.628347396850586,6.111199855804443,-0.02661811001598835,0.0042588976211845875,0.01117960549890995
18341351591212,4.2951979637146,-6.609193801879883,6.095637798309326,-0.02369011752307415,-0.0023956298828125,0.008251613937318325
18341352828500,4.294000625610352,-6.580463409423828,6.099228858947754,-0.0234239362180233,-0.0037265352439135313,0.0119781494140625
18341354065787,4.288015365600586,-6.572083950042725,6.163872241973877,-0.02262539230287075,0.0013309054775163531,0.012776692397892475
18341355303112,4.279635429382324,-6.591237545013428,6.127959251403809,-0.0252872034907341,0.0002661811013240367,0.00984870083630085
18341356540400,4.258087635040283,-6.560112476348877,6.095637798309326,-0.0215606689453125,0.0042588976211845875,0.00692070834338665
18341357777675,4.294000625610352,-6.569689750671387,6.095637798309326,-0.0204959437251091,-0.0018632676219567657,0.010913425125181675
18341359015000,4.286818027496338,-6.528987884521484,6.156689643859863,-0.0228915736079216,-0.0026618109550327063,0.01410759799182415
18341360252287,4.243722438812256,-6.579266548156738,6.1100029945373535,-0.0223592109978199,-0.0013309054775163531,0.0114457868039608
18341361489575,4.267664432525635,-6.54574728012085,6.095637798309326,-0.01836649514734745,-0.0029279920272529125,0.00931633822619915
18341362726862,4.291606426239014,-6.5960259437561035,6.056133270263672,-0.015172322280704975,-0.0015970865497365594,0.007453070487827063
18341363964175,4.278438568115234,-6.5948286056518555,6.045359134674072,-0.0167694091796875,-0.0042588976211845875,0.00958251953125
18341365201462,4.252102375030518,-6.5768723487854,6.081272602081299,-0.0167694091796875,0.0005323622026480734,0.0053236219100654125
18341366438762,4.248510837554932,-6.647500991821289,6.083666801452637,-0.012776692397892475,-0.0021294488105922937,0.0063883461989462376
18341367676050,4.256890773773193,-6.581660747528076,6.071695327758789,-0.014906140975654125,-0.005589802749454975,0.006122165359556675
18341368913350,4.253299236297607,-6.604405403137207,6.098031997680664,-0.015172322280704975,-0.0023956298828125,0.00692070834338665
18341370150637,4.252102375030518,-6.642712593078613,6.095637798309326,-0.012510511092841625,-0.005589802749454975,0.0039927163161337376
18341371387937,4.258087635040283,-6.653486728668213,6.098031997680664,-0.014373779296875,-0.0023956298828125,0.0018632676219567657
18341372625237,4.264073371887207,-6.629544734954834,6.0417680740356445,-0.015438503585755825,0.0005323622026480734,0.0010647244052961469
18341373862525,4.219780445098877,-6.67982292175293,6.0417680740356445,-0.01703559048473835,-0.0015970865497365594,0.0
18341375099837,4.24970817565918,-6.719326972961426,6.077681064605713,-0.013309055007994175,-0.0066545275039970875,0.0026618109550327063
18341376337125,4.217386245727539,-6.7277069091796875,6.069301128387451,-0.013309055007994175,-0.005057440605014563,0.0002661811013240367
18341377574425,4.226963043212891,-6.708553314208984,6.1088056564331055,-0.015438503585755825,0.0018632676219567657,-0.0023956298828125
18341378811712,4.274847030639648,-6.687005519866943,6.107608795166016,-0.01650322787463665,-0.003460354171693325,-0.0018632676219567657
18341380049000,4.274847030639648,-6.685808181762695,6.10401725769043,-0.0114457868039608,-0.0039927163161337376,-0.0029279920272529125
18341381286312,4.270058631896973,-6.728903770446777,6.125565052032471,-0.01171196810901165,0.0042588976211845875,-0.0063883461989462376
18341382523600,4.291606426239014,-6.7492547035217285,6.10401725769043,-0.012776692397892475,0.0029279920272529125,-0.01117960549890995
18341383760900,4.309563159942627,-6.730101108551025,6.072892665863037,-0.00958251953125,-0.0015970865497365594,-0.0037265352439135313
18341384998187,4.294000625610352,-6.6810197830200195,6.120776653289795,-0.014906140975654125,0.0,-0.004791259765625
18341386235500,4.259284973144531,-6.708553314208984,6.1100029945373535,-0.01783413253724575,-0.005057440605014563,-0.0063883461989462376
18341387472787,4.309563159942627,-6.728903770446777,6.076483726501465,-0.015438503585755825,-0.0018632676219567657,-0.0015970865497365594
18341388710087,4.267664432525635,-6.698976516723633,6.1315507888793945,-0.0138414166867733,0.0015970865497365594,-0.005589802749454975
18341389947362,4.294000625610352,-6.722918510437012,6.074089527130127,-0.010647243820130825,-0.005057440605014563,-0.006122165359556675
18341391184662,4.286818027496338,-6.712144374847412,6.057330131530762,-0.01171196810901165,-0.0029279920272529125,-0.00452507846057415
18341392421962,4.305971622467041,-6.703764915466309,6.112397193908691,-0.012510511092841625,0.0002661811013240367,-0.0021294488105922937
18341393659250,4.333505153656006,-6.7061591148376465,6.076483726501465,-0.0114457868039608,-0.0015970865497365594,-0.0010647244052961469
18341394896550,4.305971622467041,-6.752845764160156,6.084863662719727,-0.012776692397892475,-0.0013309054775163531,0.0018632676219567657
18341396133862,4.284423828125,-6.6846113204956055,6.048950672149658,-0.0138414166867733,-0.0026618109550327063,-0.0015970865497365594
18341397371162,4.322731018066406,-6.6846113204956055,6.0597243309021,-0.01171196810901165,-0.006122165359556675,-0.0015970865497365594
18341398608437,4.310760021209717,-6.694188117980957,6.0884552001953125,-0.01117960549890995,-0.0010647244052961469,0.0037265352439135313
18341399845725,4.285621166229248,-6.66904878616333,6.112397193908691,-0.01117960549890995,-0.0010647244052961469,0.0013309054775163531
18341401083025,4.326322555541992,-6.697779178619385,6.0417680740356445,-0.01463996060192585,-0.0007985432748682797,0.0002661811013240367
18341402320325,4.311957359313965,-6.685808181762695,6.069301128387451,-0.00931633822619915,0.005057440605014563,0.006122165359556675
18341403557612,4.290409564971924,-6.67982292175293,6.071695327758789,-0.007453070487827063,0.0005323622026480734,0.004791259765625
18341404794912,4.289212226867676,-6.673837184906006,6.04775333404541,-0.0071868896484375,-0.0010647244052961469,0.0031941730994731188
18341406032200,4.311957359313965,-6.709750175476074,6.0405707359313965,-0.007985432632267475,0.0018632676219567657,0.005589802749454975
18341407269500,4.309563159942627,-6.645106792449951,6.050147533416748,-0.010381062515079975,-0.0015970865497365594,0.008517795242369175
18341408506800,4.3179426193237305,-6.62355899810791,6.054935932159424,-0.01224433071911335,-0.0002661811013240367,0.008783976547420025
18341409744087,4.314351558685303,-6.6594719886779785,6.069301128387451,-0.0138414166867733,-0.007985432632267475,0.0021294488105922937
18341410981387,4.333505153656006,-6.661866188049316,6.051344871520996,-0.01117960549890995,-0.0039927163161337376,0.0077192517928779125
18341412218675,4.309563159942627,-6.660669326782227,6.04775333404541,-0.0053236219100654125,-0.0007985432748682797,0.008517795242369175
18341413455987,4.301183223724365,-6.666654586791992,6.074089527130127,-0.004791259765625,-0.0039927163161337376,0.01410759799182415
18341414693262,4.3179426193237305,-6.677428722381592,6.086061000823975,-0.0090501569211483,-0.005057440605014563,0.01224433071911335
18341415930575,4.334702014923096,-6.67982292175293,6.053739070892334,-0.005057440605014563,-0.004791259765625,0.008251613937318325
18341417167875,4.3191399574279785,-6.629544734954834,6.057330131530762,-0.006122165359556675,-0.0119781494140625,0.007985432632267475
18341418405175,4.316745758056641,-6.666654586791992,6.04655647277832,-0.0077192517928779125,-0.008517795242369175,0.010381062515079975
18341419642462,4.303577423095703,-6.642712593078613,6.068104267120361,-0.008517795242369175,-0.0063883461989462376,0.010913425125181675
18341420879750,4.313154220581055,-6.633135795593262,6.027402877807617,-0.0039927163161337376,-0.007453070487827063,0.01117960549890995
18341422117062,4.341884613037109,-6.661866188049316,6.0633158683776855,-0.0029279920272529125,-0.010381062515079975,0.01117960549890995
18341423354325,4.2975921630859375,-6.673837184906006,6.032191276550293,-0.0066545275039970875,-0.012776692397892475,0.010647243820130825
18341424591650,4.309563159942627,-6.6594719886779785,6.034585475921631,-0.0039927163161337376,-0.00958251953125,0.008251613937318325
18341425828925,4.327519416809082,-6.689399719238281,6.050147533416748,-0.0066545275039970875,-0.010381062515079975,0.00984870083630085
18341427066225,4.353855609893799,-6.691793918609619,6.083666801452637,-0.008517795242369175,-0.0090501569211483,0.013042873702943325
18341428303537,4.351461410522461,-6.6594719886779785,6.01303768157959,-0.005855984054505825,-0.012510511092841625,0.01117960549890995
18341429540812,4.358644008636475,-6.677428722381592,6.060921669006348,-0.008783976547420025,-0.01410759799182415,0.01117960549890995
18341430778125,4.394557476043701,-6.670246124267578,6.051344871520996,-0.004791259765625,-0.010913425125181675,0.01171196810901165
18341432015412,4.347870349884033,-6.665457725524902,6.0202202796936035,-0.0077192517928779125,-0.007453070487827063,0.013309055007994175
18341433252712,4.349067211151123,-6.664260387420654,6.009446144104004,-0.007985432632267475,-0.0114457868039608,0.0063883461989462376
18341434489987,4.341884613037109,-6.697779178619385,6.096834659576416,-0.010913425125181675,-0.01357523538172245,0.013042873702943325
18341435727300,4.353855609893799,-6.672640323638916,6.0872578620910645,-0.007453070487827063,-0.01224433071911335,0.014906140975654125
18341436964600,4.381389141082764,-6.654683589935303,6.075286865234375,-0.007985432632267475,-0.00931633822619915,0.010381062515079975
18341438201875,4.349067211151123,-6.636727333068848,6.074089527130127,-0.0053236219100654125,-0.01783413253724575,0.0138414166867733
18341439439200,4.346673011779785,-6.657077789306641,6.117185592651367,-0.005855984054505825,-0.01463996060192585,0.01597086526453495
18341440676475,4.343081951141357,-6.6379241943359375,6.054935932159424,-0.0066545275039970875,-0.012776692397892475,0.01171196810901165
18341441913787,4.335899353027344,-6.641515731811523,6.0597243309021,-0.0037265352439135313,-0.013042873702943325,0.0071868896484375
18341443151075,4.373009204864502,-6.654683589935303,6.096834659576416,-0.005057440605014563,-0.0191650390625,0.01171196810901165
18341444388375,4.378994941711426,-6.599617004394531,6.075286865234375,-0.0029279920272529125,-0.02182685025036335,0.01357523538172245
18341445625650,4.346673011779785,-6.631938934326172,6.084863662719727,0.0005323622026480734,-0.0181003138422966,0.0114457868039608
18341446862962,4.321534156799316,-6.606799602508545,6.094440460205078,-0.0002661811013240367,-0.01889885775744915,0.013042873702943325
18341448100250,4.344278812408447,-6.5744781494140625,6.075286865234375,-0.0010647244052961469,-0.01756795309484005,0.0167694091796875
18341449337550,4.355052947998047,-6.58884334564209,6.0597243309021,0.0042588976211845875,-0.0186326764523983,0.01783413253724575
18341450574850,4.3861775398254395,-6.611588001251221,6.054935932159424,0.006122165359556675,-0.0220930315554142,0.0162370465695858
18341451812137,4.32871675491333,-6.602011203765869,6.077681064605713,0.005057440605014563,-0.0228915736079216,0.01650322787463665
18341453049412,4.303577423095703,-6.57806921005249,6.074089527130127,0.0037265352439135313,-0.02315775491297245,0.0186326764523983
18341454286725,4.316745758056641,-6.599617004394531,6.064512729644775,0.004791259765625,-0.0167694091796875,0.01889885775744915
18341455524012,4.356249809265137,-6.567295074462891,6.089652061462402,0.005589802749454975,-0.01463996060192585,0.015172322280704975
18341456761312,4.338293552398682,-6.563704013824463,6.064512729644775,0.00452507846057415,-0.0234239362180233,0.0210283063352108
18341457998625,4.32991361618042,-6.579266548156738,6.044162273406982,0.0090501569211483,-0.02369011752307415,0.01996358297765255
18341459235900,4.357447147369385,-6.587646007537842,6.096834659576416,0.010647243820130825,-0.0258195661008358,0.0181003138422966
18341460473200,4.322731018066406,-6.593631744384766,6.094440460205078,0.013309055007994175,-0.02422248013317585,0.0247548408806324
18341461710500,4.321534156799316,-6.593631744384766,6.094440460205078,0.01756795309484005,-0.0196974016726017,0.0215606689453125
18341462947787,4.311957359313965,-6.611588001251221,6.074089527130127,0.02182685025036335,-0.02076212503015995,0.0244886614382267
18341464185087,4.334702014923096,-6.592434406280518,6.089652061462402,0.01650322787463665,-0.0228915736079216,0.023956298828125
18341465422387,4.323928356170654,-6.621164798736572,6.100426197052002,0.01703559048473835,-0.02901373989880085,0.02848137728869915
18341466659675,4.3406877517700195,-6.621164798736572,6.093243598937988,0.02315775491297245,-0.0311431884765625,0.03087700717151165
18341467896975,4.3179426193237305,-6.593631744384766,6.112397193908691,0.02022976242005825,-0.0252872034907341,0.0252872034907341
18341469134275,4.314351558685303,-6.633135795593262,6.09084939956665,0.01836649514734745,-0.02661811001598835,0.0300784632563591
18341470371587,4.327519416809082,-6.654683589935303,6.127959251403809,0.02262539230287075,-0.02741665206849575,0.0324740931391716
18341471608862,4.278438568115234,-6.629544734954834,6.080075263977051,0.023956298828125,-0.0220930315554142,0.02874755859375
18341472846162,4.32871675491333,-6.598420143127441,6.129156589508057,0.02741665206849575,-0.02901373989880085,0.0295461006462574
18341474083450,4.289212226867676,-6.606799602508545,6.111199855804443,0.0252872034907341,-0.0282151959836483,0.0343373604118824
18341475320750,4.322731018066406,-6.628347396850586,6.114791393280029,0.0276828333735466,-0.0258195661008358,0.0346035435795784
18341476558062,4.331110954284668,-6.629544734954834,6.145915985107422,0.02981228195130825,-0.0306108258664608,0.0364668108522892
18341477795337,4.2951979637146,-6.652289390563965,6.084863662719727,0.02874755859375,-0.02794901467859745,0.0409918874502182
18341479032637,4.292803764343262,-6.666654586791992,6.09204626083374,0.03087700717151165,-0.0258195661008358,0.0364668108522892
18341480269925,4.253299236297607,-6.700173377990723,6.089652061462402,0.02661811001598835,-0.02555338479578495,0.0354020856320858
18341481507225,4.262876033782959,-6.695384979248047,6.069301128387451,0.02661811001598835,-0.0234239362180233,0.0409918874502182
18341482744525,4.2544965744018555,-6.664260387420654,6.100426197052002,0.02369011752307415,-0.02608574740588665,0.0391286201775074
18341483981812,4.261679172515869,-6.700173377990723,6.125565052032471,0.0244886614382267,-0.02741665206849575,0.0404595248401165
18341485219112,4.248510837554932,-6.677428722381592,6.142324447631836,0.0247548408806324,-0.023956298828125,0.0420566126704216
18341486456425,4.255693435668945,-6.720524311065674,6.10282039642334,0.02502102218568325,-0.02608574740588665,0.0375315360724926
18341487693700,4.246116638183594,-6.707355976104736,6.09084939956665,0.02741665206849575,-0.02315775491297245,0.042855154722929
18341488931000,4.224568843841553,-6.715735912322998,6.118382453918457,0.02422248013317585,-0.02555338479578495,0.0452507846057415
18341490168312,4.226963043212891,-6.738480567932129,6.144718647003174,0.02874755859375,-0.02369011752307415,0.043121337890625
18341491405600,4.2509050369262695,-6.737283706665039,6.10401725769043,0.03034464456140995,-0.0220930315554142,0.0412580706179142
18341492642912,4.256890773773193,-6.76002836227417,6.120776653289795,0.02555338479578495,-0.0252872034907341,0.0385962575674057
18341493880187,4.214992046356201,-6.732495307922363,6.139930248260498,0.02502102218568325,-0.02981228195130825,0.0412580706179142
18341495117462,4.197035789489746,-6.755239963531494,6.156689643859863,0.02901373989880085,-0.0271504707634449,0.0460493303835392
18341496354775,4.195838451385498,-6.730101108551025,6.1088056564331055,0.02794901467859745,-0.01996358297765255,0.0436537005007267
18341497592062,4.219780445098877,-6.761225700378418,6.093243598937988,0.02422248013317585,-0.0228915736079216,0.0471140518784523
18341498829362,4.224568843841553,-6.782773494720459,6.077681064605713,0.02502102218568325,-0.02022976242005825,0.0465816929936409
18341500066662,4.194641590118408,-6.736086368560791,6.139930248260498,0.02262539230287075,-0.0181003138422966,0.0465816929936409
18341501303950,4.223371982574463,-6.777985095977783,6.13633918762207,0.023956298828125,-0.02262539230287075,0.0487111397087574
18341502541275,4.243722438812256,-6.768408298492432,6.1088056564331055,0.02555338479578495,-0.02182685025036335,0.0484449602663517
18341503778562,4.188655853271484,-6.738480567932129,6.069301128387451,0.0228915736079216,-0.0215606689453125,0.0495096817612648
18341505015862,4.181473255157471,-6.728903770446777,6.099228858947754,0.01943122036755085,-0.01410759799182415,0.0497758649289608
18341506253137,4.2078094482421875,-6.742072105407715,6.125565052032471,0.01996358297765255,-0.0162370465695858,0.0444522425532341
18341507490437,4.218583583831787,-6.728903770446777,6.145915985107422,0.0204959437251091,-0.01783413253724575,0.042855154722929
18341508727737,4.2090067863464355,-6.780379295349121,6.120776653289795,0.01996358297765255,-0.0191650390625,0.0444522425532341
18341509965025,4.19344425201416,-6.76002836227417,6.159083843231201,0.01783413253724575,-0.0157046839594841,0.0441860631108284
18341511202325,4.139575004577637,-6.734889507293701,6.1315507888793945,0.0167694091796875,-0.015172322280704975,0.0489773228764534
18341512439600,4.188655853271484,-6.7025675773620605,6.082469463348389,0.015438503585755825,-0.00984870083630085,0.0449846051633358
18341513676912,4.181473255157471,-6.754043102264404,6.13633918762207,0.01836649514734745,-0.010381062515079975,0.0460493303835392
18341514914212,4.181473255157471,-6.737283706665039,6.114791393280029,0.02262539230287075,-0.0186326764523983,0.0455169677734375
18341516151512,4.182670593261719,-6.733692169189453,6.157886981964111,0.0162370465695858,-0.0196974016726017,0.0484449602663517
18341517388800,4.171896457672119,-6.721721172332764,6.080075263977051,0.015172322280704975,-0.013042873702943325,0.0460493303835392
18341518626112,4.1874589920043945,-6.707355976104736,6.135141849517822,0.014373779296875,-0.0162370465695858,0.0425889752805233
18341519863400,4.183867454528809,-6.752845764160156,6.162675380706787,0.0162370465695858,-0.014373779296875,0.0412580706179142
18341521100687,4.199429988861084,-6.7061591148376465,6.135141849517822,0.012776692397892475,-0.01357523538172245,0.0404595248401165
18341522337987,4.188655853271484,-6.7025675773620605,6.120776653289795,0.00984870083630085,-0.01171196810901165,0.0423227921128273
18341523575300,4.188655853271484,-6.736086368560791,6.121973991394043,0.0162370465695858,-0.010114881210029125,0.0444522425532341
18341524812600,4.156334400177002,-6.736086368560791,6.180631637573242,0.0167694091796875,-0.00958251953125,0.0399271659553051
18341526049875,4.174290657043457,-6.737283706665039,6.1315507888793945,0.008783976547420025,-0.0071868896484375,0.0401933453977108
18341527287175,4.1874589920043945,-6.690596580505371,6.120776653289795,0.0066545275039970875,-0.00692070834338665,0.0399271659553051
18341528524462,4.15872859954834,-6.710947513580322,6.167463779449463,0.014373779296875,-0.010381062515079975,0.0377977155148983
18341529761750,4.199429988861084,-6.682217121124268,6.143521785736084,0.015438503585755825,-0.008783976547420025,0.0375315360724926
18341530999050,4.180276393890381,-6.718130111694336,6.169857978820801,0.01703559048473835,-0.0071868896484375,0.0417904332280159
18341532236350,4.132391929626465,-6.716932773590088,6.163872241973877,0.014906140975654125,-0.007985432632267475,0.038063894957304
18341533473650,4.1874589920043945,-6.71334171295166,6.1519012451171875,0.014373779296875,-0.0138414166867733,0.0369991734623909
18341534710925,4.161122798919678,-6.677428722381592,6.172252178192139,0.013042873702943325,-0.0042588976211845875,0.0362006276845932
18341535948237,4.14795446395874,-6.712144374847412,6.147112846374512,0.008517795242369175,0.0,0.0372653529047966
18341537185537,4.168305397033691,-6.7025675773620605,6.112397193908691,0.012776692397892475,-0.008517795242369175,0.0375315360724926
18341538422825,4.1874589920043945,-6.730101108551025,6.191405773162842,0.01463996060192585,-0.0053236219100654125,0.0319417305290699
18341539660125,4.1874589920043945,-6.728903770446777,6.162675380706787,0.010381062515079975,-0.0007985432748682797,0.0338049978017807
18341540897425,4.181473255157471,-6.750451564788818,6.1519012451171875,0.008251613937318325,0.0007985432748682797,0.0362006276845932
18341542134712,4.153940200805664,-6.7265095710754395,6.180631637573242,0.00931633822619915,-0.0013309054775163531,0.0351359061896801
18341543372000,4.174290657043457,-6.731297969818115,6.160281181335449,0.008251613937318325,-0.0002661811013240367,0.0362006276845932
18341544609312,4.1443634033203125,-6.774393558502197,6.118382453918457,0.007985432632267475,-0.0031941730994731188,0.0372653529047966
18341545846600,4.150348663330078,-6.756437301635742,6.185420036315918,0.00692070834338665,-0.006122165359556675,0.0372653529047966
18341547083900,4.14675760269165,-6.724115371704102,6.184223175048828,0.003460354171693325,-0.0066545275039970875,0.033272635191679
18341548321187,4.1180267333984375,-6.738480567932129,6.2201361656188965,0.008251613937318325,-0.0039927163161337376,0.0354020856320858
18341549558475,4.1156325340271,-6.709750175476074,6.14950704574585,0.010381062515079975,0.0005323622026480734,0.033538818359375
18341550795775,4.084507942199707,-6.678625583648682,6.114791393280029,0.00692070834338665,-0.0002661811013240367,0.033538818359375
18341552033062,4.15872859954834,-6.71334171295166,6.112397193908691,0.008251613937318325,-0.0013309054775163531,0.0330064557492733
18341553270375,4.15992546081543,-6.6846113204956055,6.157886981964111,0.0039927163161337376,0.0053236219100654125,0.0316755510866642
18341554507662,4.163516998291016,-6.657077789306641,6.1519012451171875,0.0026618109550327063,0.0015970865497365594,0.0319417305290699
18341555744950,4.163516998291016,-6.647500991821289,6.135141849517822,0.00931633822619915,0.0010647244052961469,0.038330078125
18341556982250,4.14675760269165,-6.629544734954834,6.141127586364746,0.010647243820130825,0.0029279920272529125,0.0356682650744915
18341558219537,4.155137062072754,-6.648698329925537,6.1770405769348145,0.0071868896484375,0.0,0.03034464456140995
18341559456862,4.173093795776367,-6.602011203765869,6.143521785736084,0.00692070834338665,0.0039927163161337376,0.0322079136967659
18341560694125,4.151546001434326,-6.666654586791992,6.121973991394043,0.01171196810901165,0.0013309054775163531,0.0306108258664608
18341561931450,4.171896457672119,-6.676231384277344,6.133944988250732,0.0119781494140625,0.0005323622026480734,0.03087700717151165
18341563168712,4.080916881561279,-6.685808181762695,6.1519012451171875,0.01224433071911335,0.0023956298828125,0.0324740931391716
18341564406037,4.10246467590332,-6.67982292175293,6.165069580078125,0.01410759799182415,0.0037265352439135313,0.0356682650744915
18341565643325,4.121618270874023,-6.708553314208984,6.154295444488525,0.014906140975654125,0.0010647244052961469,0.0391286201775074
18341566880612,4.135983467102051,-6.700173377990723,6.135141849517822,0.01171196810901165,0.0015970865497365594,0.0367329902946949
18341568117925,4.189853191375732,-6.685808181762695,6.178237438201904,0.0138414166867733,0.0007985432748682797,0.0292799212038517
18341569355225,4.0976762771606445,-6.695384979248047,6.150704383850098,0.01756795309484005,0.0037265352439135313,0.02874755859375
18341570592500,4.126406669616699,-6.7480573654174805,6.123170852661133,0.014373779296875,0.006122165359556675,0.0343373604118824
18341571829800,4.1192240715026855,-6.721721172332764,6.174646377563477,0.01650322787463665,0.0053236219100654125,0.0359344482421875
18341573067100,4.1192240715026855,-6.730101108551025,6.1519012451171875,0.0167694091796875,0.0,0.0346035435795784
18341574304387,4.132391929626465,-6.730101108551025,6.115988254547119,0.0157046839594841,0.0031941730994731188,0.0362006276845932
18341575541700,4.091690540313721,-6.744466304779053,6.1315507888793945,0.01357523538172245,0.007985432632267475,0.0369991734623909
18341576779000,4.113238334655762,-6.768408298492432,6.156689643859863,0.005057440605014563,0.00931633822619915,0.0338049978017807
18341578016287,4.122815132141113,-6.766014099121094,6.160281181335449,0.00984870083630085,0.0037265352439135313,0.0388624407351017
18341579253587,4.1156325340271,-6.750451564788818,6.143521785736084,0.01703559048473835,-0.0021294488105922937,0.0423227921128273
18341580490887,4.141969203948975,-6.764816761016846,6.106411457061768,0.0162370465695858,0.0037265352439135313,0.033538818359375
18341581728162,4.1443634033203125,-6.766014099121094,6.117185592651367,0.00692070834338665,0.007453070487827063,0.0343373604118824
18341582965450,4.125209331512451,-6.773196697235107,6.096834659576416,0.00931633822619915,0.0066545275039970875,0.0340711809694767
18341584202762,4.140771865844727,-6.767210960388184,6.066906929016113,0.0077192517928779125,0.006122165359556675,0.02981228195130825
18341585440050,4.1192240715026855,-6.7911529541015625,6.172252178192139,0.0053236219100654125,0.00984870083630085,0.02369011752307415
18341586677362,4.133589267730713,-6.789956092834473,6.162675380706787,0.0023956298828125,0.010114881210029125,0.0252872034907341
18341587914662,4.084507942199707,-6.810306549072266,6.10282039642334,0.0031941730994731188,0.008517795242369175,0.02661811001598835
18341589151950,4.098873138427734,-6.795941352844238,6.105214595794678,0.0037265352439135313,0.0071868896484375,0.0268842913210392
18341590389237,4.122815132141113,-6.822278022766113,6.10282039642334,0.0021294488105922937,0.010913425125181675,0.0204959437251091
18341591626537,4.086902141571045,-6.813898086547852,6.120776653289795,-0.0037265352439135313,0.00984870083630085,0.01783413253724575
18341592863837,4.089296340942383,-6.803123950958252,6.147112846374512,0.0023956298828125,0.012776692397892475,0.01943122036755085
18341594101112,4.104858875274658,-6.8043212890625,6.093243598937988,0.0,0.0037265352439135313,0.014906140975654125
18341595338412,4.125209331512451,-6.8043212890625,6.095637798309326,-0.00452507846057415,0.006122165359556675,0.013309055007994175
18341596575700,4.104858875274658,-6.830657482147217,6.145915985107422,-0.005589802749454975,0.015438503585755825,0.01171196810901165
18341597813025,4.113238334655762,-6.800729751586914,6.127959251403809,-0.007453070487827063,0.013042873702943325,0.010913425125181675
18341599050312,4.078522682189941,-6.803123950958252,6.135141849517822,-0.010114881210029125,0.012776692397892475,0.010647243820130825
18341600287612,4.086902141571045,-6.799532890319824,6.1303534507751465,-0.008517795242369175,0.010913425125181675,0.0077192517928779125
18341601524887,4.065354347229004,-6.810306549072266,6.098031997680664,-0.013042873702943325,0.010114881210029125,0.0037265352439135313
18341602762187,4.138377666473389,-6.788758754730225,6.126762390136719,-0.012776692397892475,0.01117960549890995,0.0013309054775163531
18341603999487,4.127603530883789,-6.801927089691162,6.145915985107422,-0.008783976547420025,0.01410759799182415,0.005855984054505825
18341605236775,4.112041473388672,-6.744466304779053,6.123170852661133,-0.008251613937318325,0.0181003138422966,-0.0010647244052961469
18341606474087,4.155137062072754,-6.724115371704102,6.121973991394043,-0.01597086526453495,0.015438503585755825,-0.0005323622026480734
18341607711362,4.116829872131348,-6.768408298492432,6.13633918762207,-0.010913425125181675,0.013309055007994175,0.0029279920272529125
18341608948662,4.151546001434326,-6.752845764160156,6.095637798309326,-0.013042873702943325,0.010913425125181675,-0.0023956298828125
18341610185962,4.149151802062988,-6.755239963531494,6.163872241973877,-0.01224433071911335,0.010381062515079975,-0.0053236219100654125
18341611423250,4.163516998291016,-6.775590896606445,6.133944988250732,-0.012510511092841625,0.015172322280704975,-0.0039927163161337376
18341612660550,4.141969203948975,-6.724115371704102,6.132747650146484,-0.01171196810901165,0.01224433071911335,-0.003460354171693325
18341613897850,4.145560264587402,-6.701370716094971,6.117185592651367,-0.014906140975654125,0.012510511092841625,-0.0018632676219567657
18341615135162,4.137180805206299,-6.712144374847412,6.094440460205078,-0.01224433071911335,0.0162370465695858,-0.0013309054775163531
18341616372437,4.153940200805664,-6.703764915466309,6.142324447631836,-0.0114457868039608,0.01117960549890995,-0.005057440605014563
18341617609737,4.14675760269165,-6.643909931182861,6.095637798309326,-0.01597086526453495,0.013042873702943325,-0.005855984054505825
18341618847025,4.138377666473389,-6.6391215324401855,6.111199855804443,-0.008517795242369175,0.010913425125181675,-0.0029279920272529125
18341620084337,4.14795446395874,-6.652289390563965,6.115988254547119,-0.00958251953125,0.00958251953125,-0.005589802749454975
18341621321625,4.126406669616699,-6.672640323638916,6.129156589508057,-0.010114881210029125,0.01410759799182415,-0.005057440605014563
18341622558912,4.171896457672119,-6.665457725524902,6.1088056564331055,-0.01224433071911335,0.01463996060192585,-0.0063883461989462376
18341623796212,4.139575004577637,-6.665457725524902,6.086061000823975,-0.0071868896484375,0.0157046839594841,-0.0037265352439135313
18341625033512,4.155137062072754,-6.6630635261535645,6.0884552001953125,-0.01224433071911335,0.01597086526453495,-0.0037265352439135313
18341626270800,4.091690540313721,-6.643909931182861,6.1088056564331055,-0.010381062515079975,0.0167694091796875,-0.004791259765625
18341627508112,4.153940200805664,-6.687005519866943,6.0621185302734375,-0.00984870083630085,0.010913425125181675,-0.0029279920272529125
18341628745387,4.155137062072754,-6.670246124267578,6.099228858947754,-0.0023956298828125,0.010913425125181675,-0.0029279920272529125
18341629982700,4.137180805206299,-6.66785192489624,6.1315507888793945,-0.0018632676219567657,0.012776692397892475,-0.0002661811013240367
18341631220000,4.150348663330078,-6.682217121124268,6.114791393280029,-0.0013309054775163531,0.014906140975654125,-0.0031941730994731188
18341632457287,4.145560264587402,-6.691793918609619,6.074089527130127,-0.003460354171693325,0.01463996060192585,-0.0037265352439135313
18341633694575,4.138377666473389,-6.685808181762695,6.057330131530762,-0.00692070834338665,0.01597086526453495,-0.0026618109550327063
18341634931887,4.152742862701416,-6.67982292175293,6.053739070892334,-0.0071868896484375,0.012776692397892475,-0.006122165359556675
18341636169162,4.135983467102051,-6.696582317352295,6.13753604888916,-0.0029279920272529125,0.01597086526453495,-0.0015970865497365594
18341637406487,4.131195068359375,-6.712144374847412,6.123170852661133,-0.00452507846057415,0.014906140975654125,-0.0029279920272529125
18341638643750,4.141969203948975,-6.6810197830200195,6.082469463348389,-0.00931633822619915,0.01117960549890995,-0.0066545275039970875
18341639881062,4.121618270874023,-6.700173377990723,6.0884552001953125,-0.00452507846057415,0.010913425125181675,-0.007985432632267475
18341641118362,4.168305397033691,-6.703764915466309,6.0884552001953125,-0.0042588976211845875,0.012510511092841625,-0.0119781494140625
18341642355637,4.2090067863464355,-6.731297969818115,6.112397193908691,-0.005855984054505825,0.010647243820130825,-0.008251613937318325
18341643592950,4.170699596405029,-6.688202381134033,6.112397193908691,-0.0031941730994731188,0.01224433071911335,-0.008517795242369175
18341644830225,4.162319660186768,-6.703764915466309,6.078877925872803,-0.005057440605014563,0.00984870083630085,-0.005589802749454975
18341646067550,4.206612586975098,-6.687005519866943,6.064512729644775,-0.007453070487827063,0.010913425125181675,-0.008517795242369175
18341647304825,4.2293572425842285,-6.670246124267578,6.075286865234375,-0.00452507846057415,0.010114881210029125,-0.0063883461989462376
18341648542125,4.211400985717773,-6.7265095710754395,6.10282039642334,0.0002661811013240367,0.0119781494140625,-0.00958251953125
18341649779412,4.195838451385498,-6.710947513580322,6.101623058319092,-0.0053236219100654125,0.010381062515079975,-0.008251613937318325
18341651016712,4.219780445098877,-6.689399719238281,6.094440460205078,-0.0053236219100654125,0.0119781494140625,-0.008517795242369175
18341652253987,4.210203647613525,-6.672640323638916,6.0597243309021,-0.0029279920272529125,0.01171196810901165,-0.0090501569211483
18341653491287,4.19344425201416,-6.7061591148376465,6.0633158683776855,-0.003460354171693325,0.003460354171693325,-0.00958251953125
18341654728600,4.2329487800598145,-6.698976516723633,6.04775333404541,-0.0026618109550327063,0.010647243820130825,-0.012510511092841625
18341655965887,4.2078094482421875,-6.698976516723633,6.093243598937988,-0.0015970865497365594,0.0119781494140625,-0.0114457868039608
18341657203212,4.170699596405029,-6.690596580505371,6.086061000823975,-0.003460354171693325,0.01171196810901165,-0.01224433071911335
18341658440475,4.2090067863464355,-6.688202381134033,6.0884552001953125,-0.0029279920272529125,0.0162370465695858,-0.00958251953125
18341659677775,4.211400985717773,-6.654683589935303,6.01303768157959,-0.0023956298828125,0.01463996060192585,-0.0167694091796875
18341660915075,4.210203647613525,-6.603208541870117,6.081272602081299,0.0,0.010913425125181675,-0.0138414166867733
18341662152375,4.244919776916504,-6.636727333068848,6.084863662719727,-0.0023956298828125,0.007985432632267475,-0.00958251953125
18341663389675,4.188655853271484,-6.640318393707275,6.10282039642334,-0.0002661811013240367,0.0031941730994731188,-0.008517795242369175
18341664626962,4.217386245727539,-6.628347396850586,6.094440460205078,0.00452507846057415,0.0023956298828125,-0.010647243820130825
18341665864262,4.228160381317139,-6.6630635261535645,6.077681064605713,0.0013309054775163531,0.0031941730994731188,-0.012776692397892475
18341667101562,4.235342979431152,-6.670246124267578,6.039373874664307,-0.0013309054775163531,0.008783976547420025,-0.010913425125181675
18341668338837,4.206612586975098,-6.642712593078613,6.05852746963501,0.0042588976211845875,0.005589802749454975,-0.007453070487827063
18341669576150,4.169502258300781,-6.666654586791992,6.05852746963501,0.00452507846057415,0.0037265352439135313,-0.01171196810901165
18341670813425,4.242525577545166,-6.649895191192627,6.09204626083374,0.0018632676219567657,0.006122165359556675,-0.01224433071911335
18341672050725,4.214992046356201,-6.6175737380981445,6.080075263977051,0.0023956298828125,0.0029279920272529125,-0.0114457868039608
18341673288037,4.180276393890381,-6.63433313369751,6.099228858947754,0.0023956298828125,0.0071868896484375,-0.014906140975654125
18341674525325,4.230554580688477,-6.640318393707275,6.068104267120361,0.0026618109550327063,0.0090501569211483,-0.0157046839594841
18341675762612,4.201824188232422,-6.671442985534668,6.022614479064941,0.0071868896484375,0.0037265352439135313,-0.01597086526453495
18341676999900,4.19224739074707,-6.6355299949646,6.074089527130127,0.005855984054505825,0.0037265352439135313,-0.01357523538172245
18341678237225,4.253299236297607,-6.675034523010254,6.048950672149658,0.003460354171693325,0.004791259765625,-0.01224433071911335
18341679474487,4.2544965744018555,-6.6391215324401855,6.0872578620910645,0.006122165359556675,0.0037265352439135313,-0.01171196810901165
18341680711800,4.23773717880249,-6.612785339355469,6.09204626083374,0.0090501569211483,0.00452507846057415,-0.0167694091796875
18341681949100,4.23773717880249,-6.649895191192627,6.072892665863037,0.00958251953125,0.004791259765625,-0.01943122036755085
18341683186387,4.2329487800598145,-6.606799602508545,6.068104267120361,0.0119781494140625,0.0007985432748682797,-0.0173017717897892
18341684423712,4.213795185089111,-6.629544734954834,6.082469463348389,0.0090501569211483,0.0042588976211845875,-0.01357523538172245
18341685660975,4.258087635040283,-6.672640323638916,6.100426197052002,0.0114457868039608,0.0063883461989462376,-0.0157046839594841
18341686898262,4.222174644470215,-6.600814342498779,6.066906929016113,0.0119781494140625,0.003460354171693325,-0.0196974016726017
18341688135575,4.23893404006958,-6.6355299949646,6.070498466491699,0.0114457868039608,0.0037265352439135313,-0.02076212503015995
18341689372862,4.259284973144531,-6.612785339355469,6.064512729644775,0.012510511092841625,0.0021294488105922937,-0.0181003138422966
18341690610150,4.210203647613525,-6.6379241943359375,6.077681064605713,0.015438503585755825,-0.003460354171693325,-0.0220930315554142
18341691847475,4.262876033782959,-6.5960259437561035,6.056133270263672,0.013042873702943325,-0.0021294488105922937,-0.01783413253724575
18341693084750,4.288015365600586,-6.627150535583496,6.0597243309021,0.005057440605014563,0.0042588976211845875,-0.02369011752307415
18341694322050,4.270058631896973,-6.611588001251221,6.107608795166016,0.0119781494140625,0.0013309054775163531,-0.0204959437251091
18341695559337,4.266467571258545,-6.615179538726807,6.078877925872803,0.014373779296875,0.0023956298828125,-0.01996358297765255
18341696796637,4.218583583831787,-6.628347396850586,6.042964935302734,0.0173017717897892,-0.0053236219100654125,-0.0191650390625
18341698033937,4.265270233154297,-6.62355899810791,6.10282039642334,0.014906140975654125,-0.0007985432748682797,-0.0191650390625
18341699271237,4.2329487800598145,-6.610391139984131,6.10401725769043,0.015438503585755825,0.0029279920272529125,-0.01996358297765255
18341700508537,4.256890773773193,-6.657077789306641,6.101623058319092,0.01889885775744915,-0.0002661811013240367,-0.0191650390625
18341701745837,4.228160381317139,-6.66904878616333,6.081272602081299,0.0210283063352108,-0.0002661811013240367,-0.0215606689453125
18341702983125,4.223371982574463,-6.629544734954834,6.095637798309326,0.02129448764026165,-0.008517795242369175,-0.02315775491297245
18341704220412,4.260481834411621,-6.66785192489624,6.09084939956665,0.01943122036755085,-0.0053236219100654125,-0.0191650390625
18341705457712,4.2975921630859375,-6.692990779876709,6.0621185302734375,0.01943122036755085,-0.004791259765625,-0.0204959437251091
18341706695000,4.246116638183594,-6.6594719886779785,6.09084939956665,0.0220930315554142,-0.00692070834338665,-0.0228915736079216
18341707932312,4.322731018066406,-6.671442985534668,6.1100029945373535,0.0210283063352108,-0.005855984054505825,-0.0181003138422966
18341709169600,4.280832767486572,-6.672640323638916,6.068104267120361,0.02129448764026165,-0.0157046839594841,-0.014906140975654125
18341710406912,4.290409564971924,-6.648698329925537,6.072892665863037,0.0234239362180233,-0.01357523538172245,-0.01597086526453495
18341711644200,4.310760021209717,-6.695384979248047,6.106411457061768,0.0258195661008358,-0.005589802749454975,-0.015438503585755825
18341712881487,4.271255970001221,-6.707355976104736,6.105214595794678,0.0244886614382267,-0.010913425125181675,-0.02076212503015995
18341714118787,4.271255970001221,-6.675034523010254,6.133944988250732,0.02315775491297245,-0.008251613937318325,-0.0173017717897892
18341715356075,4.304774761199951,-6.690596580505371,6.089652061462402,0.02315775491297245,-0.004791259765625,-0.013309055007994175
18341716593375,4.286818027496338,-6.710947513580322,6.129156589508057,0.02182685025036335,-0.005855984054505825,-0.01650322787463665
18341717830675,4.284423828125,-6.676231384277344,6.093243598937988,0.02182685025036335,-0.010381062515079975,-0.01783413253724575
18341719067962,4.305971622467041,-6.701370716094971,6.147112846374512,0.0244886614382267,-0.007453070487827063,-0.0162370465695858
18341720305275,4.266467571258545,-6.701370716094971,6.096834659576416,0.02874755859375,-0.00931633822619915,-0.02129448764026165
18341721542562,4.274847030639648,-6.742072105407715,6.107608795166016,0.0271504707634449,-0.010913425125181675,-0.015172322280704975
18341722779862,4.273650169372559,-6.761225700378418,6.13753604888916,0.02369011752307415,-0.010114881210029125,-0.014373779296875
18341724017150,4.246116638183594,-6.724115371704102,6.127959251403809,0.02794901467859745,-0.01597086526453495,-0.01889885775744915
18341725254450,4.24970817565918,-6.704961776733398,6.126762390136719,0.0220930315554142,-0.014906140975654125,-0.02422248013317585
18341726491750,4.301183223724365,-6.718130111694336,6.112397193908691,0.02422248013317585,-0.013309055007994175,-0.0196974016726017
18341727729037,4.247313976287842,-6.718130111694336,6.100426197052002,0.02422248013317585,-0.01410759799182415,-0.01756795309484005
18341728966350,4.282029628753662,-6.752845764160156,6.115988254547119,0.02848137728869915,-0.0114457868039608,-0.014906140975654125
18341730203625,4.280832767486572,-6.740874767303467,6.121973991394043,0.0252872034907341,-0.013042873702943325,-0.01756795309484005
18341731440937,4.260481834411621,-6.767210960388184,6.1315507888793945,0.02369011752307415,-0.0138414166867733,-0.01650322787463665
18341732678212,4.252102375030518,-6.746860504150391,6.111199855804443,0.02129448764026165,-0.012510511092841625,-0.014906140975654125
18341733915525,4.234145641326904,-6.777985095977783,6.1088056564331055,0.0220930315554142,-0.014373779296875,-0.0157046839594841
18341735152825,4.267664432525635,-6.738480567932129,6.100426197052002,0.0247548408806324,-0.01597086526453495,-0.010381062515079975
18341736390125,4.213795185089111,-6.777985095977783,6.106411457061768,0.0228915736079216,-0.0119781494140625,-0.01650322787463665
18341737627412,4.230554580688477,-6.742072105407715,6.083666801452637,0.0223592109978199,-0.014373779296875,-0.015172322280704975
18341738864687,4.2293572425842285,-6.736086368560791,6.171054840087891,0.0215606689453125,-0.0191650390625,-0.01410759799182415
18341740102000,4.243722438812256,-6.755239963531494,6.14831018447876,0.02369011752307415,-0.012510511092841625,-0.01597086526453495
18341741339287,4.268861770629883,-6.738480567932129,6.1100029945373535,0.0220930315554142,-0.012510511092841625,-0.01410759799182415
18341742576587,4.294000625610352,-6.720524311065674,6.09084939956665,0.01756795309484005,-0.014906140975654125,-0.0157046839594841
18341743813875,4.285621166229248,-6.742072105407715,6.093243598937988,0.0191650390625,-0.0157046839594841,-0.01463996060192585
18341745051175,4.240131378173828,-6.710947513580322,6.114791393280029,0.0204959437251091,-0.00958251953125,-0.0173017717897892
18341746288475,4.258087635040283,-6.7061591148376465,6.099228858947754,0.0204959437251091,-0.012776692397892475,-0.01783413253724575
18341747525762,4.242525577545166,-6.685808181762695,6.127959251403809,0.01703559048473835,-0.0173017717897892,-0.014373779296875
18341748763062,4.258087635040283,-6.710947513580322,6.124368190765381,0.01650322787463665,-0.0157046839594841,-0.0114457868039608
18341750000362,4.265270233154297,-6.685808181762695,6.112397193908691,0.01996358297765255,-0.0138414166867733,-0.01703559048473835
18341751237662,4.210203647613525,-6.672640323638916,6.133944988250732,0.02129448764026165,-0.0138414166867733,-0.01410759799182415
18341752474937,4.260481834411621,-6.670246124267578,6.089652061462402,0.01783413253724575,-0.0196974016726017,-0.013042873702943325
18341753712250,4.23893404006958,-6.631938934326172,6.100426197052002,0.0204959437251091,-0.0157046839594841,-0.014373779296875
18341754949550,4.256890773773193,-6.671442985534668,6.127959251403809,0.0215606689453125,-0.0157046839594841,-0.0138414166867733
18341756186850,4.255693435668945,-6.687005519866943,6.09084939956665,0.01756795309484005,-0.01836649514734745,-0.01410759799182415
18341757424125,4.20421838760376,-6.645106792449951,6.135141849517822,0.0186326764523983,-0.0119781494140625,-0.013042873702943325
18341758661437,4.2329487800598145,-6.649895191192627,6.093243598937988,0.01943122036755085,-0.014906140975654125,-0.010647243820130825
18341759898712,4.255693435668945,-6.671442985534668,6.083666801452637,0.02076212503015995,-0.01463996060192585,-0.008251613937318325
18341761136025,4.211400985717773,-6.673837184906006,6.142324447631836,0.0204959437251091,-0.0173017717897892,-0.010647243820130825
18341762373312,4.235342979431152,-6.6630635261535645,6.120776653289795,0.0181003138422966,-0.0119781494140625,-0.012510511092841625
18341763610625,4.217386245727539,-6.658275127410889,6.1519012451171875,0.01756795309484005,-0.01357523538172245,-0.00958251953125
18341764847900,4.199429988861084,-6.66785192489624,6.150704383850098,0.01703559048473835,-0.0138414166867733,-0.010647243820130825
18341766085200,4.2329487800598145,-6.651092529296875,6.089652061462402,0.0215606689453125,-0.0114457868039608,-0.012510511092841625
18341767322500,4.225766181945801,-6.661866188049316,6.0872578620910645,0.02315775491297245,-0.015172322280704975,-0.0053236219100654125
18341768559787,4.222174644470215,-6.696582317352295,6.077681064605713,0.0244886614382267,-0.0119781494140625,-0.005057440605014563
18341769797075,4.210203647613525,-6.655880928039551,6.1315507888793945,0.0215606689453125,-0.010913425125181675,-0.0119781494140625
18341771034375,4.2509050369262695,-6.672640323638916,6.144718647003174,0.0223592109978199,-0.01410759799182415,-0.01171196810901165
18341772271675,4.246116638183594,-6.649895191192627,6.117185592651367,0.0191650390625,-0.010647243820130825,-0.007985432632267475
18341773508975,4.222174644470215,-6.694188117980957,6.095637798309326,0.0228915736079216,-0.012776692397892475,-0.007453070487827063
18341774746262,4.261679172515869,-6.700173377990723,6.138733386993408,0.023956298828125,-0.010647243820130825,-0.008517795242369175
18341775983562,4.20421838760376,-6.652289390563965,6.166266441345215,0.02129448764026165,-0.0090501569211483,-0.00692070834338665
18341777220862,4.228160381317139,-6.673837184906006,6.135141849517822,0.02502102218568325,-0.01410759799182415,-0.00452507846057415
18341778458150,4.2544965744018555,-6.6630635261535645,6.113594055175781,0.0252872034907341,-0.010114881210029125,-0.0026618109550327063
18341779695475,4.240131378173828,-6.66904878616333,6.1519012451171875,0.02608574740588665,-0.0138414166867733,-0.005589802749454975
18341780932737,4.2293572425842285,-6.66785192489624,6.1530985832214355,0.02901373989880085,-0.01650322787463665,-0.005855984054505825
18341782170050,4.225766181945801,-6.647500991821289,6.132747650146484,0.0295461006462574,-0.014906140975654125,-0.0039927163161337376
18341783407350,4.264073371887207,-6.7265095710754395,6.145915985107422,0.02901373989880085,-0.0138414166867733,-0.0007985432748682797
18341784644637,4.278438568115234,-6.66904878616333,6.156689643859863,0.0244886614382267,-0.014906140975654125,-0.0031941730994731188
18341785881937,4.234145641326904,-6.661866188049316,6.160281181335449,0.02555338479578495,-0.0071868896484375,-0.005855984054505825
18341787119225,4.253299236297607,-6.691793918609619,6.142324447631836,0.02661811001598835,-0.005589802749454975,-0.00931633822619915
18341788356525,4.2329487800598145,-6.719326972961426,6.157886981964111,0.023956298828125,-0.00692070834338665,-0.0029279920272529125
18341789593837,4.258087635040283,-6.6810197830200195,6.159083843231201,0.02555338479578495,-0.010647243820130825,-0.00692070834338665
18341790831112,4.270058631896973,-6.701370716094971,6.10401725769043,0.02315775491297245,-0.00984870083630085,-0.00452507846057415
18341792068412,4.216189384460449,-6.703764915466309,6.127959251403809,0.02076212503015995,-0.0042588976211845875,-0.008251613937318325
18341793305712,4.24970817565918,-6.700173377990723,6.123170852661133,0.0228915736079216,-0.0039927163161337376,-0.005589802749454975
18341794543000,4.259284973144531,-6.697779178619385,6.119579792022705,0.02262539230287075,-0.010913425125181675,0.0013309054775163531
18341795780312,4.240131378173828,-6.731297969818115,6.144718647003174,0.0167694091796875,-0.008251613937318325,-0.003460354171693325
18341797017587,4.236539840698242,-6.724115371704102,6.147112846374512,0.0196974016726017,-0.00984870083630085,-0.0010647244052961469
18341798254887,4.189853191375732,-6.754043102264404,6.142324447631836,0.0215606689453125,-0.010913425125181675,-0.0005323622026480734
18341799492200,4.242525577545166,-6.731297969818115,6.154295444488525,0.0223592109978199,-0.01117960549890995,-0.0023956298828125
18341800729475,4.2329487800598145,-6.700173377990723,6.163872241973877,0.02182685025036335,-0.0090501569211483,-0.005589802749454975
18341801966787,4.2293572425842285,-6.7492547035217285,6.141127586364746,0.01943122036755085,-0.008251613937318325,-0.005855984054505825
18341803204062,4.181473255157471,-6.7935471534729,6.127959251403809,0.02129448764026165,-0.007453070487827063,-0.010647243820130825
18341804441375,4.2090067863464355,-6.783970355987549,6.162675380706787,0.0228915736079216,-0.005057440605014563,-0.00931633822619915
18341805678662,4.2090067863464355,-6.744466304779053,6.1530985832214355,0.01783413253724575,-0.007453070487827063,-0.007453070487827063
18341806915962,4.23773717880249,-6.7492547035217285,6.114791393280029,0.01783413253724575,-0.0039927163161337376,-0.005855984054505825
18341808153250,4.224568843841553,-6.777985095977783,6.139930248260498,0.01943122036755085,-0.0018632676219567657,-0.0090501569211483
18341809390550,4.180276393890381,-6.762422561645508,6.0872578620910645,0.015172322280704975,-0.0037265352439135313,-0.0090501569211483
18341810627850,4.20421838760376,-6.779181957244873,6.141127586364746,0.013309055007994175,-0.0018632676219567657,-0.008517795242369175
18341811865150,4.168305397033691,-6.754043102264404,6.129156589508057,0.01650322787463665,0.0,-0.008783976547420025
18341813102437,4.223371982574463,-6.76002836227417,6.1530985832214355,0.01410759799182415,0.0023956298828125,-0.0066545275039970875
18341814339712,4.228160381317139,-6.730101108551025,6.14831018447876,0.015438503585755825,-0.0018632676219567657,-0.008251613937318325
18341815577025,4.206612586975098,-6.75883150100708,6.098031997680664,0.014906140975654125,-0.0018632676219567657,-0.01224433071911335
18341816814337,4.2078094482421875,-6.76002836227417,6.1100029945373535,0.0138414166867733,-0.0013309054775163531,-0.010913425125181675
18341818051612,4.200626850128174,-6.715735912322998,6.1519012451171875,0.0173017717897892,-0.0005323622026480734,-0.00931633822619915
18341819288925,4.2544965744018555,-6.7480573654174805,6.212953567504883,0.0157046839594841,-0.0013309054775163531,-0.0042588976211845875
18341820526225,4.256890773773193,-6.710947513580322,6.154295444488525,0.012510511092841625,-0.0021294488105922937,-0.004791259765625
18341821763500,4.234145641326904,-6.682217121124268,6.142324447631836,0.015438503585755825,0.0007985432748682797,-0.005057440605014563
18341823000800,4.2329487800598145,-6.7025675773620605,6.143521785736084,0.0138414166867733,0.0015970865497365594,-0.003460354171693325
18341824238100,4.253299236297607,-6.7061591148376465,6.157886981964111,0.01357523538172245,-0.0013309054775163531,-0.004791259765625
18341825475400,4.274847030639648,-6.599617004394531,6.202179431915283,0.013042873702943325,0.0021294488105922937,-0.005589802749454975
18341826712700,4.235342979431152,-6.63433313369751,6.197391033172607,0.010647243820130825,0.0013309054775163531,-0.0037265352439135313
18341827950000,4.286818027496338,-6.677428722381592,6.189011573791504,0.00984870083630085,-0.0026618109550327063,-0.003460354171693325
18341829187287,4.252102375030518,-6.654683589935303,6.163872241973877,0.01224433071911335,-0.0010647244052961469,-0.0026618109550327063
18341830424587,4.256890773773193,-6.6630635261535645,6.192602634429932,0.010381062515079975,0.0021294488105922937,-0.0042588976211845875
18341831661887,4.255693435668945,-6.665457725524902,6.18182897567749,0.012510511092841625,0.0010647244052961469,-0.0005323622026480734
18341832899187,4.271255970001221,-6.649895191192627,6.1100029945373535,0.015172322280704975,0.0029279920272529125,-0.0037265352439135313
18341834136462,4.248510837554932,-6.719326972961426,6.107608795166016,0.01357523538172245,-0.0013309054775163531,-0.0077192517928779125
18341835373762,4.265270233154297,-6.672640323638916,6.168660640716553,0.01357523538172245,-0.0018632676219567657,-0.00692070834338665
18341836611062,4.218583583831787,-6.696582317352295,6.161478042602539,0.01463996060192585,0.0010647244052961469,0.0005323622026480734
18341837848337,4.213795185089111,-6.704961776733398,6.224924564361572,0.0167694091796875,-0.0005323622026480734,0.0010647244052961469
18341839085650,4.213795185089111,-6.691793918609619,6.127959251403809,0.015172322280704975,0.0015970865497365594,0.0021294488105922937
18341840322950,4.222174644470215,-6.761225700378418,6.150704383850098,0.00692070834338665,0.0037265352439135313,-0.006122165359556675
18341841560250,4.252102375030518,-6.766014099121094,6.124368190765381,0.0119781494140625,0.0007985432748682797,-0.0005323622026480734
18341842797537,4.241328239440918,-6.789956092834473,6.118382453918457,0.014373779296875,0.0002661811013240367,-0.0002661811013240367
18341844034837,4.213795185089111,-6.781576156616211,6.118382453918457,0.010913425125181675,0.0013309054775163531,-0.0066545275039970875
18341845272125,4.219780445098877,-6.800729751586914,6.165069580078125,0.0119781494140625,0.0037265352439135313,-0.0071868896484375
18341846509425,4.213795185089111,-6.7923502922058105,6.1770405769348145,0.0066545275039970875,0.0021294488105922937,-0.0077192517928779125
18341847746712,4.212597846984863,-6.785167694091797,6.107608795166016,0.008517795242369175,-0.0013309054775163531,-0.010913425125181675
18341848984012,4.23893404006958,-6.807912349700928,6.141127586364746,0.008251613937318325,-0.0007985432748682797,-0.005855984054505825
18341850221300,4.200626850128174,-6.821080684661865,6.1519012451171875,0.008251613937318325,-0.0013309054775163531,-0.005855984054505825
18341851458612,4.270058631896973,-6.810306549072266,6.1519012451171875,0.008517795242369175,-0.0010647244052961469,0.0
18341852695900,4.217386245727539,-6.764816761016846,6.174646377563477,0.0037265352439135313,0.004791259765625,-0.007985432632267475
18341853933200,4.231751441955566,-6.794744491577148,6.138733386993408,-0.003460354171693325,0.0021294488105922937,-0.014373779296875
18341855170487,4.203021049499512,-6.799532890319824,6.175843238830566,0.0005323622026480734,0.0071868896484375,-0.008783976547420025
18341856407762,4.220977783203125,-6.779181957244873,6.18302583694458,0.0010647244052961469,0.0039927163161337376,-0.010381062515079975
18341857645075,4.23773717880249,-6.789956092834473,6.167463779449463,0.0013309054775163531,0.008251613937318325,-0.01357523538172245
18341858882387,4.235342979431152,-6.807912349700928,6.1530985832214355,0.0023956298828125,0.0053236219100654125,-0.0167694091796875
18341860119662,4.195838451385498,-6.801927089691162,6.14831018447876,-0.0023956298828125,0.0029279920272529125,-0.015438503585755825
18341861356975,4.247313976287842,-6.76002836227417,6.150704383850098,-0.0018632676219567657,-0.0010647244052961469,-0.01357523538172245
18341862594275,4.213795185089111,-6.756437301635742,6.139930248260498,-0.0005323622026480734,0.0021294488105922937,-0.01171196810901165
18341863831562,4.226963043212891,-6.7708024978637695,6.212953567504883,-0.0026618109550327063,0.00692070834338665,-0.013309055007994175
18341865068862,4.180276393890381,-6.750451564788818,6.163872241973877,-0.0015970865497365594,0.005589802749454975,-0.0162370465695858
18341866306150,4.265270233154297,-6.71334171295166,6.157886981964111,0.0,0.008517795242369175,-0.015172322280704975
18341867543450,4.278438568115234,-6.701370716094971,6.14950704574585,-0.0066545275039970875,0.006122165359556675,-0.01224433071911335
18341868780750,4.2329487800598145,-6.733692169189453,6.145915985107422,-0.005855984054505825,0.0026618109550327063,-0.008783976547420025
18341870018037,4.230554580688477,-6.676231384277344,6.1303534507751465,-0.004791259765625,0.004791259765625,-0.012510511092841625
18341871255337,4.247313976287842,-6.682217121124268,6.154295444488525,-0.005057440605014563,0.0077192517928779125,-0.01597086526453495
18341872492625,4.282029628753662,-6.665457725524902,6.1530985832214355,-0.0005323622026480734,0.0063883461989462376,-0.01410759799182415
18341873729925,4.2724528312683105,-6.66904878616333,6.141127586364746,-0.0071868896484375,0.008251613937318325,-0.0119781494140625
18341874967212,4.284423828125,-6.652289390563965,6.135141849517822,-0.0037265352439135313,0.007453070487827063,-0.0157046839594841
18341876204525,4.2760443687438965,-6.636727333068848,6.1315507888793945,-0.0005323622026480734,0.0071868896484375,-0.0228915736079216
18341877441825,4.277241230010986,-6.647500991821289,6.141127586364746,-0.0018632676219567657,0.0063883461989462376,-0.0090501569211483
18341878679112,4.2760443687438965,-6.655880928039551,6.135141849517822,-0.005589802749454975,0.008251613937318325,-0.00931633822619915
18341879916400,4.235342979431152,-6.600814342498779,6.147112846374512,-0.005589802749454975,0.003460354171693325,-0.012510511092841625
18341881153700,4.2509050369262695,-6.613982200622559,6.118382453918457,-0.0007985432748682797,0.010381062515079975,-0.012510511092841625
18341882390987,4.255693435668945,-6.621164798736572,6.125565052032471,-0.0039927163161337376,0.0162370465695858,-0.014373779296875
18341883628300,4.246116638183594,-6.610391139984131,6.107608795166016,-0.0015970865497365594,0.0066545275039970875,-0.01410759799182415
18341884865587,4.240131378173828,-6.615179538726807,6.139930248260498,-0.005589802749454975,0.008517795242369175,-0.012510511092841625
18341886102875,4.182670593261719,-6.602011203765869,6.143521785736084,-0.00452507846057415,0.008783976547420025,-0.012776692397892475
18341887340162,4.247313976287842,-6.643909931182861,6.10282039642334,-0.005855984054505825,0.00931633822619915,-0.0114457868039608
18341888577487,4.244919776916504,-6.62236213684082,6.1530985832214355,-0.0002661811013240367,0.0031941730994731188,-0.01783413253724575
18341889814775,4.195838451385498,-6.618770599365234,6.100426197052002,0.0002661811013240367,0.008251613937318325,-0.0181003138422966
18341891052075,4.235342979431152,-6.624756336212158,6.09084939956665,-0.0023956298828125,0.0066545275039970875,-0.013042873702943325
18341892289362,4.242525577545166,-6.63433313369751,6.101623058319092,-0.0007985432748682797,0.0053236219100654125,-0.015172322280704975
18341893526675,4.2509050369262695,-6.66785192489624,6.117185592651367,0.0031941730994731188,0.004791259765625,-0.015172322280704975
18341894763950,4.282029628753662,-6.648698329925537,6.13753604888916,-0.0005323622026480734,0.004791259765625,-0.02022976242005825
18341896001262,4.267664432525635,-6.661866188049316,6.098031997680664,0.0,0.0066545275039970875,-0.0220930315554142
18341897238537,4.256890773773193,-6.66785192489624,6.174646377563477,0.0005323622026480734,0.008251613937318325,-0.0210283063352108
18341898475837,4.316745758056641,-6.690596580505371,6.184223175048828,-0.0005323622026480734,0.004791259765625,-0.0210283063352108
18341899713137,4.284423828125,-6.703764915466309,6.144718647003174,-0.0031941730994731188,0.0066545275039970875,-0.02422248013317585
18341900950437,4.313154220581055,-6.696582317352295,6.123170852661133,0.0,0.013042873702943325,-0.0234239362180233
18341902187737,4.253299236297607,-6.71453857421875,6.14831018447876,-0.0013309054775163531,0.01117960549890995,-0.02129448764026165
18341903425025,4.2760443687438965,-6.730101108551025,6.1530985832214355,-0.003460354171693325,0.010114881210029125,-0.0276828333735466
18341904662325,4.304774761199951,-6.709750175476074,6.145915985107422,-0.0026618109550327063,0.00984870083630085,-0.02794901467859745
18341905899612,4.288015365600586,-6.673837184906006,6.124368190765381,-0.0037265352439135313,0.010114881210029125,-0.02794901467859745
18341907136925,4.316745758056641,-6.685808181762695,6.127959251403809,-0.0039927163161337376,0.01117960549890995,-0.02874755859375
18341908374212,4.308365821838379,-6.740874767303467,6.162675380706787,-0.0037265352439135313,0.008517795242369175,-0.02661811001598835
18341909611487,4.2963948249816895,-6.739677906036377,6.159083843231201,-0.003460354171693325,0.01171196810901165,-0.0300784632563591
18341910848812,4.28322696685791,-6.71334171295166,6.163872241973877,-0.005057440605014563,0.0090501569211483,-0.02315775491297245
18341912086075,4.290409564971924,-6.7025675773620605,6.139930248260498,-0.0090501569211483,0.013309055007994175,-0.0252872034907341
18341913323387,4.236539840698242,-6.7025675773620605,6.169857978820801,-0.00452507846057415,0.008783976547420025,-0.0322079136967659
18341914560700,4.271255970001221,-6.695384979248047,6.161478042602539,-0.007985432632267475,0.0053236219100654125,-0.0348697230219841
18341915797987,4.243722438812256,-6.696582317352295,6.154295444488525,-0.01357523538172245,0.01224433071911335,-0.038063894957304
18341917035275,4.284423828125,-6.724115371704102,6.138733386993408,-0.00692070834338665,0.01224433071911335,-0.0393948033452034
18341918272600,4.316745758056641,-6.720524311065674,6.162675380706787,-0.0021294488105922937,0.010913425125181675,-0.0340711809694767
18341919509862,4.310760021209717,-6.707355976104736,6.141127586364746,-0.0077192517928779125,0.01171196810901165,-0.02874755859375
18341920747162,4.299986362457275,-6.695384979248047,6.142324447631836,-0.01224433071911335,0.01117960549890995,-0.038063894957304
18341921984475,4.2544965744018555,-6.645106792449951,6.089652061462402,-0.00984870083630085,0.012776692397892475,-0.0338049978017807
18341923221750,4.315548419952393,-6.6594719886779785,6.1088056564331055,-0.007985432632267475,0.014373779296875,-0.0354020856320858
18341924459050,4.322731018066406,-6.6810197830200195,6.126762390136719,-0.0090501569211483,0.00958251953125,-0.0348697230219841
18341925696350,4.246116638183594,-6.673837184906006,6.1088056564331055,-0.0090501569211483,0.0119781494140625,-0.0364668108522892
18341926933650,4.24970817565918,-6.671442985534668,6.156689643859863,-0.005855984054505825,0.014373779296875,-0.0327402763068676
18341928170950,4.264073371887207,-6.665457725524902,6.1088056564331055,-0.008251613937318325,0.0119781494140625,-0.0295461006462574
18341929408225,4.2963948249816895,-6.665457725524902,6.107608795166016,-0.01171196810901165,0.00958251953125,-0.0311431884765625
18341930645525,4.286818027496338,-6.655880928039551,6.106411457061768,-0.0063883461989462376,0.0157046839594841,-0.0300784632563591
18341931882850,4.309563159942627,-6.6391215324401855,6.112397193908691,-0.005589802749454975,0.013309055007994175,-0.0252872034907341
18341933120125,4.279635429382324,-6.649895191192627,6.120776653289795,-0.0114457868039608,0.013309055007994175,-0.02502102218568325
18341934357425,4.284423828125,-6.649895191192627,6.098031997680664,-0.0090501569211483,0.013042873702943325,-0.0276828333735466
18341935594725,4.3191399574279785,-6.649895191192627,6.0884552001953125,-0.005855984054505825,0.02022976242005825,-0.0247548408806324
18341936832012,4.3406877517700195,-6.624756336212158,6.096834659576416,-0.005589802749454975,0.01703559048473835,-0.0263519287109375
18341938069300,4.356249809265137,-6.670246124267578,6.1088056564331055,-0.0077192517928779125,0.015172322280704975,-0.0311431884765625
18341939306612,4.32991361618042,-6.665457725524902,6.123170852661133,-0.008783976547420025,0.01783413253724575,-0.02901373989880085
18341940543900,4.321534156799316,-6.660669326782227,6.142324447631836,-0.0071868896484375,0.01703559048473835,-0.02502102218568325
18341941781212,4.310760021209717,-6.676231384277344,6.1100029945373535,-0.0053236219100654125,0.012776692397892475,-0.0204959437251091
18341943018487,4.326322555541992,-6.6846113204956055,6.0621185302734375,-0.0042588976211845875,0.015438503585755825,-0.01943122036755085
18341944255800,4.308365821838379,-6.666654586791992,6.117185592651367,-0.0053236219100654125,0.01117960549890995,-0.02076212503015995
18341945493087,4.332307815551758,-6.6846113204956055,6.094440460205078,-0.004791259765625,0.01224433071911335,-0.0157046839594841
18341946730375,4.311957359313965,-6.671442985534668,6.14831018447876,-0.0039927163161337376,0.0119781494140625,-0.013042873702943325
18341947967687,4.327519416809082,-6.687005519866943,6.117185592651367,-0.003460354171693325,0.0114457868039608,-0.014906140975654125
18341949204962,4.334702014923096,-6.712144374847412,6.14831018447876,-0.007453070487827063,0.012510511092841625,-0.0138414166867733
18341950442262,4.316745758056641,-6.6810197830200195,6.13753604888916,-0.0037265352439135313,0.01703559048473835,-0.013309055007994175
18341951679562,4.371812343597412,-6.651092529296875,6.1303534507751465,-0.0037265352439135313,0.01756795309484005,-0.0204959437251091
18341952916862,4.358644008636475,-6.6810197830200195,6.118382453918457,-0.0053236219100654125,0.01463996060192585,-0.01357523538172245
18341954154150,4.369418144226074,-6.701370716094971,6.093243598937988,-0.003460354171693325,0.013042873702943325,-0.013042873702943325
18341955391450,4.32871675491333,-6.694188117980957,6.1088056564331055,-0.0026618109550327063,0.013309055007994175,-0.010913425125181675
18341956628750,4.288015365600586,-6.697779178619385,6.118382453918457,-0.0039927163161337376,0.00984870083630085,-0.007985432632267475
18341957866062,4.331110954284668,-6.709750175476074,6.117185592651367,-0.0042588976211845875,0.010647243820130825,-0.0063883461989462376
18341959103337,4.36343240737915,-6.703764915466309,6.068104267120361,-0.0023956298828125,0.012510511092841625,-0.0071868896484375
18341960340637,4.344278812408447,-6.712144374847412,6.10401725769043,-0.005057440605014563,0.012776692397892475,-0.0077192517928779125
18341961577925,4.321534156799316,-6.768408298492432,6.076483726501465,-0.010114881210029125,0.01357523538172245,-0.0018632676219567657
18341962815237,4.327519416809082,-6.700173377990723,6.084863662719727,-0.005855984054505825,0.01463996060192585,-0.0042588976211845875
18341964052525,4.3394904136657715,-6.719326972961426,6.066906929016113,-0.008783976547420025,0.013042873702943325,-0.005589802749454975
18341965289837,4.353855609893799,-6.738480567932129,6.052541732788086,-0.010913425125181675,0.0114457868039608,-0.0071868896484375
18341966527125,4.355052947998047,-6.687005519866943,6.094440460205078,-0.00931633822619915,0.014373779296875,-0.0026618109550327063
18341967764425,4.303577423095703,-6.718130111694336,6.042964935302734,-0.010913425125181675,0.01224433071911335,-0.0002661811013240367
18341969001700,4.327519416809082,-6.704961776733398,6.100426197052002,-0.00958251953125,0.00984870083630085,-0.0026618109550327063
18341970239012,4.332307815551758,-6.700173377990723,6.04655647277832,-0.008783976547420025,0.015172322280704975,-0.0042588976211845875
18341971476300,4.301183223724365,-6.664260387420654,6.051344871520996,-0.0071868896484375,0.01224433071911335,0.0005323622026480734
18341972713600,4.3394904136657715,-6.648698329925537,6.069301128387451,-0.008783976547420025,0.010647243820130825,0.0005323622026480734
18341973950887,4.3622355461120605,-6.685808181762695,6.095637798309326,-0.008251613937318325,0.00692070834338665,-0.0002661811013240367
18341975188187,4.353855609893799,-6.666654586791992,6.118382453918457,-0.006122165359556675,0.010381062515079975,0.0002661811013240367
18341976425500,4.365826606750488,-6.677428722381592,6.101623058319092,-0.00931633822619915,0.014373779296875,-0.003460354171693325
18341977662787,4.349067211151123,-6.657077789306641,6.119579792022705,-0.01117960549890995,0.014373779296875,-0.0031941730994731188
18341978900075,4.346673011779785,-6.665457725524902,6.106411457061768,-0.00931633822619915,0.01117960549890995,0.0021294488105922937
18341980137375,4.326322555541992,-6.627150535583496,6.083666801452637,-0.0114457868039608,0.008517795242369175,-0.0023956298828125
18341981374687,4.347870349884033,-6.657077789306641,6.086061000823975,-0.00958251953125,0.014373779296875,-0.0053236219100654125
18341982611962,4.357447147369385,-6.6630635261535645,6.044162273406982,-0.007985432632267475,0.0090501569211483,-0.0031941730994731188
18341983849275,4.347870349884033,-6.660669326782227,6.099228858947754,-0.015438503585755825,0.0063883461989462376,-0.0039927163161337376
18341985086562,4.357447147369385,-6.652289390563965,6.075286865234375,-0.00692070834338665,0.007453070487827063,0.003460354171693325
18341986323862,4.322731018066406,-6.665457725524902,6.066906929016113,-0.0071868896484375,0.008783976547420025,0.0031941730994731188
18341987561162,4.334702014923096,-6.62236213684082,6.0597243309021,-0.00958251953125,0.005057440605014563,-0.0013309054775163531
18341988798450,4.345476150512695,-6.605602741241455,6.099228858947754,-0.0063883461989462376,0.008517795242369175,-0.005589802749454975
18341990035737,4.309563159942627,-6.613982200622559,6.083666801452637,-0.010381062515079975,0.013042873702943325,0.0023956298828125
18341991273050,4.341884613037109,-6.630741596221924,6.105214595794678,-0.008783976547420025,0.007985432632267475,-0.0007985432748682797
18341992510350,4.347870349884033,-6.629544734954834,6.100426197052002,-0.008517795242369175,0.003460354171693325,0.0015970865497365594
18341993747637,4.3406877517700195,-6.613982200622559,6.070498466491699,-0.007453070487827063,0.004791259765625,0.0
18341994984937,4.380192279815674,-6.636727333068848,6.072892665863037,-0.0066545275039970875,0.00452507846057415,-0.003460354171693325
18341996222225,4.3622355461120605,-6.670246124267578,6.077681064605713,-0.007985432632267475,0.007985432632267475,-0.007453070487827063
18341997459525,4.337096214294434,-6.619967937469482,6.045359134674072,-0.0119781494140625,0.0090501569211483,-0.0031941730994731188
18341998696812,4.365826606750488,-6.607996940612793,6.083666801452637,-0.00452507846057415,0.0031941730994731188,-0.0005323622026480734
18341999934125,4.323928356170654,-6.615179538726807,6.056133270263672,-0.0021294488105922937,0.0029279920272529125,-0.0007985432748682797
18342001171412,4.3622355461120605,-6.607996940612793,6.096834659576416,-0.0090501569211483,0.003460354171693325,-0.0053236219100654125
18342002408700,4.370615005493164,-6.607996940612793,6.0884552001953125,-0.00984870083630085,0.0063883461989462376,-0.007453070487827063
18342003646000,4.350264549255371,-6.605602741241455,6.064512729644775,-0.008251613937318325,0.00452507846057415,-0.00452507846057415
18342004883300,4.320336818695068,-6.563704013824463,6.083666801452637,-0.005057440605014563,0.0013309054775163531,-0.0042588976211845875
18342006120600,4.377797603607178,-6.564900875091553,6.115988254547119,0.0023956298828125,0.0002661811013240367,-0.005855984054505825
18342007357887,4.413711071014404,-6.59004020690918,6.082469463348389,0.0007985432748682797,0.0010647244052961469,-0.007985432632267475
18342008595187,4.37540340423584,-6.552929878234863,6.1100029945373535,0.0005323622026480734,-0.0039927163161337376,-0.0026618109550327063
18342009832487,4.377797603607178,-6.556521415710449,6.080075263977051,0.0010647244052961469,-0.0007985432748682797,-0.0029279920272529125
18342011069762,4.37540340423584,-6.5768723487854,6.086061000823975,0.0023956298828125,-0.0023956298828125,-0.00452507846057415
18342012307062,4.334702014923096,-6.585251808166504,6.086061000823975,-0.0002661811013240367,0.0023956298828125,-0.007985432632267475
18342013544375,4.351461410522461,-6.580463409423828,6.068104267120361,-0.0005323622026480734,-0.0005323622026480734,-0.007453070487827063
18342014781675,4.365826606750488,-6.605602741241455,6.035782337188721,0.0023956298828125,-0.0037265352439135313,-0.0023956298828125
18342016018975,4.364629745483398,-6.580463409423828,6.076483726501465,0.0013309054775163531,0.0005323622026480734,-0.0018632676219567657
18342017256262,4.373009204864502,-6.555324077606201,6.066906929016113,0.004791259765625,-0.0029279920272529125,-0.00692070834338665
18342018493575,4.350264549255371,-6.604405403137207,6.0417680740356445,0.00452507846057415,-0.00692070834338665,-0.007985432632267475
18342019730850,4.3622355461120605,-6.563704013824463,6.077681064605713,0.007985432632267475,-0.0090501569211483,-0.005057440605014563
18342020968150,4.368220806121826,-6.569689750671387,6.075286865234375,0.006122165359556675,-0.005589802749454975,-0.00692070834338665
18342022205450,4.370615005493164,-6.5768723487854,6.0884552001953125,0.0039927163161337376,-0.0029279920272529125,-0.00931633822619915
18342023442737,4.345476150512695,-6.5744781494140625,6.083666801452637,0.0042588976211845875,-0.005855984054505825,-0.005589802749454975
18342024680037,4.352658748626709,-6.524199485778809,6.068104267120361,0.007985432632267475,-0.0066545275039970875,-0.005589802749454975
18342025917337,4.364629745483398,-6.591237545013428,6.066906929016113,0.012510511092841625,-0.007453070487827063,-0.0018632676219567657
18342027154637,4.3406877517700195,-6.568492412567139,6.076483726501465,0.013309055007994175,-0.0071868896484375,0.0
18342028391900,4.428076267242432,-6.566098213195801,6.120776653289795,0.007985432632267475,-0.0037265352439135313,-0.0026618109550327063
18342029629225,4.401740074157715,-6.58884334564209,6.09084939956665,0.01224433071911335,-0.007453070487827063,-0.003460354171693325
18342030866512,4.358644008636475,-6.5768723487854,6.033388137817383,0.015438503585755825,-0.008517795242369175,-0.0010647244052961469
18342032103812,4.380192279815674,-6.54455041885376,6.0597243309021,0.0173017717897892,-0.006122165359556675,-0.0018632676219567657
18342033341100,4.390965938568115,-6.546944618225098,6.1088056564331055,0.01597086526453495,-0.005589802749454975,-0.0010647244052961469
18342034578400,4.358644008636475,-6.562506675720215,6.118382453918457,0.0157046839594841,-0.01357523538172245,0.0007985432748682797
18342035815712,4.350264549255371,-6.5960259437561035,6.10401725769043,0.014906140975654125,-0.01224433071911335,0.0010647244052961469
18342037053000,4.32991361618042,-6.5768723487854,6.115988254547119,0.01783413253724575,-0.013042873702943325,0.0002661811013240367
18342038290300,4.395754337310791,-6.57806921005249,6.0633158683776855,0.0215606689453125,-0.00958251953125,0.0037265352439135313
18342039527600,4.370615005493164,-6.603208541870117,6.1100029945373535,0.0295461006462574,-0.015438503585755825,0.0007985432748682797
18342040764900,4.3406877517700195,-6.607996940612793,6.095637798309326,0.0271504707634449,-0.01597086526453495,0.0010647244052961469
18342042002175,4.337096214294434,-6.581660747528076,6.056133270263672,0.0215606689453125,-0.01463996060192585,-0.0042588976211845875
18342043239487,4.337096214294434,-6.624756336212158,6.1100029945373535,0.02661811001598835,-0.01597086526453495,0.0015970865497365594
18342044476762,4.331110954284668,-6.647500991821289,6.127959251403809,0.02741665206849575,-0.0162370465695858,0.004791259765625
18342045714087,4.36343240737915,-6.618770599365234,6.1100029945373535,0.02262539230287075,-0.01410759799182415,0.0037265352439135313
18342046951375,4.322731018066406,-6.621164798736572,6.083666801452637,0.0244886614382267,-0.015172322280704975,0.0021294488105922937
18342048188662,4.3406877517700195,-6.627150535583496,6.113594055175781,0.02608574740588665,-0.01756795309484005,0.0053236219100654125
18342049425962,4.332307815551758,-6.62236213684082,6.077681064605713,0.0228915736079216,-0.01703559048473835,0.0042588976211845875
18342050663262,4.313154220581055,-6.62236213684082,6.111199855804443,0.0228915736079216,-0.013309055007994175,0.004791259765625
18342051900562,4.3191399574279785,-6.633135795593262,6.080075263977051,0.0215606689453125,-0.01410759799182415,0.0007985432748682797
18342053137837,4.307168960571289,-6.66904878616333,6.096834659576416,0.0263519287109375,-0.015438503585755825,0.0007985432748682797
18342054375162,4.305971622467041,-6.648698329925537,6.09204626083374,0.02741665206849575,-0.01889885775744915,0.003460354171693325
18342055612450,4.301183223724365,-6.610391139984131,6.105214595794678,0.02369011752307415,-0.014373779296875,0.0026618109550327063
18342056849737,4.333505153656006,-6.649895191192627,6.124368190765381,0.0223592109978199,-0.0157046839594841,-0.0018632676219567657
18342058087037,4.320336818695068,-6.646304130554199,6.065710067749023,0.0271504707634449,-0.015438503585755825,-0.003460354171693325
18342059324337,4.327519416809082,-6.66904878616333,6.107608795166016,0.0271504707634449,-0.015172322280704975,-0.0021294488105922937
18342060561625,4.311957359313965,-6.67982292175293,6.084863662719727,0.02182685025036335,-0.0167694091796875,0.0010647244052961469
18342061798937,4.307168960571289,-6.673837184906006,6.107608795166016,0.02422248013317585,-0.015172322280704975,-0.0023956298828125
18342063036237,4.292803764343262,-6.652289390563965,6.068104267120361,0.023956298828125,-0.0162370465695858,-0.0042588976211845875
18342064273525,4.2963948249816895,-6.664260387420654,6.10282039642334,0.02874755859375,-0.0173017717897892,-0.0063883461989462376
18342065510812,4.273650169372559,-6.66904878616333,6.083666801452637,0.02262539230287075,-0.01650322787463665,-0.0071868896484375
18342066748112,4.290409564971924,-6.7265095710754395,6.060921669006348,0.02262539230287075,-0.01703559048473835,-0.00931633822619915
18342067985412,4.268861770629883,-6.694188117980957,6.124368190765381,0.0181003138422966,-0.01650322787463665,-0.01224433071911335
18342069222700,4.240131378173828,-6.692990779876709,6.09204626083374,0.0186326764523983,-0.012776692397892475,-0.00984870083630085
18342070460012,4.260481834411621,-6.71334171295166,6.100426197052002,0.01836649514734745,-0.012776692397892475,-0.014906140975654125
18342071697312,4.2724528312683105,-6.703764915466309,6.086061000823975,0.0196974016726017,-0.013309055007994175,-0.01597086526453495
18342072934600,4.282029628753662,-6.694188117980957,6.065710067749023,0.01650322787463665,-0.015172322280704975,-0.01463996060192585
18342074171900,4.280832767486572,-6.66904878616333,6.118382453918457,0.02022976242005825,-0.01650322787463665,-0.015172322280704975
18342075409187,4.273650169372559,-6.6810197830200195,6.050147533416748,0.01996358297765255,-0.015438503585755825,-0.01650322787463665
18342076646475,4.2963948249816895,-6.708553314208984,6.072892665863037,0.0173017717897892,-0.013042873702943325,-0.01943122036755085
18342077883787,4.304774761199951,-6.687005519866943,6.100426197052002,0.015438503585755825,-0.012510511092841625,-0.0191650390625
18342079121075,4.28322696685791,-6.657077789306641,6.074089527130127,0.013309055007994175,-0.0138414166867733,-0.01783413253724575
18342080358362,4.3394904136657715,-6.642712593078613,6.126762390136719,0.01357523538172245,-0.010381062515079975,-0.0186326764523983
18342081595650,4.323928356170654,-6.654683589935303,6.09204626083374,0.0191650390625,-0.01410759799182415,-0.02182685025036335
18342082832950,4.323928356170654,-6.6391215324401855,6.1088056564331055,0.0181003138422966,-0.0138414166867733,-0.0234239362180233
18342084070250,4.308365821838379,-6.654683589935303,6.157886981964111,0.014906140975654125,-0.01783413253724575,-0.0181003138422966
18342085307562,4.285621166229248,-6.593631744384766,6.121973991394043,0.01597086526453495,-0.0138414166867733,-0.02022976242005825
18342086544850,4.349067211151123,-6.584054946899414,6.125565052032471,0.0204959437251091,-0.010114881210029125,-0.0186326764523983
18342087782137,4.314351558685303,-6.593631744384766,6.123170852661133,0.0215606689453125,-0.01224433071911335,-0.01783413253724575
18342089019437,4.343081951141357,-6.567295074462891,6.165069580078125,0.0210283063352108,-0.01410759799182415,-0.0138414166867733
18342090256737,4.303577423095703,-6.580463409423828,6.113594055175781,0.01703559048473835,-0.01650322787463665,-0.01943122036755085
18342091494050,4.311957359313965,-6.546944618225098,6.1088056564331055,0.0162370465695858,-0.01171196810901165,-0.01943122036755085
18342092731350,4.316745758056641,-6.5948286056518555,6.161478042602539,0.02076212503015995,-0.012776692397892475,-0.01703559048473835
18342093968625,4.353855609893799,-6.569689750671387,6.1315507888793945,0.023956298828125,-0.013309055007994175,-0.0167694091796875
18342095205937,4.343081951141357,-6.606799602508545,6.121973991394043,0.0252872034907341,-0.0119781494140625,-0.014373779296875
18342096443212,4.322731018066406,-6.599617004394531,6.095637798309326,0.02022976242005825,-0.01357523538172245,-0.02129448764026165
18342097680525,4.327519416809082,-6.612785339355469,6.126762390136719,0.0210283063352108,-0.0138414166867733,-0.0162370465695858
18342098917825,4.344278812408447,-6.6163763999938965,6.125565052032471,0.02661811001598835,-0.014373779296875,-0.01357523538172245
18342100155112,4.367023944854736,-6.6379241943359375,6.124368190765381,0.0247548408806324,-0.013042873702943325,-0.012776692397892475
18342101392412,4.347870349884033,-6.641515731811523,6.118382453918457,0.0268842913210392,-0.0090501569211483,-0.013309055007994175
18342102629687,4.346673011779785,-6.655880928039551,6.13753604888916,0.02502102218568325,-0.01224433071911335,-0.01650322787463665
18342103866975,4.347870349884033,-6.646304130554199,6.129156589508057,0.0196974016726017,-0.01117960549890995,-0.0167694091796875
18342105104287,4.36343240737915,-6.660669326782227,6.094440460205078,0.0228915736079216,-0.01357523538172245,-0.010114881210029125
18342106341600,4.304774761199951,-6.689399719238281,6.111199855804443,0.02422248013317585,-0.010913425125181675,-0.0063883461989462376
18342107578887,4.299986362457275,-6.7061591148376465,6.0872578620910645,0.0244886614382267,-0.0157046839594841,-0.00984870083630085
18342108816162,4.337096214294434,-6.743268966674805,6.121973991394043,0.0247548408806324,-0.013042873702943325,-0.00984870083630085
18342110053475,4.358644008636475,-6.715735912322998,6.161478042602539,0.02555338479578495,-0.013309055007994175,-0.005855984054505825
18342111290775,4.351461410522461,-6.752845764160156,6.1734490394592285,0.0191650390625,-0.013309055007994175,-0.0063883461989462376
18342112528075,4.321534156799316,-6.755239963531494,6.145915985107422,0.0181003138422966,-0.0162370465695858,-0.0053236219100654125
18342113765362,4.355052947998047,-6.797138690948486,6.155492782592773,0.01943122036755085,-0.010913425125181675,-0.0077192517928779125
18342115002662,4.355052947998047,-6.773196697235107,6.1734490394592285,0.0114457868039608,-0.0077192517928779125,-0.005855984054505825
18342116239962,4.376600742340088,-6.789956092834473,6.142324447631836,0.01463996060192585,-0.014373779296875,-0.0039927163161337376
18342117477250,4.320336818695068,-6.789956092834473,6.168660640716553,0.01224433071911335,-0.015172322280704975,-0.0077192517928779125
18342118714562,4.388571739196777,-6.7923502922058105,6.144718647003174,0.010913425125181675,-0.013042873702943325,-0.006122165359556675
18342119951837,4.383783340454102,-6.783970355987549,6.141127586364746,0.010913425125181675,-0.0162370465695858,0.0053236219100654125
18342121189137,4.36343240737915,-6.819883823394775,6.139930248260498,0.010114881210029125,-0.015172322280704975,0.0013309054775163531
18342122426450,4.355052947998047,-6.775590896606445,6.163872241973877,0.004791259765625,-0.014373779296875,0.0037265352439135313
18342123663750,4.38498067855835,-6.8162922859191895,6.13633918762207,0.00452507846057415,-0.01410759799182415,0.0119781494140625
18342124901037,4.414907932281494,-6.788758754730225,6.186617374420166,-0.0015970865497365594,-0.01597086526453495,0.005589802749454975
18342126138325,4.4077253341674805,-6.780379295349121,6.168660640716553,0.0002661811013240367,-0.0090501569211483,0.007453070487827063
18342127375637,4.399345874786377,-6.776787757873535,6.172252178192139,-0.0029279920272529125,-0.01597086526453495,0.00958251953125
18342128612937,4.438849925994873,-6.775590896606445,6.13753604888916,-0.0039927163161337376,-0.0173017717897892,0.008517795242369175
18342129850212,4.396951675415039,-6.761225700378418,6.187814235687256,-0.00452507846057415,-0.014373779296875,0.00931633822619915
18342131087537,4.434061527252197,-6.767210960388184,6.211756229400635,-0.0029279920272529125,-0.0210283063352108,0.010114881210029125
18342132324812,4.434061527252197,-6.7696051597595215,6.159083843231201,-0.010114881210029125,-0.02076212503015995,0.012510511092841625
18342133562100,4.460397720336914,-6.732495307922363,6.1985883712768555,-0.008251613937318325,-0.02182685025036335,0.0167694091796875
18342134799400,4.36343240737915,-6.795941352844238,6.191405773162842,-0.0077192517928779125,-0.0220930315554142,0.010114881210029125
18342136036700,4.425682067871094,-6.7708024978637695,6.1519012451171875,-0.012776692397892475,-0.01996358297765255,0.0162370465695858
18342137274012,4.447229862213135,-6.728903770446777,6.185420036315918,-0.0119781494140625,-0.02076212503015995,0.0181003138422966
18342138511300,4.449624061584473,-6.730101108551025,6.179434776306152,-0.01117960549890995,-0.0157046839594841,0.01117960549890995
18342139748587,4.435258865356445,-6.71453857421875,6.238092422485352,-0.01117960549890995,-0.0191650390625,0.0119781494140625
18342140985875,4.4304704666137695,-6.687005519866943,6.179434776306152,-0.0090501569211483,-0.0220930315554142,0.015438503585755825
18342142223200,4.423287868499756,-6.7061591148376465,6.190208435058594,-0.015438503585755825,-0.02369011752307415,0.01410759799182415
18342143460475,4.41849946975708,-6.688202381134033,6.206967830657959,-0.0157046839594841,-0.0263519287109375,0.01650322787463665
18342144697762,4.41849946975708,-6.700173377990723,6.186617374420166,-0.013042873702943325,-0.02661811001598835,0.0186326764523983
18342145935075,4.444835662841797,-6.696582317352295,6.215347766876221,-0.010114881210029125,-0.0252872034907341,0.01703559048473835
18342147172375,4.458003520965576,-6.688202381134033,6.162675380706787,-0.0162370465695858,-0.0234239362180233,0.01703559048473835
18342148409650,4.441244125366211,-6.712144374847412,6.196194171905518,-0.02022976242005825,-0.0268842913210392,0.0162370465695858
18342149646950,4.474762916564941,-6.687005519866943,6.224924564361572,-0.012510511092841625,-0.0314093679189682,0.0204959437251091
18342150884262,4.442441463470459,-6.707355976104736,6.178237438201904,-0.0173017717897892,-0.02422248013317585,0.01650322787463665
18342152121575,4.444835662841797,-6.745663166046143,6.172252178192139,-0.01703559048473835,-0.0247548408806324,0.0157046839594841
18342153358850,4.480748653411865,-6.7025675773620605,6.206967830657959,-0.0162370465695858,-0.0252872034907341,0.0138414166867733
18342154596150,4.436455726623535,-6.739677906036377,6.186617374420166,-0.014906140975654125,-0.02555338479578495,0.0223592109978199
18342155833462,4.425682067871094,-6.7061591148376465,6.200982570648193,-0.0173017717897892,-0.0268842913210392,0.02315775491297245
18342157070737,4.417302131652832,-6.677428722381592,6.191405773162842,-0.01597086526453495,-0.02661811001598835,0.0215606689453125
18342158308025,4.425682067871094,-6.696582317352295,6.208165168762207,-0.015172322280704975,-0.02981228195130825,0.02076212503015995
18342159545325,4.414907932281494,-6.704961776733398,6.215347766876221,-0.0167694091796875,-0.0300784632563591,0.01943122036755085
18342160782637,4.461595058441162,-6.67982292175293,6.174646377563477,-0.0204959437251091,-0.02555338479578495,0.02076212503015995
18342162019912,4.41969633102417,-6.664260387420654,6.232107162475586,-0.01756795309484005,-0.0316755510866642,0.02315775491297245
18342163257225,4.435258865356445,-6.694188117980957,6.157886981964111,-0.01357523538172245,-0.0324740931391716,0.02315775491297245
18342164494525,4.420893669128418,-6.7061591148376465,6.1519012451171875,-0.01597086526453495,-0.0348697230219841,0.0186326764523983
18342165731800,4.436455726623535,-6.683413982391357,6.186617374420166,-0.0173017717897892,-0.0276828333735466,0.0204959437251091
18342166969112,4.404134273529053,-6.652289390563965,6.230909824371338,-0.01756795309484005,-0.03034464456140995,0.0167694091796875
18342168206412,4.398148536682129,-6.689399719238281,6.210559368133545,-0.015172322280704975,-0.0375315360724926,0.01889885775744915
18342169443687,4.422090530395508,-6.647500991821289,6.1530985832214355,-0.0157046839594841,-0.0351359061896801,0.0247548408806324
18342170681012,4.448426723480225,-6.6391215324401855,6.166266441345215,-0.015438503585755825,-0.0330064557492733,0.023956298828125
18342171918287,4.4077253341674805,-6.647500991821289,6.172252178192139,-0.014906140975654125,-0.0388624407351017,0.02182685025036335
18342173155562,4.446032524108887,-6.587646007537842,6.163872241973877,-0.01703559048473835,-0.0346035435795784,0.0234239362180233
18342174392875,4.37420654296875,-6.63433313369751,6.200982570648193,-0.01996358297765255,-0.0351359061896801,0.0223592109978199
18342175630175,4.398148536682129,-6.599617004394531,6.157886981964111,-0.01756795309484005,-0.0396609827876091,0.02262539230287075
18342176867475,4.4077253341674805,-6.6355299949646,6.1315507888793945,-0.01463996060192585,-0.0369991734623909,0.0247548408806324
18342178104775,4.365826606750488,-6.642712593078613,6.138733386993408,-0.014373779296875,-0.0276828333735466,0.0234239362180233
18342179342075,4.367023944854736,-6.629544734954834,6.1088056564331055,-0.02022976242005825,-0.0306108258664608,0.01943122036755085
18342180579375,4.377797603607178,-6.631938934326172,6.141127586364746,-0.0167694091796875,-0.0346035435795784,0.02422248013317585
18342181816650,4.352658748626709,-6.653486728668213,6.1088056564331055,-0.0181003138422966,-0.0330064557492733,0.02182685025036335
18342183053962,4.327519416809082,-6.611588001251221,6.150704383850098,-0.01703559048473835,-0.0346035435795784,0.0215606689453125
18342184291250,4.277241230010986,-6.63433313369751,6.172252178192139,-0.0157046839594841,-0.0356682650744915,0.0252872034907341
18342185528550,4.321534156799316,-6.6391215324401855,6.119579792022705,-0.01650322787463665,-0.0385962575674057,0.0276828333735466
18342186765850,4.273650169372559,-6.645106792449951,6.143521785736084,-0.0157046839594841,-0.0401933453977108,0.0295461006462574
18342188003137,4.2760443687438965,-6.604405403137207,6.138733386993408,-0.0162370465695858,-0.0399271659553051,0.02901373989880085
18342189240450,4.303577423095703,-6.592434406280518,6.168660640716553,-0.01597086526453495,-0.033272635191679,0.0292799212038517
18342190477725,4.322731018066406,-6.62236213684082,6.121973991394043,-0.012776692397892475,-0.0372653529047966,0.02848137728869915
18342191715037,4.332307815551758,-6.586449146270752,6.121973991394043,-0.010647243820130825,-0.0401933453977108,0.0322079136967659
18342192952337,4.274847030639648,-6.658275127410889,6.095637798309326,-0.0119781494140625,-0.0295461006462574,0.0354020856320858
18342194189625,4.289212226867676,-6.609193801879883,6.124368190765381,-0.010114881210029125,-0.02661811001598835,0.0324740931391716
18342195426925,4.270058631896973,-6.5948286056518555,6.10282039642334,-0.0167694091796875,-0.0330064557492733,0.0316755510866642
18342196664225,4.278438568115234,-6.62355899810791,6.0884552001953125,-0.01463996060192585,-0.0314093679189682,0.0356682650744915
18342197901512,4.302380561828613,-6.615179538726807,6.1303534507751465,-0.012510511092841625,-0.0340711809694767,0.0391286201775074
18342199138812,4.231751441955566,-6.619967937469482,6.1734490394592285,-0.01171196810901165,-0.02794901467859745,0.033272635191679
18342200376112,4.253299236297607,-6.612785339355469,6.135141849517822,-0.0138414166867733,-0.02741665206849575,0.03034464456140995
18342201613400,4.246116638183594,-6.649895191192627,6.10282039642334,-0.013042873702943325,-0.02422248013317585,0.0338049978017807
18342202850700,4.220977783203125,-6.615179538726807,6.105214595794678,-0.01117960549890995,-0.03034464456140995,0.0324740931391716
18342204087987,4.2963948249816895,-6.627150535583496,6.09204626083374,-0.010913425125181675,-0.0306108258664608,0.0351359061896801
18342205325312,4.203021049499512,-6.653486728668213,6.094440460205078,-0.01171196810901165,-0.0247548408806324,0.0367329902946949
18342206562587,4.271255970001221,-6.625953197479248,6.105214595794678,-0.014373779296875,-0.0210283063352108,0.0359344482421875
18342207799900,4.223371982574463,-6.625953197479248,6.127959251403809,-0.012776692397892475,-0.02129448764026165,0.0340711809694767
18342209037187,4.24970817565918,-6.618770599365234,6.094440460205078,-0.0114457868039608,-0.0162370465695858,0.033272635191679
18342210274487,4.210203647613525,-6.643909931182861,6.106411457061768,-0.00958251953125,-0.0173017717897892,0.0362006276845932
18342211511762,4.243722438812256,-6.671442985534668,6.121973991394043,-0.00692070834338665,-0.014906140975654125,0.0346035435795784
18342212749075,4.236539840698242,-6.672640323638916,6.117185592651367,-0.0114457868039608,-0.014906140975654125,0.0340711809694767
18342213986362,4.244919776916504,-6.690596580505371,6.126762390136719,-0.01836649514734745,-0.01463996060192585,0.02981228195130825
18342215223675,4.219780445098877,-6.685808181762695,6.071695327758789,-0.01463996060192585,-0.0114457868039608,0.02901373989880085
18342216460950,4.248510837554932,-6.698976516723633,6.081272602081299,-0.00984870083630085,-0.006122165359556675,0.0388624407351017
18342217698262,4.242525577545166,-6.682217121124268,6.065710067749023,-0.01171196810901165,-0.010114881210029125,0.0364668108522892
18342218935550,4.247313976287842,-6.689399719238281,6.022614479064941,-0.01117960549890995,-0.01117960549890995,0.0311431884765625
18342220172850,4.197035789489746,-6.652289390563965,6.071695327758789,-0.008783976547420025,-0.008251613937318325,0.033538818359375
18342221410150,4.230554580688477,-6.642712593078613,6.065710067749023,-0.01224433071911335,-0.0066545275039970875,0.0351359061896801
18342222647412,4.236539840698242,-6.678625583648682,6.098031997680664,-0.010913425125181675,0.0002661811013240367,0.0348697230219841
18342223884737,4.197035789489746,-6.649895191192627,6.112397193908691,-0.01171196810901165,-0.0013309054775163531,0.0338049978017807
18342225122012,4.223371982574463,-6.700173377990723,6.094440460205078,-0.0138414166867733,-0.004791259765625,0.02901373989880085
18342226359325,4.24970817565918,-6.682217121124268,6.132747650146484,-0.01171196810901165,-0.0005323622026480734,0.0343373604118824
18342227596625,4.23773717880249,-6.712144374847412,6.143521785736084,-0.014373779296875,0.0007985432748682797,0.0364668108522892
18342228833912,4.219780445098877,-6.676231384277344,6.115988254547119,-0.014906140975654125,0.0015970865497365594,0.033538818359375
18342230071212,4.222174644470215,-6.6355299949646,6.10401725769043,-0.01943122036755085,0.0039927163161337376,0.0292799212038517
18342231308512,4.2329487800598145,-6.730101108551025,6.133944988250732,-0.0204959437251091,0.0039927163161337376,0.02981228195130825
18342232545825,4.200626850128174,-6.690596580505371,6.124368190765381,-0.015172322280704975,0.004791259765625,0.02661811001598835
18342233783112,4.2760443687438965,-6.7025675773620605,6.094440460205078,-0.02022976242005825,0.013042873702943325,0.02262539230287075
18342235020400,4.24970817565918,-6.652289390563965,6.124368190765381,-0.01996358297765255,0.0157046839594841,0.0268842913210392
18342236257712,4.217386245727539,-6.602011203765869,6.095637798309326,-0.02422248013317585,0.00958251953125,0.02502102218568325
18342237495000,4.206612586975098,-6.63433313369751,6.129156589508057,-0.01996358297765255,0.010913425125181675,0.0186326764523983
18342238732300,4.246116638183594,-6.6175737380981445,6.099228858947754,-0.0186326764523983,0.0138414166867733,0.0252872034907341
18342239969587,4.259284973144531,-6.625953197479248,6.154295444488525,-0.01783413253724575,0.014906140975654125,0.02794901467859745
18342241206887,4.244919776916504,-6.649895191192627,6.09204626083374,-0.0220930315554142,0.013309055007994175,0.0228915736079216
18342242444187,4.259284973144531,-6.627150535583496,6.1088056564331055,-0.01996358297765255,0.013042873702943325,0.02555338479578495
18342243681475,4.24970817565918,-6.584054946899414,6.076483726501465,-0.01996358297765255,0.01889885775744915,0.0282151959836483
18342244918787,4.219780445098877,-6.581660747528076,6.13753604888916,-0.0196974016726017,0.02129448764026165,0.0220930315554142
18342246156087,4.244919776916504,-6.607996940612793,6.117185592651367,-0.015438503585755825,0.01783413253724575,0.0196974016726017
18342247393375,4.218583583831787,-6.610391139984131,6.077681064605713,-0.014906140975654125,0.02076212503015995,0.02502102218568325
18342248630675,4.243722438812256,-6.57806921005249,6.086061000823975,-0.0162370465695858,0.02502102218568325,0.0252872034907341
18342249867975,4.256890773773193,-6.57806921005249,6.121973991394043,-0.01703559048473835,0.0234239362180233,0.0220930315554142
18342251105250,4.265270233154297,-6.5732808113098145,6.117185592651367,-0.01463996060192585,0.0244886614382267,0.023956298828125
18342252342550,4.262876033782959,-6.551733016967773,6.114791393280029,-0.010913425125181675,0.02555338479578495,0.02608574740588665
18342253579850,4.273650169372559,-6.597222805023193,6.100426197052002,-0.01410759799182415,0.02661811001598835,0.0215606689453125
18342254817150,4.265270233154297,-6.568492412567139,6.080075263977051,-0.015438503585755825,0.02369011752307415,0.0252872034907341
18342256054437,4.2760443687438965,-6.5948286056518555,6.078877925872803,-0.00931633822619915,0.033272635191679,0.0258195661008358
18342257291750,4.242525577545166,-6.5481414794921875,6.107608795166016,-0.006122165359556675,0.0268842913210392,0.0263519287109375
18342258529025,4.265270233154297,-6.552929878234863,6.0884552001953125,-0.008251613937318325,0.0276828333735466,0.0252872034907341
18342259766350,4.28322696685791,-6.558915615081787,6.123170852661133,-0.0063883461989462376,0.0276828333735466,0.02608574740588665
18342261003625,4.335899353027344,-6.543353080749512,6.093243598937988,-0.00958251953125,0.0271504707634449,0.02502102218568325
18342262240925,4.292803764343262,-6.538564682006836,6.09084939956665,-0.0039927163161337376,0.0276828333735466,0.0268842913210392
18342263478225,4.271255970001221,-6.54455041885376,6.095637798309326,0.0007985432748682797,0.02901373989880085,0.0258195661008358
18342264715512,4.305971622467041,-6.557718276977539,6.1088056564331055,-0.0026618109550327063,0.02741665206849575,0.0252872034907341
18342265952825,4.285621166229248,-6.50025749206543,6.094440460205078,-0.0039927163161337376,0.02848137728869915,0.03034464456140995
18342267190100,4.277241230010986,-6.543353080749512,6.066906929016113,-0.0031941730994731188,0.033272635191679,0.02794901467859745
18342268427400,4.246116638183594,-6.5732808113098145,6.112397193908691,-0.0015970865497365594,0.02981228195130825,0.0223592109978199
18342269664725,4.236539840698242,-6.550535678863525,6.084863662719727,-0.0021294488105922937,0.02901373989880085,0.0247548408806324
18342270902012,4.304774761199951,-6.539762020111084,6.099228858947754,-0.0007985432748682797,0.0356682650744915,0.0228915736079216
18342272139312,4.284423828125,-6.572083950042725,6.133944988250732,-0.0007985432748682797,0.0324740931391716,0.02369011752307415
18342273376600,4.305971622467041,-6.597222805023193,6.086061000823975,0.0010647244052961469,0.02901373989880085,0.02129448764026165
18342274613887,4.264073371887207,-6.575675010681152,6.065710067749023,-0.0037265352439135313,0.03087700717151165,0.02262539230287075
18342275851175,4.260481834411621,-6.572083950042725,6.066906929016113,0.003460354171693325,0.03034464456140995,0.0228915736079216
18342277088475,4.286818027496338,-6.600814342498779,6.124368190765381,0.005057440605014563,0.03034464456140995,0.01783413253724575
18342278325787,4.291606426239014,-6.602011203765869,6.120776653289795,0.0021294488105922937,0.0340711809694767,0.015172322280704975
18342279563075,4.28322696685791,-6.569689750671387,6.129156589508057,0.0029279920272529125,0.0340711809694767,0.0210283063352108
18342280800375,4.305971622467041,-6.6175737380981445,6.054935932159424,0.007985432632267475,0.02981228195130825,0.02022976242005825
18342282037662,4.274847030639648,-6.619967937469482,6.075286865234375,0.007985432632267475,0.0324740931391716,0.01943122036755085
18342283274962,4.304774761199951,-6.5948286056518555,6.0872578620910645,0.007985432632267475,0.0314093679189682,0.02076212503015995
18342284512250,4.311957359313965,-6.599617004394531,6.089652061462402,0.00958251953125,0.0327402763068676,0.0234239362180233
18342285749562,4.369418144226074,-6.5732808113098145,6.068104267120361,0.008783976547420025,0.0346035435795784,0.01943122036755085
18342286986875,4.2951979637146,-6.579266548156738,6.096834659576416,0.006122165359556675,0.033272635191679,0.02076212503015995
18342288224137,4.335899353027344,-6.569689750671387,6.1519012451171875,0.008251613937318325,0.0319417305290699,0.0186326764523983
18342289461475,4.371812343597412,-6.591237545013428,6.081272602081299,0.010381062515079975,0.0300784632563591,0.01943122036755085
18342290698750,4.3191399574279785,-6.627150535583496,6.119579792022705,0.014373779296875,0.0311431884765625,0.01996358297765255
18342291936037,4.323928356170654,-6.582857608795166,6.078877925872803,0.01224433071911335,0.0330064557492733,0.014906140975654125
18342293173350,4.356249809265137,-6.5768723487854,6.09084939956665,0.012510511092841625,0.033272635191679,0.01463996060192585
18342294410650,4.333505153656006,-6.569689750671387,6.1734490394592285,0.0157046839594841,0.02848137728869915,0.0196974016726017
18342295647925,4.345476150512695,-6.566098213195801,6.142324447631836,0.015438503585755825,0.03087700717151165,0.01836649514734745
18342296885225,4.309563159942627,-6.5960259437561035,6.113594055175781,0.0162370465695858,0.0295461006462574,0.01463996060192585
18342298122537,4.32991361618042,-6.564900875091553,6.120776653289795,0.0167694091796875,0.02608574740588665,0.015438503585755825
18342299359825,4.355052947998047,-6.58884334564209,6.099228858947754,0.014906140975654125,0.02502102218568325,0.02129448764026165
18342300597112,4.338293552398682,-6.5960259437561035,6.129156589508057,0.01783413253724575,0.02076212503015995,0.01650322787463665
18342301834412,4.351461410522461,-6.612785339355469,6.094440460205078,0.02022976242005825,0.02794901467859745,0.015172322280704975
18342303071712,4.3873748779296875,-6.593631744384766,6.117185592651367,0.013309055007994175,0.0276828333735466,0.01889885775744915
18342304309012,4.3622355461120605,-6.633135795593262,6.138733386993408,0.01889885775744915,0.0282151959836483,0.0157046839594841
18342305546312,4.346673011779785,-6.653486728668213,6.095637798309326,0.01756795309484005,0.0282151959836483,0.0204959437251091
18342306783625,4.331110954284668,-6.612785339355469,6.115988254547119,0.0215606689453125,0.0268842913210392,0.013309055007994175
18342308020900,4.325125217437744,-6.597222805023193,6.107608795166016,0.0258195661008358,0.02315775491297245,0.01224433071911335
18342309258187,4.347870349884033,-6.67982292175293,6.1530985832214355,0.0234239362180233,0.02555338479578495,0.01836649514734745
18342310495500,4.314351558685303,-6.642712593078613,6.112397193908691,0.0186326764523983,0.02182685025036335,0.012776692397892475
18342311732787,4.337096214294434,-6.6594719886779785,6.10401725769043,0.0186326764523983,0.02076212503015995,0.015172322280704975
18342312970075,4.337096214294434,-6.685808181762695,6.074089527130127,0.01996358297765255,0.0228915736079216,0.01357523538172245
18342314207387,4.307168960571289,-6.682217121124268,6.117185592651367,0.02794901467859745,0.0162370465695858,0.0138414166867733
18342315444675,4.352658748626709,-6.709750175476074,6.098031997680664,0.02422248013317585,0.0215606689453125,0.013309055007994175
18342316681962,4.320336818695068,-6.720524311065674,6.141127586364746,0.015172322280704975,0.014373779296875,0.008517795242369175
18342317919250,4.327519416809082,-6.734889507293701,6.107608795166016,0.01783413253724575,0.01703559048473835,0.010913425125181675
18342319156562,4.347870349884033,-6.71453857421875,6.100426197052002,0.01224433071911335,0.01996358297765255,0.012776692397892475
18342320393862,4.32871675491333,-6.72531270980835,6.113594055175781,0.0090501569211483,0.01597086526453495,0.01224433071911335
18342321631150,4.335899353027344,-6.767210960388184,6.083666801452637,0.013042873702943325,0.01703559048473835,0.012510511092841625
18342322868450,4.284423828125,-6.728903770446777,6.084863662719727,0.0173017717897892,0.01756795309484005,0.0090501569211483
18342324105762,4.325125217437744,-6.763619899749756,6.1303534507751465,0.013309055007994175,0.02022976242005825,0.00984870083630085
18342325343050,4.3394904136657715,-6.731297969818115,6.121973991394043,0.010381062515079975,0.01996358297765255,0.00984870083630085
18342326580337,4.303577423095703,-6.737283706665039,6.114791393280029,0.0119781494140625,0.01703559048473835,0.010647243820130825
18342327817637,4.308365821838379,-6.745663166046143,6.143521785736084,0.0167694091796875,0.0162370465695858,0.01171196810901165
18342329054925,4.316745758056641,-6.76002836227417,6.141127586364746,0.013309055007994175,0.01889885775744915,0.0071868896484375
18342330292225,4.341884613037109,-6.716932773590088,6.14831018447876,0.010114881210029125,0.013309055007994175,0.01171196810901165
18342331529525,4.37540340423584,-6.742072105407715,6.161478042602539,0.01650322787463665,0.00958251953125,0.01357523538172245
18342332766812,4.350264549255371,-6.719326972961426,6.114791393280029,0.014373779296875,0.01224433071911335,0.013042873702943325
18342334004125,4.338293552398682,-6.732495307922363,6.150704383850098,0.012510511092841625,0.01703559048473835,0.012776692397892475
18342335241437,4.32991361618042,-6.728903770446777,6.099228858947754,0.013042873702943325,0.010114881210029125,0.01171196810901165
18342336478712,4.344278812408447,-6.751648902893066,6.105214595794678,0.0186326764523983,0.0071868896484375,0.02129448764026165
18342337716000,4.353855609893799,-6.744466304779053,6.127959251403809,0.0138414166867733,0.010913425125181675,0.01597086526453495
18342338953312,4.332307815551758,-6.720524311065674,6.13753604888916,0.01117960549890995,0.0162370465695858,0.012510511092841625
18342340190625,4.321534156799316,-6.761225700378418,6.159083843231201,0.0114457868039608,0.010114881210029125,0.01597086526453495
18342341427887,4.332307815551758,-6.722918510437012,6.14950704574585,0.013309055007994175,0.012510511092841625,0.0196974016726017
18342342665212,4.322731018066406,-6.696582317352295,6.114791393280029,0.01224433071911335,0.0077192517928779125,0.0173017717897892
18342343902487,4.3406877517700195,-6.704961776733398,6.118382453918457,0.010381062515079975,0.0077192517928779125,0.0196974016726017
18342345139800,4.32871675491333,-6.687005519866943,6.125565052032471,0.01171196810901165,0.0066545275039970875,0.02182685025036335
18342346377087,4.3179426193237305,-6.633135795593262,6.101623058319092,0.01224433071911335,0.0077192517928779125,0.02076212503015995
18342347614387,4.322731018066406,-6.7025675773620605,6.113594055175781,0.0138414166867733,0.004791259765625,0.02315775491297245
18342348851700,4.322731018066406,-6.670246124267578,6.154295444488525,0.01224433071911335,0.0066545275039970875,0.02315775491297245
18342350089000,4.299986362457275,-6.670246124267578,6.1088056564331055,0.006122165359556675,0.003460354171693325,0.02182685025036335
18342351326287,4.274847030639648,-6.645106792449951,6.138733386993408,0.0071868896484375,-0.0005323622026480734,0.02315775491297245
18342352563575,4.2951979637146,-6.630741596221924,6.1303534507751465,0.01357523538172245,0.0013309054775163531,0.02315775491297245
18342353800862,4.288015365600586,-6.621164798736572,6.1100029945373535,0.008517795242369175,0.00452507846057415,0.0215606689453125
18342355038175,4.310760021209717,-6.640318393707275,6.117185592651367,0.0066545275039970875,0.0031941730994731188,0.02422248013317585
18342356275475,4.303577423095703,-6.584054946899414,6.074089527130127,0.0077192517928779125,0.0026618109550327063,0.0234239362180233
18342357512762,4.292803764343262,-6.609193801879883,6.094440460205078,0.01410759799182415,-0.0005323622026480734,0.0252872034907341
18342358750075,4.258087635040283,-6.613982200622559,6.101623058319092,0.015172322280704975,-0.0015970865497365594,0.0263519287109375
18342359987362,4.284423828125,-6.567295074462891,6.10401725769043,0.010913425125181675,0.0005323622026480734,0.02315775491297245
18342361224650,4.2760443687438965,-6.582857608795166,6.078877925872803,0.012510511092841625,-0.0021294488105922937,0.0247548408806324
18342362461950,4.282029628753662,-6.58884334564209,6.126762390136719,0.01117960549890995,0.0010647244052961469,0.02422248013317585
18342363699237,4.286818027496338,-6.636727333068848,6.143521785736084,0.01410759799182415,0.0018632676219567657,0.0247548408806324
18342364936537,4.292803764343262,-6.643909931182861,6.099228858947754,0.00931633822619915,-0.0023956298828125,0.02182685025036335
18342366173837,4.307168960571289,-6.591237545013428,6.119579792022705,0.008517795242369175,-0.0037265352439135313,0.0196974016726017
18342367411137,4.327519416809082,-6.600814342498779,6.139930248260498,0.010381062515079975,0.0002661811013240367,0.02262539230287075
18342368648425,4.298789024353027,-6.658275127410889,6.1100029945373535,0.01410759799182415,-0.0023956298828125,0.0204959437251091
18342369885737,4.270058631896973,-6.653486728668213,6.175843238830566,0.0162370465695858,-0.0031941730994731188,0.02076212503015995
18342371123025,4.279635429382324,-6.615179538726807,6.1100029945373535,0.01463996060192585,-0.0042588976211845875,0.02848137728869915
18342372360312,4.316745758056641,-6.630741596221924,6.133944988250732,0.0077192517928779125,0.0007985432748682797,0.0220930315554142
18342373597637,4.320336818695068,-6.651092529296875,6.10282039642334,0.008783976547420025,-0.0023956298828125,0.01836649514734745
18342374834900,4.331110954284668,-6.607996940612793,6.145915985107422,0.010913425125181675,-0.008251613937318325,0.01410759799182415
18342376072225,4.292803764343262,-6.615179538726807,6.165069580078125,0.00692070834338665,-0.0090501569211483,0.01117960549890995
18342377309512,4.28322696685791,-6.613982200622559,6.161478042602539,0.0173017717897892,-0.0042588976211845875,0.01463996060192585
18342378546812,4.294000625610352,-6.627150535583496,6.133944988250732,0.008251613937318325,-0.008251613937318325,0.012776692397892475
18342379784087,4.304774761199951,-6.605602741241455,6.1303534507751465,0.010647243820130825,-0.0090501569211483,0.010381062515079975
18342381021387,4.24970817565918,-6.642712593078613,6.159083843231201,0.01171196810901165,-0.004791259765625,0.0157046839594841
18342382258700,4.2724528312683105,-6.621164798736572,6.14831018447876,0.012776692397892475,-0.0077192517928779125,0.01224433071911335
18342383496012,4.2951979637146,-6.602011203765869,6.155492782592773,0.007453070487827063,-0.01171196810901165,0.0077192517928779125
18342384733300,4.304774761199951,-6.610391139984131,6.135141849517822,0.0066545275039970875,-0.00931633822619915,0.0077192517928779125
18342385970575,4.270058631896973,-6.631938934326172,6.186617374420166,0.0090501569211483,-0.0018632676219567657,0.008517795242369175
18342387207887,4.225766181945801,-6.6594719886779785,6.175843238830566,0.008783976547420025,-0.0015970865497365594,0.0053236219100654125
18342388445162,4.309563159942627,-6.613982200622559,6.145915985107422,0.008517795242369175,-0.0066545275039970875,0.0015970865497365594
18342389682475,4.264073371887207,-6.6163763999938965,6.1519012451171875,0.008251613937318325,-0.004791259765625,-0.0007985432748682797
18342390919762,4.266467571258545,-6.5960259437561035,6.18182897567749,0.005057440605014563,-0.0023956298828125,0.0005323622026480734
18342392157075,4.273650169372559,-6.566098213195801,6.155492782592773,0.01224433071911335,-0.006122165359556675,0.00692070834338665
18342393394362,4.259284973144531,-6.605602741241455,6.197391033172607,0.010913425125181675,-0.0029279920272529125,0.003460354171693325
18342394631675,4.298789024353027,-6.604405403137207,6.14831018447876,0.0114457868039608,-0.0053236219100654125,0.0010647244052961469
18342395868962,4.265270233154297,-6.606799602508545,6.145915985107422,0.014373779296875,-0.012776692397892475,-0.0007985432748682797
18342397106250,4.260481834411621,-6.570886611938477,6.157886981964111,0.01410759799182415,-0.00958251953125,0.0029279920272529125
18342398343562,4.2963948249816895,-6.569689750671387,6.179434776306152,0.0167694091796875,-0.0013309054775163531,0.005057440605014563
18342399580837,4.270058631896973,-6.59004020690918,6.150704383850098,0.015172322280704975,-0.003460354171693325,0.005855984054505825
18342400818150,4.2544965744018555,-6.57806921005249,6.2392897605896,0.010647243820130825,-0.00692070834338665,-0.0018632676219567657
18342402055450,4.262876033782959,-6.5948286056518555,6.18182897567749,0.01463996060192585,-0.00984870083630085,0.0042588976211845875
18342403292750,4.274847030639648,-6.593631744384766,6.200982570648193,0.0196974016726017,-0.005855984054505825,0.0042588976211845875
18342404530012,4.255693435668945,-6.598420143127441,6.145915985107422,0.01410759799182415,-0.0023956298828125,-0.0015970865497365594
18342405767350,4.234145641326904,-6.5744781494140625,6.1315507888793945,0.013042873702943325,-0.0010647244052961469,-0.0026618109550327063
18342407004625,4.236539840698242,-6.610391139984131,6.154295444488525,0.0181003138422966,-0.003460354171693325,0.0018632676219567657
18342408241925,4.264073371887207,-6.625953197479248,6.156689643859863,0.015172322280704975,-0.00984870083630085,0.005589802749454975
18342409479225,4.278438568115234,-6.611588001251221,6.175843238830566,0.014373779296875,-0.007453070487827063,0.006122165359556675
18342410716525,4.231751441955566,-6.619967937469482,6.163872241973877,0.0173017717897892,-0.0005323622026480734,0.0039927163161337376
18342411953812,4.244919776916504,-6.610391139984131,6.145915985107422,0.0162370465695858,-0.0021294488105922937,0.0015970865497365594
18342413191125,4.252102375030518,-6.6355299949646,6.129156589508057,0.01597086526453495,-0.0007985432748682797,0.0031941730994731188
18342414428412,4.303577423095703,-6.649895191192627,6.14950704574585,0.01756795309484005,-0.005057440605014563,0.0026618109550327063
18342415665712,4.246116638183594,-6.606799602508545,6.187814235687256,0.0196974016726017,-0.008783976547420025,-0.0018632676219567657
18342416903000,4.230554580688477,-6.610391139984131,6.202179431915283,0.0215606689453125,-0.008517795242369175,0.0
18342418140312,4.243722438812256,-6.62236213684082,6.184223175048828,0.0196974016726017,-0.005589802749454975,0.0037265352439135313
18342419377575,4.23773717880249,-6.6355299949646,6.156689643859863,0.01703559048473835,-0.0031941730994731188,0.005057440605014563
18342420614875,4.23893404006958,-6.647500991821289,6.171054840087891,0.01650322787463665,-0.0002661811013240367,0.0018632676219567657
18342421852200,4.242525577545166,-6.671442985534668,6.196194171905518,0.01650322787463665,-0.0021294488105922937,0.0031941730994731188
18342423089500,4.247313976287842,-6.671442985534668,6.18182897567749,0.01703559048473835,-0.0023956298828125,0.00452507846057415
18342424326787,4.246116638183594,-6.66904878616333,6.2201361656188965,0.01703559048473835,0.0026618109550327063,0.005057440605014563
18342425564075,4.242525577545166,-6.654683589935303,6.145915985107422,0.0162370465695858,-0.0007985432748682797,0.0023956298828125
18342426801387,4.206612586975098,-6.689399719238281,6.156689643859863,0.0220930315554142,-0.0039927163161337376,0.0053236219100654125
18342428038675,4.252102375030518,-6.703764915466309,6.129156589508057,0.0186326764523983,-0.0023956298828125,0.0066545275039970875
18342429275962,4.222174644470215,-6.701370716094971,6.200982570648193,0.0162370465695858,-0.0021294488105922937,0.005589802749454975
18342430513275,4.201824188232422,-6.692990779876709,6.143521785736084,0.01836649514734745,0.0021294488105922937,0.010913425125181675
18342431750575,4.2090067863464355,-6.676231384277344,6.161478042602539,0.0138414166867733,-0.0021294488105922937,0.010913425125181675
18342432987862,4.23773717880249,-6.71334171295166,6.186617374420166,0.010114881210029125,-0.0013309054775163531,0.005057440605014563
18342434225162,4.247313976287842,-6.700173377990723,6.215347766876221,0.0138414166867733,0.005057440605014563,0.004791259765625
18342435462437,4.268861770629883,-6.76002836227417,6.1519012451171875,0.01703559048473835,0.0,0.0071868896484375
18342436699750,4.220977783203125,-6.733692169189453,6.200982570648193,0.0119781494140625,-0.0031941730994731188,0.010114881210029125
