timestamp_ns,accel_x,accel_y,accel_z,gyro_x,gyro_y,gyro_z
18844281877312,1.237802267074585,-9.731232643127441,1.5071499347686768,0.0005323622026480734,0.014373779296875,-0.0037265352439135313
18844283114387,1.2832921743392944,-9.710882186889648,1.4927847385406494,0.003460354171693325,0.012776692397892475,-0.0023956298828125
18844284351487,1.258152961730957,-9.709685325622559,1.4915876388549805,0.0042588976211845875,0.007453070487827063,0.0
18844285588575,1.2892776727676392,-9.720458984375,1.456871747970581,-0.0023956298828125,0.00984870083630085,0.0
18844286825662,1.2832921743392944,-9.71926212310791,1.4676456451416016,-0.00452507846057415,0.012776692397892475,-0.0023956298828125
18844288062750,1.314416766166687,-9.704896926879883,1.4903905391693115,-0.003460354171693325,0.013042873702943325,-0.0013309054775163531
18844289299837,1.2653355598449707,-9.710882186889648,1.5095441341400146,0.0015970865497365594,0.008517795242369175,0.0013309054775163531
18844290536925,1.2330138683319092,-9.765949249267578,1.4760253429412842,0.0029279920272529125,0.01224433071911335,-0.0010647244052961469
18844291774000,1.2737152576446533,-9.701305389404297,1.4329297542572021,0.0,0.0186326764523983,0.0023956298828125
18844293011087,1.260547161102295,-9.731232643127441,1.4676456451416016,0.0005323622026480734,0.01463996060192585,-0.0002661811013240367
18844294248175,1.236605167388916,-9.75397777557373,1.4832079410552979,0.0015970865497365594,0.013309055007994175,0.0031941730994731188
18844295485262,1.258152961730957,-9.764751434326172,1.436521053314209,-0.0005323622026480734,0.008251613937318325,0.0015970865497365594
18844296722350,1.3048399686813354,-9.745597839355469,1.4700398445129395,0.0026618109550327063,0.010913425125181675,0.0077192517928779125
18844297959437,1.2988544702529907,-9.737218856811523,1.45806884765625,-0.0010647244052961469,0.0157046839594841,0.008517795242369175
18844299196537,1.3024457693099976,-9.736021041870117,1.4520833492279053,-0.0026618109550327063,0.014373779296875,0.0037265352439135313
18844300433625,1.2713210582733154,-9.750386238098145,1.4101848602294922,-0.0031941730994731188,0.0114457868039608,0.0090501569211483
18844301670700,1.260547161102295,-9.789891242980957,1.4269442558288574,-0.0018632676219567657,0.008517795242369175,0.0090501569211483
18844302907800,1.2725181579589844,-9.791088104248047,1.45806884765625,-0.0066545275039970875,0.010114881210029125,0.003460354171693325
18844304144875,1.2677297592163086,-9.771934509277344,1.4867992401123047,-0.0029279920272529125,0.013309055007994175,0.005589802749454975
18844305381987,1.2617442607879639,-9.77672290802002,1.4616601467132568,-0.004791259765625,0.01703559048473835,0.008517795242369175
18844306619062,1.2856863737106323,-9.77672290802002,1.4640543460845947,-0.00452507846057415,0.010647243820130825,0.005855984054505825
18844307856162,1.291671872138977,-9.769539833068848,1.4520833492279053,-0.0042588976211845875,0.0053236219100654125,0.0042588976211845875
18844309093237,1.2892776727676392,-9.72165584564209,1.4867992401123047,-0.008251613937318325,0.00452507846057415,0.0037265352439135313
18844310330325,1.2761094570159912,-9.730035781860352,1.4688427448272705,-0.007453070487827063,0.007985432632267475,0.0039927163161337376
18844311567412,1.2952631711959839,-9.761160850524902,1.501164436340332,-0.0090501569211483,0.005589802749454975,0.0042588976211845875
18844312804500,1.3180080652236938,-9.785102844238281,1.4724340438842773,-0.003460354171693325,0.0037265352439135313,0.012776692397892475
18844314041587,1.2988544702529907,-9.72165584564209,1.4712369441986084,-0.0071868896484375,0.004791259765625,0.0138414166867733
18844315278700,1.2868834733963013,-9.750386238098145,1.4640543460845947,-0.010647243820130825,0.00984870083630085,0.0066545275039970875
18844316515775,1.2952631711959839,-9.771934509277344,1.4748282432556152,-0.008783976547420025,0.0071868896484375,0.007453070487827063
18844317752850,1.2485761642456055,-9.736021041870117,1.4449007511138916,-0.010381062515079975,0.007453070487827063,0.010913425125181675
18844318989950,1.2617442607879639,-9.704896926879883,1.4844050407409668,-0.008251613937318325,0.0005323622026480734,0.007985432632267475
18844320227025,1.2677297592163086,-9.75278091430664,1.456871747970581,-0.00931633822619915,0.0005323622026480734,0.008783976547420025
18844321464125,1.2797008752822876,-9.72285270690918,1.4520833492279053,-0.0119781494140625,0.0077192517928779125,0.010913425125181675
18844322701225,1.2880805730819702,-9.716867446899414,1.4460978507995605,-0.0181003138422966,0.005057440605014563,-0.0002661811013240367
18844323938300,1.2234370708465576,-9.734824180603027,1.4460978507995605,-0.01410759799182415,0.006122165359556675,0.003460354171693325
18844325175387,1.2808979749679565,-9.68574333190918,1.48081374168396,-0.0071868896484375,0.0007985432748682797,0.0090501569211483
18844326412462,1.2785037755966187,-9.75158405303955,1.4628572463989258,-0.00958251953125,-0.0007985432748682797,0.012776692397892475
18844327649575,1.2485761642456055,-9.773131370544434,1.4437036514282227,-0.015438503585755825,0.0010647244052961469,0.005589802749454975
18844328886650,1.2761094570159912,-9.733627319335938,1.4449007511138916,-0.01357523538172245,-0.0005323622026480734,0.005855984054505825
18844330123737,1.2761094570159912,-9.750386238098145,1.4389152526855469,-0.013309055007994175,0.0005323622026480734,0.005589802749454975
18844331360837,1.238999366760254,-9.747992515563965,1.4748282432556152,-0.0071868896484375,0.0039927163161337376,0.0063883461989462376
18844332597912,1.2617442607879639,-9.725247383117676,1.4401123523712158,-0.013042873702943325,0.007453070487827063,0.0071868896484375
18844333835012,1.2725181579589844,-9.767146110534668,1.4460978507995605,-0.015438503585755825,0.0053236219100654125,0.01117960549890995
18844335072087,1.2270283699035645,-9.81024169921875,1.460463047027588,-0.012776692397892475,0.0039927163161337376,0.0053236219100654125
18844336309175,1.2761094570159912,-9.7791166305542,1.3958195447921753,-0.0119781494140625,0.0071868896484375,0.01171196810901165
18844337546275,1.2892776727676392,-9.782708168029785,1.4724340438842773,-0.015172322280704975,0.005057440605014563,0.013042873702943325
18844338783362,1.290474772453308,-9.783905029296875,1.4736311435699463,-0.01357523538172245,0.0023956298828125,0.0071868896484375
18844340020450,1.2497732639312744,-9.780314445495605,1.4867992401123047,-0.01650322787463665,0.006122165359556675,0.010381062515079975
18844341257525,1.2437877655029297,-9.769539833068848,1.4449007511138916,-0.0186326764523983,0.004791259765625,0.0114457868039608
18844342494612,1.238999366760254,-9.765949249267578,1.4700398445129395,-0.01410759799182415,0.0037265352439135313,0.00452507846057415
18844343731700,1.2808979749679565,-9.7791166305542,1.4975731372833252,-0.0181003138422966,0.0039927163161337376,0.007453070487827063
18844344968800,1.2892776727676392,-9.806650161743164,1.4460978507995605,-0.0191650390625,0.0029279920272529125,0.008517795242369175
18844346205900,1.2808979749679565,-9.807847023010254,1.460463047027588,-0.0138414166867733,0.0018632676219567657,0.010381062515079975
18844347442975,1.2808979749679565,-9.761160850524902,1.478419542312622,-0.0186326764523983,0.007985432632267475,0.00958251953125
18844348680062,1.1959037780761719,-9.807847023010254,1.4472949504852295,-0.0191650390625,0.0015970865497365594,0.004791259765625
18844349917150,1.290474772453308,-9.77791976928711,1.4867992401123047,-0.01889885775744915,0.0,0.0071868896484375
18844351154250,1.2485761642456055,-9.834183692932129,1.4700398445129395,-0.02076212503015995,0.0039927163161337376,0.0114457868039608
18844352391337,1.2557587623596191,-9.781511306762695,1.4053964614868164,-0.0220930315554142,0.0015970865497365594,0.0071868896484375
18844353628412,1.3287819623947144,-9.813833236694336,1.43532395362854,-0.0210283063352108,0.0042588976211845875,-0.0007985432748682797
18844354865512,1.2521674633026123,-9.791088104248047,1.414973258972168,-0.0228915736079216,0.0023956298828125,0.0023956298828125
18844356102587,1.2749123573303223,-9.762357711791992,1.4233529567718506,-0.02182685025036335,0.0013309054775163531,0.0066545275039970875
18844357339687,1.2629413604736328,-9.7420072555542,1.455674648284912,-0.0191650390625,-0.0005323622026480734,0.0029279920272529125
18844358576775,1.2413935661315918,-9.805453300476074,1.4389152526855469,-0.0220930315554142,0.0026618109550327063,-0.0005323622026480734
18844359813875,1.2665326595306396,-9.761160850524902,1.45806884765625,-0.02369011752307415,0.0031941730994731188,0.0010647244052961469
18844361050937,1.2880805730819702,-9.730035781860352,1.4437036514282227,-0.02262539230287075,0.0042588976211845875,0.006122165359556675
18844362288025,1.2629413604736328,-9.761160850524902,1.4712369441986084,-0.0244886614382267,0.0037265352439135313,0.0023956298828125
18844363525112,1.2689268589019775,-9.733627319335938,1.4281413555145264,-0.02369011752307415,0.0,0.005855984054505825
18844364762212,1.290474772453308,-9.700108528137207,1.4113819599151611,-0.0268842913210392,0.0002661811013240367,0.0010647244052961469
18844365999312,1.2509703636169434,-9.737218856811523,1.456871747970581,-0.02608574740588665,0.0002661811013240367,-0.0007985432748682797
18844367236400,1.3084312677383423,-9.703699111938477,1.434126853942871,-0.0244886614382267,0.00452507846057415,0.0063883461989462376
18844368473475,1.3180080652236938,-9.730035781860352,1.4891934394836426,-0.02369011752307415,0.0013309054775163531,0.0007985432748682797
18844369710562,1.259350061416626,-9.730035781860352,1.4425065517425537,-0.02315775491297245,0.00452507846057415,0.0013309054775163531
18844370947662,1.292868971824646,-9.683348655700684,1.3958195447921753,-0.0295461006462574,0.00452507846057415,0.003460354171693325
18844372184750,1.256955862045288,-9.72285270690918,1.4449007511138916,-0.02555338479578495,0.00958251953125,0.0002661811013240367
18844373421825,1.2342109680175781,-9.704896926879883,1.4460978507995605,-0.02182685025036335,0.005057440605014563,0.0013309054775163531
18844374658925,1.2868834733963013,-9.66299819946289,1.3874398469924927,-0.02315775491297245,0.0029279920272529125,0.0002661811013240367
18844375896000,1.2725181579589844,-9.649829864501953,1.4628572463989258,-0.0234239362180233,0.0037265352439135313,0.0007985432748682797
18844377133075,1.2509703636169434,-9.674968719482422,1.4293384552001953,-0.02076212503015995,0.0026618109550327063,-0.0002661811013240367
18844378370175,1.2617442607879639,-9.66299819946289,1.4640543460845947,-0.02369011752307415,-0.0023956298828125,0.0
18844379607262,1.2653355598449707,-9.692925453186035,1.41257905960083,-0.0223592109978199,0.0002661811013240367,0.0023956298828125
18844380844350,1.2892776727676392,-9.668983459472656,1.4257471561431885,-0.02182685025036335,0.0023956298828125,0.00452507846057415
18844382081462,1.2761094570159912,-9.655815124511719,1.478419542312622,-0.0252872034907341,0.0039927163161337376,0.0013309054775163531
18844383318512,1.2282254695892334,-9.684545516967773,1.4640543460845947,-0.0204959437251091,-0.0002661811013240367,0.0042588976211845875
18844384555612,1.2761094570159912,-9.670180320739746,1.4724340438842773,-0.0215606689453125,0.0053236219100654125,0.003460354171693325
18844385792712,1.2485761642456055,-9.727641105651855,1.455674648284912,-0.01943122036755085,0.0021294488105922937,0.003460354171693325
18844387029787,1.2653355598449707,-9.710882186889648,1.4293384552001953,-0.01836649514734745,-0.0002661811013240367,0.0039927163161337376
18844388266900,1.2497732639312744,-9.708487510681152,1.4460978507995605,-0.0186326764523983,0.005057440605014563,0.0042588976211845875
18844389503962,1.2689268589019775,-9.676166534423828,1.459265947341919,-0.0181003138422966,0.0021294488105922937,-0.0005323622026480734
18844390741050,1.2629413604736328,-9.682151794433594,1.4676456451416016,-0.0173017717897892,-0.0026618109550327063,0.0031941730994731188
18844391978137,1.2545616626739502,-9.668983459472656,1.4305355548858643,-0.015172322280704975,0.005057440605014563,0.00692070834338665
18844393215237,1.2641384601593018,-9.68933391571045,1.4760253429412842,-0.01756795309484005,0.0063883461989462376,0.0039927163161337376
18844394452325,1.2306196689605713,-9.672574996948242,1.43532395362854,-0.0191650390625,0.0026618109550327063,0.0029279920272529125
18844395689412,1.238999366760254,-9.657012939453125,1.456871747970581,-0.01756795309484005,0.0031941730994731188,0.0090501569211483
18844396926500,1.2210428714752197,-9.694122314453125,1.4245500564575195,-0.0181003138422966,0.0053236219100654125,0.0090501569211483
18844398163587,1.2198457717895508,-9.709685325622559,1.4293384552001953,-0.015172322280704975,0.0042588976211845875,0.00931633822619915
18844399400687,1.2557587623596191,-9.695320129394531,1.4305355548858643,-0.02076212503015995,0.0042588976211845875,0.007985432632267475
18844400637775,1.2270283699035645,-9.68574333190918,1.434126853942871,-0.01357523538172245,0.0063883461989462376,0.010114881210029125
18844401874850,1.2330138683319092,-9.682151794433594,1.4484920501708984,-0.01171196810901165,0.0063883461989462376,0.0071868896484375
18844403111925,1.2856863737106323,-9.68813705444336,1.4472949504852295,-0.01224433071911335,0.00452507846057415,0.005589802749454975
18844404349025,1.2868834733963013,-9.697713851928711,1.3778630495071411,-0.012510511092841625,0.0031941730994731188,0.00931633822619915
18844405586112,1.2545616626739502,-9.680954933166504,1.434126853942871,-0.0162370465695858,0.0010647244052961469,0.010913425125181675
18844406823200,1.2641384601593018,-9.684545516967773,1.436521053314209,-0.01357523538172245,0.0037265352439135313,0.0114457868039608
18844408060287,1.2988544702529907,-9.66299819946289,1.414973258972168,-0.0071868896484375,0.005057440605014563,0.0114457868039608
18844409297362,1.256955862045288,-9.682151794433594,1.4628572463989258,-0.008517795242369175,0.0090501569211483,0.0138414166867733
18844410534462,1.2964602708816528,-9.72165584564209,1.499967336654663,-0.004791259765625,0.0090501569211483,0.01889885775744915
18844411771562,1.2413935661315918,-9.68574333190918,1.4329297542572021,-0.008783976547420025,0.00984870083630085,0.01224433071911335
18844413008650,1.2413935661315918,-9.636661529541016,1.4520833492279053,-0.008517795242369175,0.0039927163161337376,0.012776692397892475
18844414245737,1.3060370683670044,-9.682151794433594,1.4101848602294922,-0.005057440605014563,0.004791259765625,0.015438503585755825
18844415482812,1.2342109680175781,-9.647436141967773,1.416170358657837,-0.006122165359556675,0.0023956298828125,0.01224433071911335
18844416719900,1.2701239585876465,-9.668983459472656,1.4688427448272705,-0.003460354171693325,-0.0007985432748682797,0.01703559048473835
18844417956975,1.2641384601593018,-9.68813705444336,1.4233529567718506,-0.00692070834338665,0.008783976547420025,0.015438503585755825
18844419194087,1.3048399686813354,-9.6618013381958,1.4449007511138916,-0.007453070487827063,0.010381062515079975,0.015172322280704975
18844420431150,1.259350061416626,-9.651026725769043,1.4053964614868164,-0.0066545275039970875,0.008251613937318325,0.0191650390625
18844421668250,1.2306196689605713,-9.660603523254395,1.4329297542572021,-0.0023956298828125,0.0023956298828125,0.02129448764026165
18844422905350,1.2318167686462402,-9.640253067016602,1.4089877605438232,-0.005589802749454975,0.006122165359556675,0.01224433071911335
18844424142412,1.3000515699386597,-9.667786598205566,1.4305355548858643,-0.00452507846057415,0.005589802749454975,0.0181003138422966
18844425379537,1.2880805730819702,-9.682151794433594,1.4233529567718506,-0.003460354171693325,0.0013309054775163531,0.0247548408806324
18844426616612,1.2749123573303223,-9.671378135681152,1.4269442558288574,-0.0090501569211483,0.008251613937318325,0.02076212503015995
18844427853700,1.2988544702529907,-9.670180320739746,1.414973258972168,-0.0042588976211845875,0.0071868896484375,0.01703559048473835
18844429090775,1.290474772453308,-9.695320129394531,1.414973258972168,-0.0010647244052961469,0.005589802749454975,0.01783413253724575
18844430327862,1.2964602708816528,-9.654618263244629,1.48081374168396,-0.003460354171693325,0.0066545275039970875,0.0157046839594841
18844431564950,1.2545616626739502,-9.683348655700684,1.414973258972168,-0.005057440605014563,0.008517795242369175,0.01756795309484005
18844432802037,1.2677297592163086,-9.667786598205566,1.4496891498565674,-0.00452507846057415,0.0015970865497365594,0.0167694091796875
18844434039150,1.2677297592163086,-9.68813705444336,1.4496891498565674,-0.0031941730994731188,0.00692070834338665,0.0162370465695858
18844435276212,1.2832921743392944,-9.672574996948242,1.436521053314209,-0.0026618109550327063,0.0071868896484375,0.0167694091796875
18844436513325,1.2725181579589844,-9.715670585632324,1.4269442558288574,-0.0026618109550327063,0.005057440605014563,0.0173017717897892
18844437750400,1.2641384601593018,-9.700108528137207,1.4329297542572021,0.0005323622026480734,0.0,0.015438503585755825
18844438987475,1.2797008752822876,-9.676166534423828,1.4484920501708984,0.003460354171693325,0.0005323622026480734,0.0181003138422966
18844440224575,1.2521674633026123,-9.702502250671387,1.4089877605438232,-0.0026618109550327063,0.0090501569211483,0.0220930315554142
18844441461662,1.2701239585876465,-9.731232643127441,1.4437036514282227,0.0002661811013240367,0.006122165359556675,0.0204959437251091
18844442698762,1.258152961730957,-9.700108528137207,1.43532395362854,0.00452507846057415,0.007985432632267475,0.01889885775744915
18844443935837,1.2629413604736328,-9.709685325622559,1.4173674583435059,0.0015970865497365594,0.00984870083630085,0.01836649514734745
18844445172912,1.259350061416626,-9.731232643127441,1.4425065517425537,0.007453070487827063,0.0042588976211845875,0.02022976242005825
18844446410000,1.2294225692749023,-9.668983459472656,1.4018051624298096,-0.0010647244052961469,0.006122165359556675,0.01889885775744915
18844447647112,1.2186486721038818,-9.692925453186035,1.4401123523712158,-0.0021294488105922937,0.0063883461989462376,0.015172322280704975
18844448884187,1.2497732639312744,-9.672574996948242,1.4460978507995605,0.0015970865497365594,0.005855984054505825,0.015172322280704975
18844450121275,1.2713210582733154,-9.66299819946289,1.4449007511138916,-0.0018632676219567657,0.010381062515079975,0.02129448764026165
18844451358375,1.291671872138977,-9.709685325622559,1.4544775485992432,0.0021294488105922937,0.005589802749454975,0.01943122036755085
18844452595450,1.2701239585876465,-9.713275909423828,1.4257471561431885,0.0071868896484375,0.004791259765625,0.01836649514734745
18844453832550,1.2725181579589844,-9.691728591918945,1.4209587574005127,0.0053236219100654125,0.0053236219100654125,0.01889885775744915
18844455069650,1.2701239585876465,-9.653421401977539,1.4077906608581543,0.0013309054775163531,0.0066545275039970875,0.015172322280704975
18844456306725,1.290474772453308,-9.670180320739746,1.459265947341919,0.0037265352439135313,0.0042588976211845875,0.01889885775744915
18844457543800,1.2509703636169434,-9.690531730651855,1.41257905960083,0.005589802749454975,0.0023956298828125,0.0167694091796875
18844458780887,1.256955862045288,-9.71926212310791,1.456871747970581,0.0077192517928779125,0.00452507846057415,0.01836649514734745
18844460017987,1.2785037755966187,-9.672574996948242,1.4293384552001953,0.005855984054505825,0.007453070487827063,0.01756795309484005
18844461255062,1.2737152576446533,-9.676166534423828,1.4030022621154785,0.0029279920272529125,0.0026618109550327063,0.01597086526453495
18844462492162,1.2689268589019775,-9.66299819946289,1.4389152526855469,0.0015970865497365594,-0.0005323622026480734,0.0173017717897892
18844463729250,1.2725181579589844,-9.68933391571045,1.4077906608581543,0.0031941730994731188,0.0010647244052961469,0.0204959437251091
18844464966337,1.2246341705322266,-9.68933391571045,1.3946224451065063,0.0053236219100654125,0.0031941730994731188,0.01756795309484005
18844466203425,1.256955862045288,-9.668983459472656,1.4245500564575195,0.004791259765625,0.0002661811013240367,0.0204959437251091
18844467440512,1.2629413604736328,-9.679757118225098,1.4484920501708984,0.0037265352439135313,0.0029279920272529125,0.0263519287109375
18844468677600,1.2868834733963013,-9.670180320739746,1.4867992401123047,0.003460354171693325,0.0026618109550327063,0.023956298828125
18844469914687,1.2773066759109497,-9.700108528137207,1.4173674583435059,0.00692070834338665,0.0018632676219567657,0.0204959437251091
18844471151775,1.259350061416626,-9.695320129394531,1.4401123523712158,0.010381062515079975,0.007985432632267475,0.0186326764523983
18844472388875,1.256955862045288,-9.701305389404297,1.4437036514282227,0.00692070834338665,0.0010647244052961469,0.0234239362180233
18844473625962,1.2461819648742676,-9.714473724365234,1.4245500564575195,0.0090501569211483,-0.0015970865497365594,0.02555338479578495
18844474863050,1.2449848651885986,-9.715670585632324,1.381454348564148,0.00692070834338665,0.0010647244052961469,0.0220930315554142
18844476100137,1.2892776727676392,-9.737218856811523,1.4113819599151611,0.0071868896484375,0.0021294488105922937,0.01943122036755085
18844477337225,1.256955862045288,-9.702502250671387,1.43532395362854,0.006122165359556675,-0.0015970865497365594,0.023956298828125
18844478574312,1.2785037755966187,-9.732430458068848,1.4233529567718506,0.007453070487827063,-0.0021294488105922937,0.0282151959836483
18844479811400,1.2437877655029297,-9.727641105651855,1.4520833492279053,0.010647243820130825,0.0013309054775163531,0.02422248013317585
18844481048487,1.2797008752822876,-9.697713851928711,1.4472949504852295,0.0039927163161337376,0.0015970865497365594,0.02022976242005825
18844482285562,1.2749123573303223,-9.75517463684082,1.4065935611724854,0.004791259765625,0.0013309054775163531,0.023956298828125
18844483522662,1.2677297592163086,-9.720458984375,1.4484920501708984,0.00931633822619915,0.0021294488105922937,0.023956298828125
18844484759750,1.2473790645599365,-9.72285270690918,1.50355863571167,0.008783976547420025,0.0010647244052961469,0.01996358297765255
18844485996850,1.2425906658172607,-9.734824180603027,1.4173674583435059,0.0066545275039970875,0.0013309054775163531,0.0263519287109375
18844487233900,1.2677297592163086,-9.683348655700684,1.437718152999878,0.0077192517928779125,-0.00452507846057415,0.02369011752307415
18844488471025,1.2725181579589844,-9.714473724365234,1.4053964614868164,0.0077192517928779125,-0.0010647244052961469,0.02182685025036335
18844489708112,1.2892776727676392,-9.786299705505371,1.4508862495422363,0.003460354171693325,-0.0005323622026480734,0.02262539230287075
18844490945200,1.258152961730957,-9.746795654296875,1.436521053314209,0.008783976547420025,-0.0005323622026480734,0.0220930315554142
18844492182300,1.2485761642456055,-9.701305389404297,1.4329297542572021,0.0066545275039970875,-0.0018632676219567657,0.0191650390625
18844493419375,1.259350061416626,-9.72165584564209,1.4712369441986084,0.007985432632267475,-0.0023956298828125,0.02022976242005825
18844494656462,1.2509703636169434,-9.7420072555542,1.4317326545715332,0.01171196810901165,0.0,0.02315775491297245
18844495893537,1.2701239585876465,-9.694122314453125,1.4628572463989258,0.010647243820130825,-0.0026618109550327063,0.023956298828125
18844497130637,1.2880805730819702,-9.727641105651855,1.45806884765625,0.0066545275039970875,-0.006122165359556675,0.02369011752307415
18844498367725,1.2749123573303223,-9.668983459472656,1.4317326545715332,0.005057440605014563,-0.0013309054775163531,0.0263519287109375
18844499604800,1.2425906658172607,-9.707290649414062,1.4065935611724854,0.007453070487827063,-0.0010647244052961469,0.02422248013317585
18844500841900,1.2545616626739502,-9.736021041870117,1.4700398445129395,0.012776692397892475,-0.0031941730994731188,0.0244886614382267
18844502079012,1.2413935661315918,-9.737218856811523,1.4724340438842773,0.0071868896484375,-0.0021294488105922937,0.02502102218568325
18844503316087,1.236605167388916,-9.731232643127441,1.4508862495422363,0.0071868896484375,-0.0031941730994731188,0.0247548408806324
18844504553175,1.2401964664459229,-9.697713851928711,1.4221558570861816,0.01597086526453495,-0.007453070487827063,0.02608574740588665
18844505790262,1.2485761642456055,-9.701305389404297,1.437718152999878,0.01650322787463665,-0.00452507846057415,0.0268842913210392
18844507027337,1.2509703636169434,-9.747992515563965,1.437718152999878,0.00984870083630085,-0.004791259765625,0.0228915736079216
18844508264437,1.215057373046875,-9.740809440612793,1.4389152526855469,0.012510511092841625,-0.0090501569211483,0.0247548408806324
18844509501525,1.2090718746185303,-9.714473724365234,1.4329297542572021,0.010381062515079975,-0.0037265352439135313,0.02608574740588665
18844510738612,1.2785037755966187,-9.710882186889648,1.4508862495422363,0.00692070834338665,-0.0026618109550327063,0.0247548408806324
18844511975700,1.236605167388916,-9.720458984375,1.4449007511138916,0.00931633822619915,-0.008517795242369175,0.0228915736079216
18844513212787,1.2521674633026123,-9.712079048156738,1.499967336654663,0.010647243820130825,-0.0066545275039970875,0.0282151959836483
18844514449875,1.2677297592163086,-9.7420072555542,1.48081374168396,0.01171196810901165,0.0,0.02848137728869915
18844515686962,1.2018892765045166,-9.745597839355469,1.4437036514282227,0.008783976547420025,-0.005855984054505825,0.02874755859375
18844516924075,1.2282254695892334,-9.736021041870117,1.456871747970581,0.010647243820130825,-0.01171196810901165,0.0263519287109375
18844518161162,1.2401964664459229,-9.727641105651855,1.4245500564575195,0.0114457868039608,-0.008251613937318325,0.02741665206849575
18844519398237,1.2617442607879639,-9.745597839355469,1.4724340438842773,0.01224433071911335,-0.005855984054505825,0.0234239362180233
18844520635325,1.2425906658172607,-9.708487510681152,1.4760253429412842,0.008517795242369175,-0.00692070834338665,0.02315775491297245
18844521872412,1.259350061416626,-9.737218856811523,1.4401123523712158,0.007985432632267475,-0.0063883461989462376,0.02315775491297245
18844523109512,1.2234370708465576,-9.730035781860352,1.4700398445129395,0.00958251953125,-0.0066545275039970875,0.0263519287109375
18844524346587,1.2725181579589844,-9.77552604675293,1.4257471561431885,0.0063883461989462376,-0.0090501569211483,0.02741665206849575
18844525583675,1.2401964664459229,-9.75278091430664,1.479616641998291,0.010381062515079975,-0.010381062515079975,0.02315775491297245
18844526820762,1.2497732639312744,-9.730035781860352,1.436521053314209,0.01224433071911335,-0.007985432632267475,0.02262539230287075
18844528057850,1.2114660739898682,-9.734824180603027,1.455674648284912,0.007453070487827063,-0.010114881210029125,0.0234239362180233
18844529294950,1.2413935661315918,-9.764751434326172,1.4437036514282227,0.010647243820130825,-0.0063883461989462376,0.0258195661008358
18844530532037,1.258152961730957,-9.764751434326172,1.4760253429412842,0.0090501569211483,-0.008517795242369175,0.02608574740588665
18844531769100,1.2401964664459229,-9.71926212310791,1.4209587574005127,0.010114881210029125,-0.01117960549890995,0.02262539230287075
18844533006212,1.256955862045288,-9.756372451782227,1.4329297542572021,0.010114881210029125,-0.0077192517928779125,0.0244886614382267
18844534243287,1.2246341705322266,-9.737218856811523,1.482010841369629,0.00984870083630085,-0.01171196810901165,0.02874755859375
18844535480375,1.2114660739898682,-9.7420072555542,1.4664485454559326,0.008783976547420025,-0.010913425125181675,0.02502102218568325
18844536717475,1.2449848651885986,-9.738415718078613,1.4472949504852295,0.0077192517928779125,-0.00984870083630085,0.0223592109978199
18844537954575,1.2737152576446533,-9.743204116821289,1.455674648284912,0.010647243820130825,-0.0090501569211483,0.0234239362180233
18844539191650,1.2222399711608887,-9.733627319335938,1.4425065517425537,0.012776692397892475,-0.015172322280704975,0.0210283063352108
18844540428737,1.2653355598449707,-9.709685325622559,1.4712369441986084,0.0071868896484375,-0.013309055007994175,0.02022976242005825
18844541665825,1.2785037755966187,-9.727641105651855,1.4652514457702637,0.0066545275039970875,-0.007985432632267475,0.0162370465695858
18844542902925,1.2761094570159912,-9.727641105651855,1.4544775485992432,0.00931633822619915,-0.01171196810901165,0.02129448764026165
18844544140000,1.215057373046875,-9.739612579345703,1.4736311435699463,0.007985432632267475,-0.01357523538172245,0.023956298828125
18844545377075,1.2318167686462402,-9.713275909423828,1.4520833492279053,0.00984870083630085,-0.013042873702943325,0.0186326764523983
18844546614187,1.2282254695892334,-9.734824180603027,1.4772224426269531,0.007453070487827063,-0.01117960549890995,0.0157046839594841
18844547851275,1.2653355598449707,-9.737218856811523,1.4736311435699463,0.008783976547420025,-0.010381062515079975,0.015438503585755825
18844549088375,1.2282254695892334,-9.703699111938477,1.45806884765625,0.008517795242369175,-0.015172322280704975,0.0173017717897892
18844550325437,1.2306196689605713,-9.727641105651855,1.456871747970581,0.005057440605014563,-0.0119781494140625,0.01889885775744915
18844551562537,1.1959037780761719,-9.710882186889648,1.3982137441635132,0.004791259765625,-0.008783976547420025,0.015172322280704975
18844552799637,1.1791443824768066,-9.731232643127441,1.43532395362854,0.008251613937318325,-0.0063883461989462376,0.014373779296875
18844554036712,1.2078747749328613,-9.713275909423828,1.4496891498565674,0.0031941730994731188,-0.0063883461989462376,0.0181003138422966
18844555273800,1.1755530834197998,-9.714473724365234,1.4437036514282227,0.007985432632267475,-0.010114881210029125,0.0157046839594841
18844556510887,1.1982979774475098,-9.737218856811523,1.4077906608581543,0.010913425125181675,-0.010913425125181675,0.01836649514734745
18844557747987,1.2102689743041992,-9.738415718078613,1.43532395362854,0.010647243820130825,-0.0162370465695858,0.02076212503015995
18844558985075,1.2258312702178955,-9.715670585632324,1.4532804489135742,0.00692070834338665,-0.01463996060192585,0.0204959437251091
18844560222150,1.2042834758758545,-9.714473724365234,1.4736311435699463,0.008251613937318325,-0.014373779296875,0.0191650390625
18844561459237,1.2401964664459229,-9.739612579345703,1.4712369441986084,0.0053236219100654125,-0.01117960549890995,0.0223592109978199
18844562696325,1.2006921768188477,-9.75517463684082,1.4437036514282227,0.0066545275039970875,-0.01171196810901165,0.02129448764026165
18844563933412,1.2066776752471924,-9.732430458068848,1.4544775485992432,0.0053236219100654125,-0.013042873702943325,0.02315775491297245
18844565170512,1.1982979774475098,-9.718064308166504,1.4508862495422363,0.00931633822619915,-0.01410759799182415,0.0186326764523983
18844566407612,1.171961784362793,-9.708487510681152,1.4077906608581543,0.00692070834338665,-0.010114881210029125,0.01756795309484005
18844567644687,1.1887211799621582,-9.747992515563965,1.434126853942871,0.007453070487827063,-0.01224433071911335,0.0215606689453125
18844568881775,1.2234370708465576,-9.737218856811523,1.4221558570861816,0.010647243820130825,-0.013042873702943325,0.01943122036755085
18844570118862,1.1899182796478271,-9.761160850524902,1.4856021404266357,0.01224433071911335,-0.01463996060192585,0.02315775491297245
18844571355950,1.1647791862487793,-9.774328231811523,1.4628572463989258,0.00958251953125,-0.00958251953125,0.0223592109978199
18844572593037,1.1994950771331787,-9.759963035583496,1.459265947341919,0.007453070487827063,-0.008251613937318325,0.02022976242005825
18844573830137,1.194706678390503,-9.733627319335938,1.4700398445129395,0.0031941730994731188,-0.01224433071911335,0.01836649514734745
18844575067212,1.1815385818481445,-9.781511306762695,1.4760253429412842,0.006122165359556675,-0.013309055007994175,0.02555338479578495
18844576304312,1.1899182796478271,-9.730035781860352,1.499967336654663,0.00452507846057415,-0.013309055007994175,0.0204959437251091
18844577541387,1.213860273361206,-9.702502250671387,1.4532804489135742,0.005057440605014563,-0.01357523538172245,0.0204959437251091
18844578778475,1.1971008777618408,-9.75397777557373,1.4688427448272705,0.0053236219100654125,-0.008517795242369175,0.0181003138422966
18844580015575,1.1875240802764893,-9.747992515563965,1.460463047027588,0.007985432632267475,-0.00931633822619915,0.0162370465695858
18844581252675,1.1863269805908203,-9.750386238098145,1.478419542312622,0.008783976547420025,-0.012776692397892475,0.01783413253724575
18844582489750,1.192312479019165,-9.757569313049316,1.48081374168396,0.0077192517928779125,-0.0157046839594841,0.0191650390625
18844583726850,1.2006921768188477,-9.736021041870117,1.4389152526855469,0.010381062515079975,-0.0119781494140625,0.0204959437251091
18844584963937,1.1480196714401245,-9.704896926879883,1.456871747970581,0.0077192517928779125,-0.00931633822619915,0.0196974016726017
18844586201037,1.213860273361206,-9.731232643127441,1.4844050407409668,0.005057440605014563,-0.00984870083630085,0.0196974016726017
18844587438087,1.1779472827911377,-9.718064308166504,1.4832079410552979,0.0066545275039970875,-0.007985432632267475,0.0186326764523983
18844588675187,1.2018892765045166,-9.736021041870117,1.5095441341400146,0.003460354171693325,-0.0090501569211483,0.01783413253724575
18844589912275,1.2054805755615234,-9.712079048156738,1.4484920501708984,0.0023956298828125,-0.0090501569211483,0.01783413253724575
18844591149362,1.1683704853057861,-9.68694019317627,1.4209587574005127,0.005589802749454975,-0.00692070834338665,0.0204959437251091
18844592386462,1.1815385818481445,-9.720458984375,1.4496891498565674,0.00692070834338665,-0.008251613937318325,0.01836649514734745
18844593623550,1.2078747749328613,-9.749189376831055,1.4700398445129395,-0.0005323622026480734,-0.0037265352439135313,0.01889885775744915
18844594860625,1.2090718746185303,-9.700108528137207,1.4856021404266357,-0.0010647244052961469,-0.008517795242369175,0.0173017717897892
18844596097725,1.1683704853057861,-9.68574333190918,1.4413094520568848,0.0037265352439135313,-0.01171196810901165,0.01836649514734745
18844597334812,1.1971008777618408,-9.703699111938477,1.48081374168396,0.0031941730994731188,-0.010647243820130825,0.01703559048473835
18844598571900,1.2066776752471924,-9.720458984375,1.4772224426269531,0.004791259765625,-0.01117960549890995,0.0181003138422966
18844599808987,1.2078747749328613,-9.725247383117676,1.460463047027588,0.00984870083630085,-0.014906140975654125,0.0191650390625
18844601046100,1.2294225692749023,-9.744400978088379,1.4688427448272705,0.008783976547420025,-0.01171196810901165,0.02315775491297245
18844602283162,1.1827356815338135,-9.714473724365234,1.4233529567718506,0.0053236219100654125,-0.008517795242369175,0.015172322280704975
18844603520262,1.1827356815338135,-9.710882186889648,1.4700398445129395,0.00452507846057415,-0.008517795242369175,0.012510511092841625
18844604757350,1.1803414821624756,-9.725247383117676,1.4628572463989258,0.004791259765625,-0.005855984054505825,0.015438503585755825
18844605994425,1.2066776752471924,-9.710882186889648,1.4652514457702637,0.0026618109550327063,-0.0031941730994731188,0.012510511092841625
18844607231500,1.1552022695541382,-9.740809440612793,1.4508862495422363,0.0031941730994731188,-0.00452507846057415,0.012510511092841625
18844608468587,1.1264718770980835,-9.739612579345703,1.4772224426269531,0.007453070487827063,-0.008783976547420025,0.0138414166867733
18844609705687,1.1587936878204346,-9.734824180603027,1.4269442558288574,0.0063883461989462376,-0.01117960549890995,0.0167694091796875
18844610942775,1.1647791862487793,-9.746795654296875,1.5083470344543457,0.00692070834338665,-0.005855984054505825,0.00984870083630085
18844612179887,1.136048674583435,-9.720458984375,1.4844050407409668,0.0021294488105922937,-0.0063883461989462376,0.013309055007994175
18844613416950,1.1504138708114624,-9.724050521850586,1.4449007511138916,0.0031941730994731188,-0.0066545275039970875,0.0138414166867733
18844614654050,1.1779472827911377,-9.762357711791992,1.4460978507995605,0.0031941730994731188,-0.00452507846057415,0.008783976547420025
18844615891125,1.1815385818481445,-9.759963035583496,1.4437036514282227,0.0010647244052961469,0.0010647244052961469,0.012776692397892475
18844617128237,1.1575965881347656,-9.749189376831055,1.45806884765625,0.0023956298828125,-0.0021294488105922937,0.0138414166867733
18844618365312,1.1540051698684692,-9.761160850524902,1.4520833492279053,0.004791259765625,-0.0023956298828125,0.008517795242369175
18844619602412,1.1336544752120972,-9.683348655700684,1.4628572463989258,0.0029279920272529125,0.0071868896484375,0.00984870083630085
18844620839487,1.2090718746185303,-9.739612579345703,1.3922282457351685,0.0010647244052961469,-0.0005323622026480734,0.010913425125181675
18844622076587,1.192312479019165,-9.756372451782227,1.4628572463989258,-0.0023956298828125,-0.0039927163161337376,0.01889885775744915
18844623313650,1.1827356815338135,-9.762357711791992,1.45806884765625,0.0031941730994731188,-0.0015970865497365594,0.0191650390625
18844624550750,1.1516109704971313,-9.733627319335938,1.4508862495422363,0.0,-0.0031941730994731188,0.01224433071911335
18844625787837,1.1815385818481445,-9.714473724365234,1.4317326545715332,-0.0021294488105922937,-0.0007985432748682797,0.0077192517928779125
18844627024950,1.1611878871917725,-9.720458984375,1.5083470344543457,-0.0007985432748682797,-0.0018632676219567657,0.00984870083630085
18844628262025,1.1264718770980835,-9.679757118225098,1.4712369441986084,-0.0029279920272529125,-0.0002661811013240367,0.010647243820130825
18844629499112,1.173158884048462,-9.707290649414062,1.4760253429412842,-0.0005323622026480734,-0.0015970865497365594,0.015172322280704975
18844630736200,1.1683704853057861,-9.684545516967773,1.4520833492279053,0.003460354171693325,0.0005323622026480734,0.0114457868039608
18844631973287,1.1635820865631104,-9.703699111938477,1.4951789379119873,0.0023956298828125,0.0015970865497365594,0.010913425125181675
18844633210387,1.1863269805908203,-9.731232643127441,1.4712369441986084,-0.0039927163161337376,0.005589802749454975,0.01463996060192585
18844634447462,1.1683704853057861,-9.676166534423828,1.4496891498565674,0.0007985432748682797,0.007453070487827063,0.0119781494140625
18844635684550,1.171961784362793,-9.701305389404297,1.456871747970581,0.0037265352439135313,0.0031941730994731188,0.0114457868039608
18844636921650,1.1492167711257935,-9.71926212310791,1.437718152999878,0.0018632676219567657,0.0023956298828125,0.01463996060192585
18844638158737,1.1563994884490967,-9.701305389404297,1.4401123523712158,-0.0021294488105922937,0.005057440605014563,0.006122165359556675
18844639395825,1.1432312726974487,-9.733627319335938,1.4628572463989258,0.0018632676219567657,0.005855984054505825,0.015438503585755825
18844640632925,1.1288660764694214,-9.75278091430664,1.5131354331970215,0.0005323622026480734,0.003460354171693325,0.015438503585755825
18844641869987,1.1480196714401245,-9.708487510681152,1.48081374168396,0.00692070834338665,0.0031941730994731188,0.01410759799182415
18844643107087,1.171961784362793,-9.71926212310791,1.4903905391693115,0.0015970865497365594,0.0031941730994731188,0.007985432632267475
18844644344162,1.1324573755264282,-9.763554573059082,1.499967336654663,0.0013309054775163531,0.0066545275039970875,0.0114457868039608
18844645581262,1.1815385818481445,-9.737218856811523,1.5083470344543457,-0.0018632676219567657,0.01117960549890995,0.01650322787463665
18844646818350,1.139639973640442,-9.761160850524902,1.4772224426269531,0.0002661811013240367,0.00958251953125,0.01889885775744915
18844648055450,1.138442873954773,-9.75278091430664,1.3982137441635132,-0.0007985432748682797,0.00692070834338665,0.013309055007994175
18844649292537,1.1504138708114624,-9.759963035583496,1.455674648284912,0.0002661811013240367,0.0066545275039970875,0.0167694091796875
18844650529612,1.2018892765045166,-9.732430458068848,1.479616641998291,0.0010647244052961469,0.0066545275039970875,0.01836649514734745
18844651766712,1.1647791862487793,-9.71926212310791,1.4233529567718506,0.0026618109550327063,0.00958251953125,0.01650322787463665
18844653003800,1.1528080701828003,-9.762357711791992,1.3994109630584717,0.0023956298828125,0.0077192517928779125,0.0215606689453125
18844654240887,1.194706678390503,-9.736021041870117,1.4305355548858643,0.0,0.008783976547420025,0.01703559048473835
18844655477987,1.1851298809051514,-9.733627319335938,1.5203181505203247,0.0013309054775163531,0.00452507846057415,0.02182685025036335
18844656715062,1.1599907875061035,-9.6989107131958,1.4772224426269531,0.0,0.0114457868039608,0.02022976242005825
18844657952150,1.171961784362793,-9.736021041870117,1.459265947341919,-0.0077192517928779125,0.01224433071911335,0.0204959437251091
18844659189250,1.1851298809051514,-9.728838920593262,1.4736311435699463,-0.005057440605014563,0.0119781494140625,0.0157046839594841
18844660426325,1.237802267074585,-9.739612579345703,1.4676456451416016,-0.0015970865497365594,0.01171196810901165,0.0114457868039608
18844661663425,1.169567584991455,-9.743204116821289,1.4724340438842773,-0.0018632676219567657,0.012776692397892475,0.014373779296875
18844662900500,1.1827356815338135,-9.765949249267578,1.4496891498565674,-0.0002661811013240367,0.012776692397892475,0.0167694091796875
18844664137587,1.1815385818481445,-9.762357711791992,1.4832079410552979,0.0002661811013240367,0.010913425125181675,0.012776692397892475
18844665374675,1.1791443824768066,-9.716867446899414,1.4664485454559326,-0.0018632676219567657,0.012776692397892475,0.0167694091796875
18844666611775,1.1755530834197998,-9.739612579345703,1.4712369441986084,-0.0042588976211845875,0.012776692397892475,0.01703559048473835
18844667848862,1.2042834758758545,-9.750386238098145,1.4460978507995605,-0.0021294488105922937,0.01597086526453495,0.013042873702943325
18844669085950,1.1815385818481445,-9.697713851928711,1.4724340438842773,-0.0039927163161337376,0.01410759799182415,0.0114457868039608
18844670323037,1.2413935661315918,-9.714473724365234,1.4101848602294922,-0.005057440605014563,0.013042873702943325,0.010381062515079975
18844671560125,1.2186486721038818,-9.720458984375,1.456871747970581,-0.0042588976211845875,0.010913425125181675,0.012510511092841625
18844672797212,1.1779472827911377,-9.695320129394531,1.478419542312622,-0.0018632676219567657,0.0090501569211483,0.01357523538172245
18844674034300,1.1683704853057861,-9.668983459472656,1.48081374168396,-0.0021294488105922937,0.012776692397892475,0.01357523538172245
18844675271400,1.217451572418213,-9.71926212310791,1.502361536026001,-0.0013309054775163531,0.01410759799182415,0.015172322280704975
18844676508487,1.1887211799621582,-9.690531730651855,1.4401123523712158,-0.0021294488105922937,0.01224433071911335,0.012776692397892475
18844677745575,1.1647791862487793,-9.72165584564209,1.4413094520568848,-0.0063883461989462376,0.00958251953125,0.01410759799182415
18844678982650,1.1982979774475098,-9.709685325622559,1.459265947341919,-0.0010647244052961469,0.008517795242369175,0.012776692397892475
18844680219762,1.2066776752471924,-9.728838920593262,1.4867992401123047,-0.007985432632267475,0.013042873702943325,0.0071868896484375
18844681456850,1.2210428714752197,-9.704896926879883,1.4963760375976562,-0.005589802749454975,0.01224433071911335,0.0114457868039608
18844682693937,1.1959037780761719,-9.715670585632324,1.4269442558288574,-0.0013309054775163531,0.0114457868039608,0.0167694091796875
18844683931012,1.235408067703247,-9.75158405303955,1.4413094520568848,-0.0053236219100654125,0.010114881210029125,0.0181003138422966
18844685168112,1.2090718746185303,-9.746795654296875,1.4628572463989258,-0.0114457868039608,0.0090501569211483,0.010381062515079975
18844686405200,1.1887211799621582,-9.759963035583496,1.4449007511138916,-0.00958251953125,0.0167694091796875,0.007453070487827063
18844687642275,1.1839327812194824,-9.68694019317627,1.4975731372833252,-0.00452507846057415,0.01836649514734745,0.012776692397892475
18844688879387,1.1959037780761719,-9.733627319335938,1.4832079410552979,-0.0026618109550327063,0.0119781494140625,0.013309055007994175
18844690116475,1.2186486721038818,-9.762357711791992,1.4413094520568848,-0.0077192517928779125,0.00931633822619915,0.01410759799182415
18844691353562,1.213860273361206,-9.773131370544434,1.4724340438842773,-0.008251613937318325,0.008517795242369175,0.0119781494140625
18844692590675,1.1982979774475098,-9.761160850524902,1.460463047027588,-0.005589802749454975,0.00958251953125,0.0167694091796875
18844693827737,1.1994950771331787,-9.793481826782227,1.4532804489135742,-0.005589802749454975,0.01463996060192585,0.010381062515079975
18844695064825,1.169567584991455,-9.78869342803955,1.4676456451416016,-0.005057440605014563,0.01410759799182415,0.0063883461989462376
18844696301912,1.1875240802764893,-9.763554573059082,1.4748282432556152,-0.0071868896484375,0.01783413253724575,0.01224433071911335
18844697539000,1.213860273361206,-9.750386238098145,1.478419542312622,-0.010647243820130825,0.0138414166867733,0.01357523538172245
18844698776087,1.2006921768188477,-9.712079048156738,1.5095441341400146,-0.008783976547420025,0.015438503585755825,0.01357523538172245
18844700013175,1.1791443824768066,-9.738415718078613,1.4700398445129395,-0.007453070487827063,0.013309055007994175,0.0138414166867733
18844701250262,1.2018892765045166,-9.730035781860352,1.4664485454559326,-0.01117960549890995,0.01996358297765255,0.0157046839594841
18844702487362,1.2294225692749023,-9.724050521850586,1.4700398445129395,-0.0090501569211483,0.0162370465695858,0.0173017717897892
18844703724450,1.2222399711608887,-9.703699111938477,1.4425065517425537,-0.0090501569211483,0.01224433071911335,0.01357523538172245
18844704961525,1.1659762859344482,-9.75517463684082,1.4664485454559326,-0.007453070487827063,0.01783413253724575,0.013042873702943325
18844706198637,1.1827356815338135,-9.709685325622559,1.4712369441986084,-0.0090501569211483,0.01650322787463665,0.014373779296875
18844707435725,1.212663173675537,-9.732430458068848,1.4748282432556152,-0.0077192517928779125,0.010647243820130825,0.013309055007994175
18844708672800,1.212663173675537,-9.702502250671387,1.48081374168396,-0.008251613937318325,0.0173017717897892,0.015172322280704975
18844709909900,1.2006921768188477,-9.704896926879883,1.4544775485992432,-0.0039927163161337376,0.0186326764523983,0.01224433071911335
18844711146962,1.2066776752471924,-9.715670585632324,1.4317326545715332,-0.003460354171693325,0.00931633822619915,0.00984870083630085
18844712384062,1.2234370708465576,-9.68813705444336,1.48081374168396,-0.008517795242369175,0.00984870083630085,0.00931633822619915
18844713621162,1.2102689743041992,-9.702502250671387,1.45806884765625,-0.004791259765625,0.0167694091796875,0.01224433071911335
18844714858237,1.1863269805908203,-9.701305389404297,1.4700398445129395,-0.0013309054775163531,0.0119781494140625,0.01597086526453495
18844716095337,1.2270283699035645,-9.728838920593262,1.4856021404266357,-0.0053236219100654125,0.012510511092841625,0.01410759799182415
18844717332425,1.237802267074585,-9.694122314453125,1.4472949504852295,-0.0053236219100654125,0.01463996060192585,0.01703559048473835
18844718569512,1.2533645629882812,-9.706093788146973,1.4293384552001953,-0.0037265352439135313,0.014373779296875,0.015172322280704975
18844719806612,1.2222399711608887,-9.736021041870117,1.4449007511138916,-0.0031941730994731188,0.012510511092841625,0.014373779296875
18844721043687,1.235408067703247,-9.706093788146973,1.45806884765625,-0.0023956298828125,0.01171196810901165,0.01756795309484005
18844722280775,1.192312479019165,-9.66539192199707,1.5059528350830078,-0.0026618109550327063,0.01703559048473835,0.012776692397892475
18844723517875,1.1982979774475098,-9.695320129394531,1.4616601467132568,-0.0021294488105922937,0.015438503585755825,0.012776692397892475
18844724754962,1.192312479019165,-9.713275909423828,1.4449007511138916,-0.0021294488105922937,0.013309055007994175,0.0204959437251091
18844725992050,1.2533645629882812,-9.706093788146973,1.4724340438842773,0.0005323622026480734,0.0114457868039608,0.0167694091796875
18844727229137,1.170764684677124,-9.733627319335938,1.4640543460845947,-0.0021294488105922937,0.0157046839594841,0.015438503585755825
18844728466225,1.1827356815338135,-9.708487510681152,1.4712369441986084,-0.0023956298828125,0.00958251953125,0.01224433071911335
18844729703300,1.2210428714752197,-9.710882186889648,1.50355863571167,-0.0005323622026480734,0.01117960549890995,0.0157046839594841
18844730940400,1.2425906658172607,-9.709685325622559,1.482010841369629,-0.0002661811013240367,0.010647243820130825,0.0191650390625
18844732177487,1.237802267074585,-9.739612579345703,1.4700398445129395,0.0005323622026480734,0.01650322787463665,0.0220930315554142
18844733414587,1.235408067703247,-9.684545516967773,1.4748282432556152,0.0,0.014373779296875,0.0228915736079216
18844734651675,1.1971008777618408,-9.713275909423828,1.479616641998291,0.0018632676219567657,0.008517795242369175,0.0173017717897892
18844735888762,1.1683704853057861,-9.718064308166504,1.4760253429412842,0.0002661811013240367,0.01410759799182415,0.0167694091796875
18844737125862,1.1815385818481445,-9.706093788146973,1.4736311435699463,0.003460354171693325,0.014906140975654125,0.0173017717897892
18844738362950,1.217451572418213,-9.718064308166504,1.4508862495422363,-0.0010647244052961469,0.008783976547420025,0.0244886614382267
18844739600037,1.235408067703247,-9.72285270690918,1.502361536026001,-0.0007985432748682797,0.00931633822619915,0.0215606689453125
18844740837112,1.236605167388916,-9.757569313049316,1.4484920501708984,0.0029279920272529125,0.010114881210029125,0.01650322787463665
18844742074187,1.2330138683319092,-9.759963035583496,1.455674648284912,0.0053236219100654125,0.010647243820130825,0.0186326764523983
18844743311300,1.2114660739898682,-9.749189376831055,1.5406688451766968,0.0053236219100654125,0.015438503585755825,0.0138414166867733
18844744548387,1.2401964664459229,-9.728838920593262,1.4484920501708984,0.0071868896484375,0.0138414166867733,0.02182685025036335
18844745785475,1.2114660739898682,-9.72285270690918,1.4700398445129395,0.005855984054505825,0.00931633822619915,0.02369011752307415
18844747022562,1.1743559837341309,-9.726444244384766,1.4257471561431885,0.0053236219100654125,0.010647243820130825,0.0244886614382267
18844748259650,1.2401964664459229,-9.730035781860352,1.4053964614868164,0.0005323622026480734,0.0090501569211483,0.02315775491297245
18844749496737,1.2222399711608887,-9.731232643127441,1.4508862495422363,0.0021294488105922937,0.007453070487827063,0.02182685025036335
18844750733825,1.2437877655029297,-9.739612579345703,1.459265947341919,0.0042588976211845875,0.005855984054505825,0.01756795309484005
18844751970925,1.2521674633026123,-9.696516990661621,1.5047557353973389,0.0015970865497365594,0.0077192517928779125,0.0210283063352108
18844753208025,1.2521674633026123,-9.701305389404297,1.482010841369629,0.0039927163161337376,0.007985432632267475,0.0263519287109375
18844754445100,1.2258312702178955,-9.704896926879883,1.4616601467132568,0.007453070487827063,0.0090501569211483,0.02502102218568325
18844755682187,1.215057373046875,-9.713275909423828,1.4413094520568848,0.00692070834338665,0.00692070834338665,0.02369011752307415
18844756919287,1.191115379333496,-9.71926212310791,1.4724340438842773,0.00452507846057415,0.013042873702943325,0.02369011752307415
18844758156362,1.217451572418213,-9.710882186889648,1.4736311435699463,-0.0010647244052961469,0.0090501569211483,0.02502102218568325
18844759393462,1.2282254695892334,-9.713275909423828,1.4760253429412842,0.006122165359556675,0.005855984054505825,0.0247548408806324
18844760630550,1.2006921768188477,-9.697713851928711,1.4065935611724854,0.00692070834338665,0.0042588976211845875,0.0204959437251091
18844761867612,1.2198457717895508,-9.706093788146973,1.455674648284912,0.00452507846057415,0.0063883461989462376,0.0204959437251091
18844763104737,1.2006921768188477,-9.720458984375,1.4963760375976562,0.003460354171693325,0.00692070834338665,0.0215606689453125
18844764341800,1.1791443824768066,-9.72285270690918,1.4437036514282227,0.005057440605014563,0.005855984054505825,0.02422248013317585
18844765578900,1.2330138683319092,-9.702502250671387,1.4496891498565674,0.00452507846057415,0.0066545275039970875,0.0210283063352108
18844766815987,1.212663173675537,-9.736021041870117,1.4724340438842773,0.0037265352439135313,0.0037265352439135313,0.02182685025036335
18844768053075,1.193509578704834,-9.71926212310791,1.4305355548858643,0.0039927163161337376,0.00452507846057415,0.02661811001598835
18844769290137,1.115697979927063,-9.72165584564209,1.455674648284912,0.0071868896484375,0.004791259765625,0.02129448764026165
18844770527250,1.1743559837341309,-9.712079048156738,1.4724340438842773,0.005589802749454975,0.008783976547420025,0.02369011752307415
18844771764350,1.1683704853057861,-9.691728591918945,1.4688427448272705,0.0026618109550327063,0.0039927163161337376,0.0162370465695858
18844773001425,1.1767501831054688,-9.75397777557373,1.4688427448272705,0.0031941730994731188,0.0039927163161337376,0.02661811001598835
18844774238525,1.1899182796478271,-9.733627319335938,1.479616641998291,0.0,0.0042588976211845875,0.0316755510866642
18844775475600,1.173158884048462,-9.738415718078613,1.4413094520568848,0.0042588976211845875,0.004791259765625,0.0252872034907341
18844776712700,1.2306196689605713,-9.733627319335938,1.4832079410552979,0.003460354171693325,0.0077192517928779125,0.02502102218568325
18844777949775,1.2270283699035645,-9.743204116821289,1.4437036514282227,-0.0007985432748682797,0.008251613937318325,0.0204959437251091
18844779186887,1.2018892765045166,-9.75278091430664,1.436521053314209,0.0015970865497365594,0.006122165359556675,0.0228915736079216
18844780423962,1.1803414821624756,-9.738415718078613,1.4520833492279053,-0.0010647244052961469,-0.0013309054775163531,0.02608574740588665
18844781661050,1.193509578704834,-9.714473724365234,1.4544775485992432,-0.0010647244052961469,0.003460354171693325,0.0220930315554142
18844782898150,1.1683704853057861,-9.738415718078613,1.459265947341919,0.0023956298828125,-0.0005323622026480734,0.0173017717897892
18844784135225,1.2090718746185303,-9.769539833068848,1.4508862495422363,-0.003460354171693325,0.005589802749454975,0.01996358297765255
18844785372325,1.1959037780761719,-9.791088104248047,1.4101848602294922,0.00452507846057415,0.0042588976211845875,0.02874755859375
18844786609400,1.2054805755615234,-9.750386238098145,1.459265947341919,0.0007985432748682797,-0.0039927163161337376,0.0228915736079216
18844787846512,1.1779472827911377,-9.768342971801758,1.456871747970581,-0.003460354171693325,-0.0002661811013240367,0.02129448764026165
18844789083587,1.1815385818481445,-9.733627319335938,1.4688427448272705,-0.005057440605014563,0.0026618109550327063,0.02262539230287075
18844790320687,1.2078747749328613,-9.72165584564209,1.3982137441635132,0.0007985432748682797,0.0031941730994731188,0.0276828333735466
18844791557762,1.1755530834197998,-9.761160850524902,1.460463047027588,-0.0029279920272529125,-0.0002661811013240367,0.02315775491297245
18844792794875,1.1659762859344482,-9.75158405303955,1.4844050407409668,0.0021294488105922937,-0.0023956298828125,0.0220930315554142
18844794031937,1.1994950771331787,-9.736021041870117,1.499967336654663,0.0031941730994731188,-0.0007985432748682797,0.02741665206849575
18844795269037,1.194706678390503,-9.769539833068848,1.4700398445129395,-0.0002661811013240367,-0.0015970865497365594,0.0244886614382267
18844796506112,1.1791443824768066,-9.7420072555542,1.4927847385406494,-0.0023956298828125,0.0010647244052961469,0.0252872034907341
18844797743187,1.2006921768188477,-9.75517463684082,1.4544775485992432,-0.003460354171693325,0.0002661811013240367,0.0191650390625
18844798980300,1.1504138708114624,-9.728838920593262,1.479616641998291,-0.0026618109550327063,-0.0037265352439135313,0.0167694091796875
18844800217387,1.1432312726974487,-9.75278091430664,1.4616601467132568,-0.005057440605014563,-0.0007985432748682797,0.0210283063352108
18844801454487,1.2006921768188477,-9.743204116821289,1.4640543460845947,0.0007985432748682797,0.0005323622026480734,0.0234239362180233
18844802691575,1.173158884048462,-9.762357711791992,1.434126853942871,0.0002661811013240367,0.0007985432748682797,0.02262539230287075
18844803928675,1.170764684677124,-9.732430458068848,1.4700398445129395,-0.0029279920272529125,0.004791259765625,0.02022976242005825
18844805165750,1.171961784362793,-9.743204116821289,1.4628572463989258,-0.0031941730994731188,-0.0021294488105922937,0.02422248013317585
18844806402825,1.1755530834197998,-9.728838920593262,1.4724340438842773,-0.00452507846057415,-0.0031941730994731188,0.023956298828125
18844807639912,1.192312479019165,-9.759963035583496,1.3982137441635132,-0.007453070487827063,-0.0023956298828125,0.0210283063352108
18844808877012,1.1492167711257935,-9.724050521850586,1.4437036514282227,-0.0063883461989462376,0.0002661811013240367,0.01943122036755085
18844810114112,1.2114660739898682,-9.707290649414062,1.4760253429412842,-0.0119781494140625,0.0013309054775163531,0.0181003138422966
18844811351187,1.173158884048462,-9.718064308166504,1.4760253429412842,-0.010114881210029125,0.0,0.01996358297765255
18844812588287,1.1587936878204346,-9.768342971801758,1.4724340438842773,-0.0037265352439135313,-0.0026618109550327063,0.01889885775744915
18844813825375,1.217451572418213,-9.771934509277344,1.4425065517425537,-0.0039927163161337376,-0.005589802749454975,0.02422248013317585
18844815062475,1.1743559837341309,-9.763554573059082,1.4832079410552979,-0.00452507846057415,-0.0042588976211845875,0.02981228195130825
18844816299550,1.1456254720687866,-9.713275909423828,1.4736311435699463,-0.006122165359556675,0.0,0.02129448764026165
18844817536637,1.1683704853057861,-9.757569313049316,1.4856021404266357,-0.010381062515079975,-0.0005323622026480734,0.01889885775744915
18844818773725,1.1635820865631104,-9.75517463684082,1.434126853942871,-0.00692070834338665,-0.0018632676219567657,0.0215606689453125
18844820010825,1.1432312726974487,-9.733627319335938,1.4329297542572021,-0.005057440605014563,-0.0037265352439135313,0.02502102218568325
18844821247912,1.1623849868774414,-9.743204116821289,1.4532804489135742,-0.0063883461989462376,-0.0023956298828125,0.0271504707634449
18844822485000,1.1480196714401245,-9.745597839355469,1.4185645580291748,-0.007985432632267475,-0.0002661811013240367,0.01756795309484005
18844823722100,1.1468225717544556,-9.738415718078613,1.4449007511138916,-0.0063883461989462376,-0.0042588976211845875,0.01996358297765255
18844824959162,1.1611878871917725,-9.77552604675293,1.456871747970581,-0.00452507846057415,-0.004791259765625,0.0196974016726017
18844826196262,1.1779472827911377,-9.747992515563965,1.43532395362854,-0.0114457868039608,-0.003460354171693325,0.02076212503015995
18844827433375,1.1767501831054688,-9.737218856811523,1.478419542312622,-0.014906140975654125,0.0007985432748682797,0.0167694091796875
18844828670437,1.1432312726974487,-9.740809440612793,1.4712369441986084,-0.014373779296875,-0.0010647244052961469,0.0191650390625
18844829907537,1.1575965881347656,-9.740809440612793,1.416170358657837,-0.007985432632267475,-0.0066545275039970875,0.0191650390625
18844831144625,1.139639973640442,-9.715670585632324,1.460463047027588,-0.0077192517928779125,-0.008517795242369175,0.0196974016726017
18844832381712,1.1276689767837524,-9.782708168029785,1.436521053314209,-0.014373779296875,-0.0039927163161337376,0.0162370465695858
18844833618800,1.1611878871917725,-9.731232643127441,1.437718152999878,-0.015438503585755825,0.0007985432748682797,0.0119781494140625
18844834855900,1.1779472827911377,-9.774328231811523,1.4772224426269531,-0.01171196810901165,-0.0021294488105922937,0.014373779296875
18844836092975,1.2018892765045166,-9.746795654296875,1.4413094520568848,-0.01224433071911335,-0.005589802749454975,0.01836649514734745
18844837330062,1.194706678390503,-9.746795654296875,1.4544775485992432,-0.01357523538172245,-0.0039927163161337376,0.01943122036755085
18844838567150,1.1611878871917725,-9.7420072555542,1.4305355548858643,-0.010114881210029125,-0.007985432632267475,0.01650322787463665
18844839804250,1.1444283723831177,-9.757569313049316,1.48081374168396,-0.01171196810901165,0.0005323622026480734,0.0167694091796875
18844841041337,1.114500880241394,-9.715670585632324,1.502361536026001,-0.010647243820130825,-0.0031941730994731188,0.01410759799182415
18844842278425,1.1336544752120972,-9.730035781860352,1.4449007511138916,-0.01357523538172245,-0.0053236219100654125,0.0138414166867733
18844843515500,1.139639973640442,-9.762357711791992,1.4700398445129395,-0.01756795309484005,-0.0039927163161337376,0.01597086526453495
18844844752587,1.138442873954773,-9.706093788146973,1.460463047027588,-0.015172322280704975,-0.0042588976211845875,0.0186326764523983
18844845989687,1.1480196714401245,-9.77552604675293,1.4987702369689941,-0.010114881210029125,-0.00931633822619915,0.014906140975654125
18844847226787,1.1899182796478271,-9.757569313049316,1.4640543460845947,-0.01117960549890995,-0.0015970865497365594,0.01171196810901165
18844848463875,1.1755530834197998,-9.730035781860352,1.4472949504852295,-0.01463996060192585,0.0007985432748682797,0.010647243820130825
18844849700962,1.1815385818481445,-9.72285270690918,1.3970166444778442,-0.014906140975654125,0.0,0.010114881210029125
18844850938037,1.1827356815338135,-9.712079048156738,1.4484920501708984,-0.014373779296875,0.0007985432748682797,0.008517795242369175
18844852175150,1.1659762859344482,-9.732430458068848,1.4460978507995605,-0.01224433071911335,-0.0042588976211845875,0.010381062515079975
18844853412237,1.1204863786697388,-9.709685325622559,1.4305355548858643,-0.014906140975654125,-0.003460354171693325,0.01756795309484005
18844854649325,1.1611878871917725,-9.720458984375,1.4472949504852295,-0.01463996060192585,-0.0042588976211845875,0.01463996060192585
18844855886400,1.1192892789840698,-9.730035781860352,1.4209587574005127,-0.012776692397892475,-0.0023956298828125,0.015438503585755825
18844857123487,1.1635820865631104,-9.750386238098145,1.4305355548858643,-0.01650322787463665,0.0,0.01224433071911335
18844858360587,1.1420341730117798,-9.727641105651855,1.4293384552001953,-0.02076212503015995,0.0029279920272529125,0.010114881210029125
18844859597687,1.1109095811843872,-9.714473724365234,1.4305355548858643,-0.0186326764523983,-0.0021294488105922937,0.0063883461989462376
18844860834787,1.138442873954773,-9.707290649414062,1.455674648284912,-0.012776692397892475,-0.0029279920272529125,0.01224433071911335
18844862071850,1.1635820865631104,-9.757569313049316,1.478419542312622,-0.010913425125181675,-0.0013309054775163531,0.01357523538172245
18844863308950,1.1252747774124146,-9.737218856811523,1.4413094520568848,-0.0191650390625,-0.0029279920272529125,0.010913425125181675
18844864546025,1.1599907875061035,-9.75517463684082,1.4484920501708984,-0.0196974016726017,-0.0018632676219567657,0.012510511092841625
18844865783125,1.1563994884490967,-9.75397777557373,1.4688427448272705,-0.0138414166867733,0.0005323622026480734,0.007985432632267475
18844867020212,1.1444283723831177,-9.739612579345703,1.4748282432556152,-0.01650322787463665,0.0023956298828125,0.0063883461989462376
18844868257312,1.1456254720687866,-9.734824180603027,1.4640543460845947,-0.01410759799182415,0.0007985432748682797,0.010114881210029125
18844869494387,1.1276689767837524,-9.728838920593262,1.4844050407409668,-0.0162370465695858,-0.0023956298828125,0.00931633822619915
18844870731475,1.1444283723831177,-9.743204116821289,1.478419542312622,-0.015172322280704975,0.0007985432748682797,0.01117960549890995
18844871968562,1.1348515748977661,-9.746795654296875,1.460463047027588,-0.01357523538172245,0.0015970865497365594,0.007453070487827063
18844873205662,1.1444283723831177,-9.733627319335938,1.455674648284912,-0.015172322280704975,0.003460354171693325,0.008251613937318325
18844874442750,1.1468225717544556,-9.700108528137207,1.4532804489135742,-0.01463996060192585,0.00452507846057415,0.01463996060192585
18844875679837,1.1480196714401245,-9.714473724365234,1.4748282432556152,-0.015172322280704975,0.0010647244052961469,0.01650322787463665
18844876916937,1.1528080701828003,-9.743204116821289,1.4113819599151611,-0.015172322280704975,0.00452507846057415,0.01117960549890995
18844878154012,1.1647791862487793,-9.703699111938477,1.4772224426269531,-0.0173017717897892,0.005057440605014563,0.0071868896484375
18844879391112,1.1468225717544556,-9.671378135681152,1.4712369441986084,-0.0138414166867733,0.0023956298828125,0.0077192517928779125
18844880628187,1.1408370733261108,-9.726444244384766,1.48081374168396,-0.0077192517928779125,0.004791259765625,0.004791259765625
18844881865287,1.1408370733261108,-9.714473724365234,1.45806884765625,-0.01171196810901165,0.00452507846057415,0.008783976547420025
18844883102375,1.1025298833847046,-9.727641105651855,1.4652514457702637,-0.01357523538172245,0.005855984054505825,0.01171196810901165
18844884339450,1.1492167711257935,-9.696516990661621,1.4329297542572021,-0.014906140975654125,0.010381062515079975,0.01224433071911335
18844885576562,1.139639973640442,-9.713275909423828,1.4113819599151611,-0.012776692397892475,0.008517795242369175,0.012510511092841625
18844886813650,1.139639973640442,-9.72285270690918,1.4389152526855469,-0.01357523538172245,0.005855984054505825,0.008783976547420025
18844888050725,1.1480196714401245,-9.709685325622559,1.4269442558288574,-0.015172322280704975,0.007453070487827063,0.007453070487827063
18844889287825,1.1300631761550903,-9.726444244384766,1.4329297542572021,-0.014906140975654125,0.008251613937318325,0.0066545275039970875
18844890524912,1.1001356840133667,-9.715670585632324,1.4329297542572021,-0.010647243820130825,0.0039927163161337376,0.0037265352439135313
18844891762000,1.1324573755264282,-9.707290649414062,1.4269442558288574,-0.012510511092841625,0.010381062515079975,0.005589802749454975
18844892999087,1.1061211824417114,-9.715670585632324,1.437718152999878,-0.012776692397892475,0.008517795242369175,0.0023956298828125
18844894236175,1.1432312726974487,-9.720458984375,1.4413094520568848,-0.0114457868039608,0.008517795242369175,0.0037265352439135313
18844895473275,1.1420341730117798,-9.715670585632324,1.4197616577148438,-0.0114457868039608,0.00692070834338665,0.006122165359556675
18844896710362,1.1552022695541382,-9.715670585632324,1.4389152526855469,-0.007453070487827063,0.012510511092841625,0.006122165359556675
18844897947462,1.1444283723831177,-9.68574333190918,1.4173674583435059,-0.00931633822619915,0.008783976547420025,0.005855984054505825
18844899184550,1.1348515748977661,-9.71926212310791,1.4748282432556152,-0.00984870083630085,0.00931633822619915,0.0029279920272529125
18844900421637,1.1468225717544556,-9.692925453186035,1.4197616577148438,-0.0090501569211483,0.0114457868039608,0.0037265352439135313
18844901658737,1.1492167711257935,-9.701305389404297,1.4041993618011475,-0.013042873702943325,0.008517795242369175,0.0013309054775163531
18844902895812,1.1324573755264282,-9.716867446899414,1.4449007511138916,-0.013042873702943325,0.008517795242369175,0.004791259765625
18844904132887,1.1587936878204346,-9.68694019317627,1.4101848602294922,-0.01117960549890995,0.00984870083630085,0.01171196810901165
18844905369987,1.138442873954773,-9.6989107131958,1.437718152999878,-0.0114457868039608,0.010114881210029125,0.0026618109550327063
18844906607087,1.1180921792984009,-9.738415718078613,1.4724340438842773,-0.01224433071911335,0.00931633822619915,0.0
18844907844175,1.1240776777267456,-9.701305389404297,1.45806884765625,-0.0063883461989462376,0.010114881210029125,0.004791259765625
18844909081250,1.1587936878204346,-9.704896926879883,1.4293384552001953,-0.007985432632267475,0.013042873702943325,-0.0013309054775163531
18844910318337,1.1743559837341309,-9.701305389404297,1.4484920501708984,-0.010381062515079975,0.007453070487827063,0.0026618109550327063
18844911555437,1.1444283723831177,-9.704896926879883,1.4460978507995605,-0.013042873702943325,0.01224433071911335,0.0031941730994731188
18844912792525,1.1480196714401245,-9.697713851928711,1.4484920501708984,-0.00984870083630085,0.013042873702943325,0.0037265352439135313
18844914029612,1.1336544752120972,-9.709685325622559,1.4676456451416016,-0.008517795242369175,0.0162370465695858,0.0018632676219567657
18844915266700,1.1408370733261108,-9.724050521850586,1.4006080627441406,-0.00692070834338665,0.014373779296875,-0.0002661811013240367
18844916503800,1.169567584991455,-9.692925453186035,1.436521053314209,-0.0021294488105922937,0.015438503585755825,0.004791259765625
18844917740875,1.1324573755264282,-9.72285270690918,1.45806884765625,-0.00452507846057415,0.0114457868039608,0.0
18844918977987,1.192312479019165,-9.745597839355469,1.48081374168396,-0.0090501569211483,0.015438503585755825,0.0
18844920215075,1.1528080701828003,-9.679757118225098,1.4053964614868164,-0.0077192517928779125,0.01117960549890995,0.0037265352439135313
18844921452125,1.1324573755264282,-9.672574996948242,1.3934253454208374,-0.008517795242369175,0.01171196810901165,-0.0010647244052961469
18844922689237,1.1671733856201172,-9.695320129394531,1.3982137441635132,-0.0071868896484375,0.01357523538172245,-0.0007985432748682797
18844923926312,1.1755530834197998,-9.736021041870117,1.4173674583435059,-0.0090501569211483,0.01224433071911335,0.0026618109550327063
18844925163412,1.1444283723831177,-9.692925453186035,1.4269442558288574,-0.007453070487827063,0.014373779296875,0.0026618109550327063
18844926400500,1.1300631761550903,-9.692925453186035,1.4736311435699463,-0.0053236219100654125,0.01889885775744915,0.0
18844927637612,1.1264718770980835,-9.692925453186035,1.4676456451416016,-0.007985432632267475,0.01463996060192585,0.0015970865497365594
18844928874675,1.1204863786697388,-9.702502250671387,1.4484920501708984,-0.0063883461989462376,0.01410759799182415,0.0031941730994731188
18844930111775,1.1252747774124146,-9.700108528137207,1.478419542312622,-0.0037265352439135313,0.010647243820130825,0.0002661811013240367
18844931348875,1.114500880241394,-9.724050521850586,1.4233529567718506,-0.003460354171693325,0.015438503585755825,-0.005057440605014563
18844932585962,1.1492167711257935,-9.671378135681152,1.4221558570861816,-0.00452507846057415,0.01597086526453495,0.0
18844933823050,1.1540051698684692,-9.680954933166504,1.4317326545715332,-0.008517795242369175,0.01463996060192585,-0.0026618109550327063
18844935060125,1.1563994884490967,-9.697713851928711,1.4700398445129395,-0.007453070487827063,0.0157046839594841,-0.0018632676219567657
18844936297225,1.170764684677124,-9.701305389404297,1.4173674583435059,-0.0039927163161337376,0.0157046839594841,0.00452507846057415
18844937534312,1.1647791862487793,-9.707290649414062,1.4113819599151611,-0.0018632676219567657,0.01703559048473835,0.005057440605014563
18844938771400,1.2018892765045166,-9.709685325622559,1.482010841369629,-0.0039927163161337376,0.02022976242005825,-0.0015970865497365594
18844940008500,1.1671733856201172,-9.706093788146973,1.4257471561431885,-0.0005323622026480734,0.02182685025036335,-0.0021294488105922937
18844941245587,1.1647791862487793,-9.682151794433594,1.3922282457351685,-0.005589802749454975,0.01783413253724575,-0.0013309054775163531
18844942482687,1.2078747749328613,-9.701305389404297,1.416170358657837,-0.0002661811013240367,0.015438503585755825,0.0023956298828125
18844943719762,1.1959037780761719,-9.706093788146973,1.4520833492279053,0.0039927163161337376,0.0157046839594841,0.0007985432748682797
18844944956850,1.1815385818481445,-9.720458984375,1.4856021404266357,0.0005323622026480734,0.012510511092841625,-0.0018632676219567657
18844946193937,1.1683704853057861,-9.709685325622559,1.437718152999878,-0.0018632676219567657,0.01171196810901165,-0.0026618109550327063
18844947431037,1.2342109680175781,-9.66299819946289,1.4508862495422363,0.0002661811013240367,0.0215606689453125,0.0007985432748682797
18844948668112,1.2042834758758545,-9.677363395690918,1.4089877605438232,0.0053236219100654125,0.01756795309484005,0.0021294488105922937
18844949905225,1.1994950771331787,-9.68813705444336,1.4221558570861816,-0.0013309054775163531,0.0167694091796875,-0.003460354171693325
18844951142312,1.169567584991455,-9.718064308166504,1.416170358657837,-0.0013309054775163531,0.01756795309484005,-0.0015970865497365594
18844952379400,1.170764684677124,-9.672574996948242,1.4413094520568848,0.0005323622026480734,0.01783413253724575,-0.0015970865497365594
18844953616487,1.171961784362793,-9.653421401977539,1.3982137441635132,-0.0013309054775163531,0.0138414166867733,-0.0010647244052961469
18844954853575,1.2066776752471924,-9.708487510681152,1.4389152526855469,-0.0007985432748682797,0.0114457868039608,-0.005589802749454975
18844956090662,1.1803414821624756,-9.6989107131958,1.4281413555145264,-0.0021294488105922937,0.02129448764026165,-0.0039927163161337376
18844957327750,1.1839327812194824,-9.68933391571045,1.3922282457351685,-0.0005323622026480734,0.02129448764026165,-0.0010647244052961469
18844958564825,1.1875240802764893,-9.66419506072998,1.3611036539077759,-0.0013309054775163531,0.015438503585755825,-0.0029279920272529125
18844959801925,1.1683704853057861,-9.653421401977539,1.4281413555145264,0.0015970865497365594,0.0173017717897892,0.0010647244052961469
18844961039025,1.216254472732544,-9.679757118225098,1.4065935611724854,0.0039927163161337376,0.02022976242005825,-0.003460354171693325
18844962276100,1.1779472827911377,-9.668983459472656,1.4425065517425537,0.0031941730994731188,0.0191650390625,-0.005057440605014563
18844963513212,1.1683704853057861,-9.677363395690918,1.4401123523712158,-0.0002661811013240367,0.02022976242005825,-0.005589802749454975
18844964750287,1.1815385818481445,-9.66299819946289,1.4772224426269531,0.0005323622026480734,0.0162370465695858,-0.0042588976211845875
18844965987375,1.2030863761901855,-9.695320129394531,1.4484920501708984,0.005057440605014563,0.012776692397892475,-0.0029279920272529125
18844967224462,1.1887211799621582,-9.724050521850586,1.4544775485992432,0.0029279920272529125,0.0167694091796875,-0.0018632676219567657
18844968461562,1.2234370708465576,-9.714473724365234,1.4724340438842773,0.006122165359556675,0.0167694091796875,-0.008783976547420025
18844969698662,1.2078747749328613,-9.695320129394531,1.3946224451065063,0.0090501569211483,0.0114457868039608,-0.0066545275039970875
18844970935737,1.2425906658172607,-9.706093788146973,1.4293384552001953,0.0018632676219567657,0.01171196810901165,-0.0053236219100654125
18844972172825,1.215057373046875,-9.68574333190918,1.4077906608581543,0.0066545275039970875,0.014906140975654125,-0.005057440605014563
18844973409925,1.216254472732544,-9.692925453186035,1.4413094520568848,0.0071868896484375,0.0157046839594841,-0.0018632676219567657
18844974647012,1.2629413604736328,-9.6618013381958,1.4401123523712158,0.00931633822619915,0.012776692397892475,-0.0005323622026480734
18844975884087,1.2102689743041992,-9.692925453186035,1.4245500564575195,0.008251613937318325,0.013042873702943325,-0.0023956298828125
18844977121175,1.2425906658172607,-9.716867446899414,1.4221558570861816,0.0066545275039970875,0.01597086526453495,-0.0015970865497365594
18844978358275,1.2318167686462402,-9.697713851928711,1.4257471561431885,0.003460354171693325,0.014906140975654125,-0.0031941730994731188
18844979595375,1.260547161102295,-9.75517463684082,1.4496891498565674,0.007453070487827063,0.01836649514734745,-0.0053236219100654125
18844980832450,1.2282254695892334,-9.736021041870117,1.4233529567718506,0.005589802749454975,0.012510511092841625,-0.0026618109550327063
18844982069537,1.2078747749328613,-9.694122314453125,1.4437036514282227,0.0042588976211845875,0.01836649514734745,-0.00958251953125
18844983306625,1.217451572418213,-9.704896926879883,1.434126853942871,0.0077192517928779125,0.0162370465695858,-0.004791259765625
18844984543725,1.216254472732544,-9.68694019317627,1.4293384552001953,0.0010647244052961469,0.0157046839594841,-0.005057440605014563
18844985780800,1.2330138683319092,-9.666589736938477,1.4065935611724854,0.0026618109550327063,0.0119781494140625,-0.0063883461989462376
18844987017912,1.212663173675537,-9.718064308166504,1.382651448249817,0.010913425125181675,0.012510511092841625,-0.0002661811013240367
18844988254975,1.2401964664459229,-9.709685325622559,1.4281413555145264,0.0039927163161337376,0.010647243820130825,-0.0021294488105922937
18844989492087,1.2090718746185303,-9.702502250671387,1.4233529567718506,0.00692070834338665,0.010647243820130825,-0.00958251953125
18844990729150,1.215057373046875,-9.697713851928711,1.3946224451065063,0.006122165359556675,0.014373779296875,-0.010114881210029125
18844991966262,1.1803414821624756,-9.72165584564209,1.4616601467132568,0.008783976547420025,0.013309055007994175,-0.0071868896484375
18844993203350,1.2282254695892334,-9.718064308166504,1.4496891498565674,0.006122165359556675,0.008517795242369175,-0.004791259765625
18844994440450,1.1767501831054688,-9.690531730651855,1.3898340463638306,0.00958251953125,0.005057440605014563,-0.005589802749454975
18844995677525,1.2030863761901855,-9.708487510681152,1.4401123523712158,0.010913425125181675,0.007985432632267475,0.0005323622026480734
18844996914625,1.2330138683319092,-9.71926212310791,1.4329297542572021,0.010381062515079975,0.012510511092841625,-0.0021294488105922937
18844998151700,1.2090718746185303,-9.714473724365234,1.414973258972168,0.0114457868039608,0.0114457868039608,-0.003460354171693325
18844999388787,1.2342109680175781,-9.701305389404297,1.43532395362854,0.013042873702943325,0.007453070487827063,-0.00452507846057415
18845000625900,1.1851298809051514,-9.677363395690918,1.4425065517425537,0.01224433071911335,0.0066545275039970875,-0.003460354171693325
18845001862975,1.217451572418213,-9.714473724365234,1.4532804489135742,0.012510511092841625,0.0042588976211845875,0.0013309054775163531
18845003100075,1.217451572418213,-9.708487510681152,1.4197616577148438,0.004791259765625,0.00692070834338665,-0.006122165359556675
18845004337150,1.2342109680175781,-9.683348655700684,1.41257905960083,0.00452507846057415,0.0039927163161337376,-0.0007985432748682797
18845005574237,1.2425906658172607,-9.676166534423828,1.4520833492279053,0.010647243820130825,0.007453070487827063,-0.0013309054775163531
18845006811337,1.2497732639312744,-9.715670585632324,1.4006080627441406,0.0162370465695858,0.008251613937318325,-0.00452507846057415
18845008048437,1.2521674633026123,-9.6989107131958,1.4508862495422363,0.012776692397892475,0.00931633822619915,-0.0042588976211845875
18845009285512,1.2270283699035645,-9.71926212310791,1.4221558570861816,0.005855984054505825,0.00931633822619915,-0.0021294488105922937
18845010522612,1.2210428714752197,-9.737218856811523,1.4329297542572021,0.005589802749454975,0.007453070487827063,-0.00931633822619915
18845011759700,1.2342109680175781,-9.702502250671387,1.4437036514282227,0.012510511092841625,0.008517795242369175,-0.007453070487827063
18845012996787,1.2018892765045166,-9.691728591918945,1.4389152526855469,0.0157046839594841,0.0039927163161337376,-0.005057440605014563
18845014233875,1.2677297592163086,-9.700108528137207,1.413776159286499,0.014373779296875,0.0013309054775163531,-0.006122165359556675
18845015470975,1.2413935661315918,-9.68933391571045,1.4425065517425537,0.008517795242369175,0.00931633822619915,-0.010913425125181675
18845016708062,1.2665326595306396,-9.710882186889648,1.4281413555145264,0.013309055007994175,0.010647243820130825,-0.00692070834338665
18845017945137,1.2222399711608887,-9.737218856811523,1.4221558570861816,0.01463996060192585,0.0063883461989462376,-0.008251613937318325
18845019182237,1.2234370708465576,-9.72165584564209,1.4437036514282227,0.010913425125181675,0.0031941730994731188,-0.010381062515079975
18845020419325,1.2246341705322266,-9.715670585632324,1.4425065517425537,0.01889885775744915,-0.0029279920272529125,-0.0010647244052961469
18845021656400,1.2342109680175781,-9.695320129394531,1.434126853942871,0.01171196810901165,-0.0007985432748682797,-0.0015970865497365594
18845022893500,1.217451572418213,-9.710882186889648,1.4413094520568848,0.010381062515079975,0.0010647244052961469,-0.0015970865497365594
18845024130587,1.2413935661315918,-9.737218856811523,1.4676456451416016,0.014373779296875,0.005589802749454975,-0.005057440605014563
18845025367700,1.2114660739898682,-9.704896926879883,1.414973258972168,0.015172322280704975,0.0029279920272529125,-0.0018632676219567657
18845026604787,1.1982979774475098,-9.72165584564209,1.4293384552001953,0.010114881210029125,0.004791259765625,-0.0053236219100654125
18845027841875,1.1994950771331787,-9.708487510681152,1.437718152999878,0.01171196810901165,0.0,-0.0037265352439135313
18845029078975,1.1982979774475098,-9.724050521850586,1.4413094520568848,0.0181003138422966,-0.0037265352439135313,-0.0013309054775163531
18845030316025,1.2186486721038818,-9.72285270690918,1.4041993618011475,0.02369011752307415,-0.003460354171693325,-0.0007985432748682797
18845031553137,1.237802267074585,-9.697713851928711,1.4460978507995605,0.012776692397892475,-0.0031941730994731188,-0.0053236219100654125
18845032790225,1.2449848651885986,-9.690531730651855,1.4329297542572021,0.01410759799182415,-0.0026618109550327063,-0.0023956298828125
18845034027325,1.2461819648742676,-9.728838920593262,1.4401123523712158,0.0173017717897892,0.0021294488105922937,-0.0015970865497365594
18845035264412,1.216254472732544,-9.728838920593262,1.4652514457702637,0.02076212503015995,0.003460354171693325,-0.00452507846057415
18845036501512,1.237802267074585,-9.740809440612793,1.4484920501708984,0.02129448764026165,-0.0037265352439135313,0.003460354171693325
18845037738587,1.2006921768188477,-9.75278091430664,1.43532395362854,0.014906140975654125,-0.0026618109550327063,-0.0029279920272529125
18845038975675,1.2234370708465576,-9.715670585632324,1.4006080627441406,0.01703559048473835,-0.0010647244052961469,-0.008783976547420025
18845040212762,1.212663173675537,-9.72165584564209,1.4089877605438232,0.0138414166867733,-0.0007985432748682797,-0.0066545275039970875
18845041449862,1.2461819648742676,-9.704896926879883,1.4389152526855469,0.015438503585755825,-0.0013309054775163531,-0.0023956298828125
18845042686937,1.2294225692749023,-9.714473724365234,1.4281413555145264,0.01836649514734745,0.0037265352439135313,-0.005057440605014563
18845043924037,1.2222399711608887,-9.707290649414062,1.45806884765625,0.01836649514734745,-0.003460354171693325,0.0015970865497365594
18845045161112,1.236605167388916,-9.744400978088379,1.459265947341919,0.01889885775744915,-0.003460354171693325,-0.0029279920272529125
18845046398225,1.1899182796478271,-9.725247383117676,1.4437036514282227,0.01357523538172245,-0.0029279920272529125,-0.0029279920272529125
18845047635300,1.1982979774475098,-9.714473724365234,1.4389152526855469,0.01117960549890995,-0.0021294488105922937,-0.003460354171693325
18845048872375,1.217451572418213,-9.7420072555542,1.4197616577148438,0.013309055007994175,0.0005323622026480734,0.0
18845050109475,1.2006921768188477,-9.731232643127441,1.4736311435699463,0.013309055007994175,-0.0037265352439135313,-0.0031941730994731188
18845051346575,1.2545616626739502,-9.762357711791992,1.4101848602294922,0.02076212503015995,-0.00452507846057415,-0.0037265352439135313
18845052583675,1.213860273361206,-9.733627319335938,1.434126853942871,0.01756795309484005,-0.003460354171693325,-0.0007985432748682797
18845053820750,1.2437877655029297,-9.695320129394531,1.4329297542572021,0.01756795309484005,-0.006122165359556675,0.0
18845055057837,1.2653355598449707,-9.713275909423828,1.4089877605438232,0.0196974016726017,-0.008517795242369175,0.0029279920272529125
18845056294937,1.2437877655029297,-9.701305389404297,1.4053964614868164,0.01783413253724575,-0.0119781494140625,0.0013309054775163531
18845057532025,1.2282254695892334,-9.734824180603027,1.4425065517425537,0.0167694091796875,-0.008517795242369175,-0.0002661811013240367
18845058769112,1.2473790645599365,-9.733627319335938,1.437718152999878,0.02076212503015995,-0.0077192517928779125,0.0010647244052961469
18845060006200,1.2641384601593018,-9.75397777557373,1.4688427448272705,0.01463996060192585,-0.0063883461989462376,-0.0018632676219567657
18845061243287,1.2521674633026123,-9.767146110534668,1.4449007511138916,0.01783413253724575,-0.010381062515079975,-0.0005323622026480734
18845062480387,1.2533645629882812,-9.702502250671387,1.380257248878479,0.01703559048473835,-0.0077192517928779125,-0.0023956298828125
18845063717450,1.2342109680175781,-9.72165584564209,1.4389152526855469,0.0114457868039608,-0.01117960549890995,-0.0013309054775163531
18845064954587,1.2222399711608887,-9.763554573059082,1.4652514457702637,0.015172322280704975,-0.013309055007994175,-0.0015970865497365594
18845066191650,1.2629413604736328,-9.764751434326172,1.4281413555145264,0.01943122036755085,-0.013042873702943325,0.005589802749454975
18845067428762,1.212663173675537,-9.726444244384766,1.478419542312622,0.015172322280704975,-0.01171196810901165,0.0
18845068665837,1.2246341705322266,-9.7420072555542,1.4460978507995605,0.015438503585755825,-0.007985432632267475,-0.0021294488105922937
18845069902937,1.1994950771331787,-9.756372451782227,1.4472949504852295,0.0157046839594841,-0.007453070487827063,0.0013309054775163531
18845071140000,1.2294225692749023,-9.75517463684082,1.434126853942871,0.01943122036755085,-0.010381062515079975,0.0053236219100654125
18845072377112,1.2330138683319092,-9.799468040466309,1.4472949504852295,0.015172322280704975,-0.00931633822619915,-0.0002661811013240367
18845073614200,1.2401964664459229,-9.744400978088379,1.4209587574005127,0.0138414166867733,-0.00958251953125,0.0013309054775163531
18845074851275,1.1803414821624756,-9.746795654296875,1.4437036514282227,0.014373779296875,-0.013042873702943325,0.0013309054775163531
18845076088375,1.194706678390503,-9.740809440612793,1.4269442558288574,0.01357523538172245,-0.010647243820130825,0.0002661811013240367
18845077325475,1.1994950771331787,-9.731232643127441,1.4389152526855469,0.0090501569211483,-0.00931633822619915,0.0015970865497365594
18845078562537,1.2485761642456055,-9.750386238098145,1.4748282432556152,0.01597086526453495,-0.008517795242369175,0.0021294488105922937
18845079799637,1.1959037780761719,-9.763554573059082,1.48081374168396,0.01357523538172245,-0.010381062515079975,0.008783976547420025
18845081036750,1.1959037780761719,-9.78869342803955,1.4508862495422363,0.015438503585755825,-0.013309055007994175,0.0063883461989462376
18845082273837,1.217451572418213,-9.757569313049316,1.459265947341919,0.0157046839594841,-0.01650322787463665,0.0026618109550327063
18845083510912,1.2102689743041992,-9.739612579345703,1.456871747970581,0.01650322787463665,-0.01650322787463665,0.0015970865497365594
18845084748000,1.2318167686462402,-9.75158405303955,1.437718152999878,0.013309055007994175,-0.01357523538172245,0.0053236219100654125
18845085985087,1.236605167388916,-9.737218856811523,1.4425065517425537,0.01224433071911335,-0.013309055007994175,0.0023956298828125
18845087222175,1.2054805755615234,-9.750386238098145,1.4939818382263184,0.00958251953125,-0.014373779296875,0.0031941730994731188
18845088459287,1.2042834758758545,-9.734824180603027,1.4389152526855469,0.01357523538172245,-0.0162370465695858,0.0090501569211483
18845089696362,1.2114660739898682,-9.762357711791992,1.4520833492279053,0.012776692397892475,-0.0162370465695858,0.0023956298828125
18845090933462,1.1815385818481445,-9.72165584564209,1.4664485454559326,0.01410759799182415,-0.01597086526453495,0.0026618109550327063
18845092170550,1.2222399711608887,-9.726444244384766,1.434126853942871,0.014373779296875,-0.01650322787463665,0.004791259765625
18845093407637,1.1839327812194824,-9.746795654296875,1.4688427448272705,0.013042873702943325,-0.0157046839594841,0.00452507846057415
18845094644725,1.2114660739898682,-9.758766174316406,1.4449007511138916,0.0157046839594841,-0.0204959437251091,0.008517795242369175
18845095881825,1.238999366760254,-9.727641105651855,1.4018051624298096,0.014906140975654125,-0.02022976242005825,0.0026618109550327063
18845097118912,1.2461819648742676,-9.745597839355469,1.4437036514282227,0.013309055007994175,-0.02262539230287075,0.003460354171693325
18845098356000,1.2018892765045166,-9.756372451782227,1.4449007511138916,0.010913425125181675,-0.01836649514734745,0.005589802749454975
18845099593100,1.2413935661315918,-9.768342971801758,1.4700398445129395,0.0114457868039608,-0.014906140975654125,0.004791259765625
18845100830187,1.192312479019165,-9.77552604675293,1.4209587574005127,0.008251613937318325,-0.0186326764523983,0.007453070487827063
18845102067275,1.2066776752471924,-9.750386238098145,1.4269442558288574,0.0077192517928779125,-0.01650322787463665,0.005589802749454975
18845103304337,1.2306196689605713,-9.733627319335938,1.4257471561431885,0.007985432632267475,-0.0210283063352108,0.008783976547420025
18845104541450,1.217451572418213,-9.768342971801758,1.4413094520568848,0.0090501569211483,-0.0162370465695858,0.0042588976211845875
18845105778537,1.215057373046875,-9.756372451782227,1.4544775485992432,0.0071868896484375,-0.01650322787463665,-0.0029279920272529125
18845107015612,1.194706678390503,-9.738415718078613,1.4449007511138916,0.00958251953125,-0.0138414166867733,0.00692070834338665
18845108252725,1.2042834758758545,-9.765949249267578,1.4030022621154785,0.007453070487827063,-0.015438503585755825,0.008251613937318325
18845109489812,1.2102689743041992,-9.75278091430664,1.4425065517425537,0.005057440605014563,-0.0181003138422966,0.0066545275039970875
18845110726900,1.2090718746185303,-9.747992515563965,1.4221558570861816,0.007453070487827063,-0.0181003138422966,0.0053236219100654125
18845111963987,1.2018892765045166,-9.765949249267578,1.4879963397979736,0.0071868896484375,-0.01703559048473835,0.0042588976211845875
18845113201087,1.1779472827911377,-9.75158405303955,1.4460978507995605,0.00931633822619915,-0.0162370465695858,0.010114881210029125
18845114438187,1.1851298809051514,-9.749189376831055,1.4628572463989258,0.0042588976211845875,-0.015438503585755825,0.01117960549890995
18845115675275,1.212663173675537,-9.720458984375,1.4544775485992432,0.0023956298828125,-0.014373779296875,0.005589802749454975
18845116912337,1.2102689743041992,-9.710882186889648,1.5047557353973389,0.0018632676219567657,-0.014906140975654125,0.005589802749454975
18845118149450,1.215057373046875,-9.712079048156738,1.437718152999878,0.0037265352439135313,-0.0167694091796875,0.008517795242369175
18845119386537,1.235408067703247,-9.75278091430664,1.4329297542572021,0.0071868896484375,-0.0191650390625,0.01224433071911335
18845120623637,1.169567584991455,-9.726444244384766,1.4209587574005127,0.007453070487827063,-0.01650322787463665,0.008251613937318325
18845121860712,1.2054805755615234,-9.750386238098145,1.4484920501708984,0.010913425125181675,-0.01783413253724575,0.010913425125181675
18845123097812,1.1863269805908203,-9.738415718078613,1.4437036514282227,0.005589802749454975,-0.01943122036755085,0.007985432632267475
18845124334875,1.2270283699035645,-9.707290649414062,1.4844050407409668,0.0063883461989462376,-0.0162370465695858,0.008517795242369175
18845125571975,1.1671733856201172,-9.72285270690918,1.4233529567718506,0.0021294488105922937,-0.0138414166867733,0.0077192517928779125
18845126809062,1.191115379333496,-9.734824180603027,1.4676456451416016,0.0002661811013240367,-0.0157046839594841,0.010913425125181675
18845128046150,1.169567584991455,-9.706093788146973,1.4712369441986084,0.0015970865497365594,-0.0167694091796875,0.012776692397892475
18845129283250,1.213860273361206,-9.738415718078613,1.4700398445129395,0.0042588976211845875,-0.0157046839594841,0.0138414166867733
18845130520350,1.2042834758758545,-9.731232643127441,1.4233529567718506,0.0090501569211483,-0.01996358297765255,0.01171196810901165
18845131757425,1.193509578704834,-9.75278091430664,1.4437036514282227,0.0071868896484375,-0.0173017717897892,0.01463996060192585
18845132994512,1.1563994884490967,-9.716867446899414,1.45806884765625,0.0066545275039970875,-0.013042873702943325,0.01357523538172245
18845134231612,1.169567584991455,-9.71926212310791,1.4676456451416016,0.0071868896484375,-0.012510511092841625,0.012510511092841625
18845135468700,1.216254472732544,-9.706093788146973,1.43532395362854,0.005057440605014563,-0.01650322787463665,0.00984870083630085
18845136705787,1.2006921768188477,-9.712079048156738,1.4233529567718506,0.0010647244052961469,-0.015172322280704975,0.015438503585755825
18845137942887,1.170764684677124,-9.744400978088379,1.4437036514282227,0.0021294488105922937,-0.0119781494140625,0.008783976547420025
18845139179987,1.1863269805908203,-9.75517463684082,1.4688427448272705,0.0023956298828125,-0.010381062515079975,0.007985432632267475
18845140417050,1.1887211799621582,-9.714473724365234,1.4389152526855469,0.0013309054775163531,-0.00931633822619915,0.008783976547420025
18845141654162,1.194706678390503,-9.734824180603027,1.4951789379119873,0.003460354171693325,-0.0173017717897892,0.0066545275039970875
18845142891250,1.2318167686462402,-9.761160850524902,1.4413094520568848,0.0039927163161337376,-0.0210283063352108,0.013309055007994175
18845144128325,1.217451572418213,-9.700108528137207,1.4484920501708984,0.0029279920272529125,-0.01703559048473835,0.01224433071911335
18845145365425,1.1994950771331787,-9.739612579345703,1.4652514457702637,0.0026618109550327063,-0.01597086526453495,0.00958251953125
18845146602525,1.1552022695541382,-9.728838920593262,1.4951789379119873,0.0037265352439135313,-0.015172322280704975,0.013309055007994175
18845147839612,1.1959037780761719,-9.707290649414062,1.4460978507995605,0.0042588976211845875,-0.01703559048473835,0.012510511092841625
18845149076712,1.1839327812194824,-9.736021041870117,1.4688427448272705,0.0013309054775163531,-0.01463996060192585,0.01171196810901165
18845150313800,1.2018892765045166,-9.71926212310791,1.456871747970581,0.0018632676219567657,-0.0066545275039970875,0.00958251953125
18845151550887,1.170764684677124,-9.75517463684082,1.459265947341919,0.005057440605014563,-0.015438503585755825,0.00984870083630085
18845152787975,1.1959037780761719,-9.731232643127441,1.4472949504852295,0.0090501569211483,-0.01703559048473835,0.00984870083630085
18845154025062,1.1803414821624756,-9.72165584564209,1.4748282432556152,0.0090501569211483,-0.01836649514734745,0.01117960549890995
18845155262150,1.2437877655029297,-9.75278091430664,1.4389152526855469,0.00452507846057415,-0.0204959437251091,0.0162370465695858
18845156499225,1.2042834758758545,-9.713275909423828,1.4484920501708984,0.0026618109550327063,-0.0173017717897892,0.01171196810901165
18845157736337,1.194706678390503,-9.701305389404297,1.4449007511138916,0.003460354171693325,-0.015172322280704975,0.0119781494140625
18845158973412,1.1791443824768066,-9.75517463684082,1.478419542312622,0.00452507846057415,-0.0138414166867733,0.01171196810901165
18845160210512,1.1552022695541382,-9.737218856811523,1.4293384552001953,0.0037265352439135313,-0.01650322787463665,0.0114457868039608
18845161447600,1.193509578704834,-9.743204116821289,1.4532804489135742,0.00692070834338665,-0.0119781494140625,0.0114457868039608
18845162684700,1.1971008777618408,-9.759963035583496,1.4018051624298096,0.0066545275039970875,-0.013042873702943325,0.00984870083630085
18845163921775,1.2054805755615234,-9.744400978088379,1.3970166444778442,0.006122165359556675,-0.012510511092841625,0.0066545275039970875
18845165158875,1.192312479019165,-9.704896926879883,1.4472949504852295,0.003460354171693325,-0.01410759799182415,0.0077192517928779125
18845166395962,1.194706678390503,-9.737218856811523,1.4652514457702637,0.004791259765625,-0.01410759799182415,0.01224433071911335
18845167633062,1.1743559837341309,-9.770737648010254,1.4700398445129395,0.00452507846057415,-0.008517795242369175,0.0138414166867733
18845168870150,1.170764684677124,-9.718064308166504,1.436521053314209,0.00984870083630085,-0.0210283063352108,0.0114457868039608
18845170107225,1.1659762859344482,-9.706093788146973,1.4329297542572021,0.003460354171693325,-0.015172322280704975,0.00984870083630085
18845171344312,1.2186486721038818,-9.702502250671387,1.4425065517425537,0.0013309054775163531,-0.00958251953125,0.008517795242369175
18845172581425,1.1683704853057861,-9.72165584564209,1.4113819599151611,0.0031941730994731188,-0.0119781494140625,0.0090501569211483
18845173818512,1.1779472827911377,-9.716867446899414,1.4449007511138916,0.0010647244052961469,-0.01117960549890995,0.00931633822619915
18845175055575,1.1492167711257935,-9.75517463684082,1.455674648284912,-0.0026618109550327063,-0.008783976547420025,0.010381062515079975
18845176292687,1.1659762859344482,-9.727641105651855,1.4628572463989258,0.0010647244052961469,-0.0077192517928779125,0.008783976547420025
18845177529762,1.1599907875061035,-9.720458984375,1.4329297542572021,0.0042588976211845875,-0.015172322280704975,0.01171196810901165
18845178766862,1.1264718770980835,-9.72165584564209,1.4616601467132568,0.0021294488105922937,-0.01410759799182415,0.0090501569211483
18845180003962,1.1791443824768066,-9.739612579345703,1.4520833492279053,0.0063883461989462376,-0.0077192517928779125,0.00931633822619915
18845181241025,1.1252747774124146,-9.749189376831055,1.3970166444778442,0.0029279920272529125,-0.012510511092841625,0.00931633822619915
18845182478137,1.170764684677124,-9.728838920593262,1.4520833492279053,0.0010647244052961469,-0.00984870083630085,0.008517795242369175
18845183715212,1.1851298809051514,-9.728838920593262,1.4832079410552979,0.003460354171693325,-0.0090501569211483,0.00692070834338665
18845184952300,1.191115379333496,-9.72165584564209,1.4329297542572021,0.005057440605014563,-0.01117960549890995,0.0037265352439135313
18845186189400,1.171961784362793,-9.743204116821289,1.4293384552001953,0.005589802749454975,-0.010647243820130825,0.0066545275039970875
18845187426500,1.113303780555725,-9.720458984375,1.413776159286499,0.0071868896484375,-0.0071868896484375,0.007985432632267475
18845188663600,1.1420341730117798,-9.695320129394531,1.4041993618011475,0.0021294488105922937,-0.00958251953125,0.005855984054505825
18845189900687,1.1635820865631104,-9.725247383117676,1.4269442558288574,0.0007985432748682797,-0.00931633822619915,0.008783976547420025
18845191137762,1.1563994884490967,-9.740809440612793,1.437718152999878,-0.0013309054775163531,-0.0077192517928779125,0.0066545275039970875
18845192374837,1.1779472827911377,-9.737218856811523,1.4508862495422363,-0.0002661811013240367,-0.006122165359556675,0.005855984054505825
18845193611950,1.1815385818481445,-9.7420072555542,1.43532395362854,0.0023956298828125,-0.007985432632267475,-0.0005323622026480734
18845194849050,1.1839327812194824,-9.718064308166504,1.4449007511138916,0.005855984054505825,-0.01171196810901165,0.0029279920272529125
18845196086125,1.170764684677124,-9.726444244384766,1.436521053314209,0.0042588976211845875,-0.00692070834338665,0.00452507846057415
18845197323225,1.1623849868774414,-9.72165584564209,1.416170358657837,0.0005323622026480734,-0.0026618109550327063,0.005589802749454975
18845198560325,1.1659762859344482,-9.713275909423828,1.4221558570861816,0.0,-0.005057440605014563,0.0053236219100654125
18845199797387,1.216254472732544,-9.725247383117676,1.4425065517425537,0.00452507846057415,-0.005589802749454975,-0.0010647244052961469
18845201034487,1.139639973640442,-9.750386238098145,1.4832079410552979,0.0066545275039970875,-0.005057440605014563,-0.0031941730994731188
18845202271587,1.1276689767837524,-9.706093788146973,1.4652514457702637,0.0037265352439135313,-0.0063883461989462376,0.006122165359556675
18845203508675,1.171961784362793,-9.726444244384766,1.4449007511138916,0.0007985432748682797,-0.00984870083630085,0.007453070487827063
18845204745762,1.1779472827911377,-9.71926212310791,1.4736311435699463,0.003460354171693325,-0.003460354171693325,0.0023956298828125
18845205982850,1.2090718746185303,-9.745597839355469,1.4544775485992432,0.0031941730994731188,-0.0015970865497365594,0.005855984054505825
18845207219950,1.2054805755615234,-9.692925453186035,1.4700398445129395,0.0013309054775163531,-0.0026618109550327063,0.0029279920272529125
18845208457025,1.1899182796478271,-9.738415718078613,1.4221558570861816,0.0021294488105922937,-0.0037265352439135313,0.0029279920272529125
18845209694125,1.1659762859344482,-9.728838920593262,1.4329297542572021,0.0031941730994731188,-0.0007985432748682797,0.004791259765625
18845210931212,1.1516109704971313,-9.684545516967773,1.4173674583435059,0.005057440605014563,-0.005855984054505825,0.0010647244052961469
18845212168312,1.1887211799621582,-9.703699111938477,1.4915876388549805,0.0031941730994731188,-0.00692070834338665,0.0037265352439135313
18845213405400,1.1755530834197998,-9.734824180603027,1.4760253429412842,0.003460354171693325,-0.005855984054505825,0.0026618109550327063
18845214642462,1.1971008777618408,-9.724050521850586,1.43532395362854,0.0042588976211845875,-0.0026618109550327063,0.0077192517928779125
18845215879575,1.194706678390503,-9.728838920593262,1.4460978507995605,0.005057440605014563,-0.0021294488105922937,0.007453070487827063
18845217116675,1.173158884048462,-9.712079048156738,1.4736311435699463,0.00692070834338665,-0.003460354171693325,0.005589802749454975
18845218353762,1.1587936878204346,-9.694122314453125,1.4532804489135742,0.007985432632267475,0.0021294488105922937,0.0042588976211845875
18845219590850,1.1791443824768066,-9.720458984375,1.459265947341919,0.0029279920272529125,-0.0007985432748682797,0.008783976547420025
18845220827937,1.1671733856201172,-9.731232643127441,1.4329297542572021,0.0023956298828125,-0.0039927163161337376,0.00692070834338665
18845222065012,1.171961784362793,-9.692925453186035,1.4760253429412842,0.003460354171693325,-0.008517795242369175,0.005589802749454975
18845223302125,1.169567584991455,-9.718064308166504,1.455674648284912,0.005589802749454975,-0.007453070487827063,0.006122165359556675
18845224539225,1.1755530834197998,-9.708487510681152,1.4532804489135742,0.005589802749454975,-0.0010647244052961469,0.006122165359556675
18845225776300,1.2078747749328613,-9.737218856811523,1.4544775485992432,0.0042588976211845875,0.0,0.003460354171693325
18845227013400,1.170764684677124,-9.720458984375,1.4640543460845947,0.0053236219100654125,0.0018632676219567657,0.0071868896484375
18845228250475,1.1671733856201172,-9.720458984375,1.4257471561431885,0.0018632676219567657,-0.0013309054775163531,0.0071868896484375
18845229487587,1.1635820865631104,-9.697713851928711,1.459265947341919,0.003460354171693325,0.0007985432748682797,0.0063883461989462376
18845230724675,1.1959037780761719,-9.725247383117676,1.4532804489135742,0.0026618109550327063,0.0015970865497365594,0.0029279920272529125
18845231961750,1.1276689767837524,-9.704896926879883,1.437718152999878,0.0031941730994731188,-0.0010647244052961469,0.0029279920272529125
18845233198850,1.1288660764694214,-9.68574333190918,1.4664485454559326,0.0023956298828125,-0.0010647244052961469,0.0031941730994731188
18845234435925,1.1348515748977661,-9.696516990661621,1.456871747970581,0.004791259765625,0.0039927163161337376,0.0063883461989462376
18845235673025,1.2054805755615234,-9.716867446899414,1.4724340438842773,0.0037265352439135313,-0.0015970865497365594,0.0090501569211483
18845236910125,1.1851298809051514,-9.68813705444336,1.4688427448272705,0.0031941730994731188,-0.003460354171693325,0.008251613937318325
18845238147187,1.2006921768188477,-9.749189376831055,1.4987702369689941,0.00931633822619915,0.0021294488105922937,0.006122165359556675
18845239384300,1.2198457717895508,-9.733627319335938,1.459265947341919,0.00931633822619915,0.0029279920272529125,0.003460354171693325
18845240621412,1.2198457717895508,-9.714473724365234,1.4532804489135742,0.010913425125181675,0.0002661811013240367,0.008517795242369175
18845241858500,1.2186486721038818,-9.718064308166504,1.478419542312622,0.005855984054505825,0.0029279920272529125,0.0018632676219567657
18845243095575,1.2306196689605713,-9.736021041870117,1.4879963397979736,0.0013309054775163531,0.005855984054505825,0.008783976547420025
18845244332662,1.2234370708465576,-9.732430458068848,1.459265947341919,0.0077192517928779125,0.003460354171693325,0.012510511092841625
18845245569762,1.1791443824768066,-9.72165584564209,1.4281413555145264,0.006122165359556675,-0.0005323622026480734,0.013042873702943325
18845246806850,1.217451572418213,-9.72285270690918,1.479616641998291,0.004791259765625,-0.0010647244052961469,0.0023956298828125
18845248043937,1.1863269805908203,-9.738415718078613,1.4520833492279053,0.00452507846057415,0.0029279920272529125,0.00452507846057415
18845249281025,1.2473790645599365,-9.750386238098145,1.4856021404266357,0.0026618109550327063,0.0015970865497365594,0.0021294488105922937
18845250518125,1.1803414821624756,-9.756372451782227,1.459265947341919,0.00692070834338665,-0.0026618109550327063,0.005855984054505825
18845251755225,1.1755530834197998,-9.750386238098145,1.459265947341919,0.0053236219100654125,0.0021294488105922937,0.0066545275039970875
18845252992300,1.1994950771331787,-9.745597839355469,1.45806884765625,0.003460354171693325,0.0031941730994731188,0.013309055007994175
18845254229400,1.2018892765045166,-9.740809440612793,1.5203181505203247,0.005057440605014563,0.004791259765625,0.00958251953125
18845255466475,1.1875240802764893,-9.708487510681152,1.4425065517425537,0.008251613937318325,0.0010647244052961469,0.00692070834338665
18845256703562,1.2114660739898682,-9.72285270690918,1.479616641998291,0.0029279920272529125,0.004791259765625,0.007985432632267475
18845257940662,1.2006921768188477,-9.761160850524902,1.4772224426269531,0.0066545275039970875,0.0037265352439135313,0.005855984054505825
18845259177750,1.1683704853057861,-9.696516990661621,1.4879963397979736,0.003460354171693325,0.0007985432748682797,0.005589802749454975
18845260414837,1.1803414821624756,-9.726444244384766,1.499967336654663,0.005589802749454975,0.00452507846057415,0.0013309054775163531
18845261651950,1.171961784362793,-9.739612579345703,1.4544775485992432,0.0018632676219567657,0.0031941730994731188,0.00452507846057415
18845262889037,1.2054805755615234,-9.725247383117676,1.479616641998291,0.0037265352439135313,0.0037265352439135313,0.00692070834338665
18845264126125,1.2078747749328613,-9.733627319335938,1.4472949504852295,0.0005323622026480734,0.00692070834338665,0.0077192517928779125
18845265363200,1.212663173675537,-9.7420072555542,1.4724340438842773,0.005589802749454975,0.0037265352439135313,0.007985432632267475
18845266600287,1.2030863761901855,-9.736021041870117,1.4676456451416016,0.00452507846057415,0.0018632676219567657,0.0066545275039970875
18845267837400,1.2066776752471924,-9.75517463684082,1.437718152999878,0.0039927163161337376,0.005057440605014563,0.0063883461989462376
18845269074487,1.2006921768188477,-9.713275909423828,1.479616641998291,0.0023956298828125,0.0053236219100654125,0.0077192517928779125
18845270311575,1.2222399711608887,-9.769539833068848,1.4640543460845947,0.005589802749454975,0.0037265352439135313,0.010114881210029125
18845271548675,1.193509578704834,-9.732430458068848,1.456871747970581,0.0039927163161337376,0.0039927163161337376,0.005057440605014563
18845272785762,1.1899182796478271,-9.71926212310791,1.4437036514282227,0.0029279920272529125,0.006122165359556675,0.00958251953125
18845274022850,1.2473790645599365,-9.747992515563965,1.5203181505203247,0.005057440605014563,0.0066545275039970875,0.010913425125181675
18845275259937,1.2222399711608887,-9.718064308166504,1.482010841369629,0.0071868896484375,0.005855984054505825,0.0071868896484375
18845276497025,1.2186486721038818,-9.740809440612793,1.5047557353973389,0.0077192517928779125,0.005057440605014563,0.008783976547420025
18845277734100,1.191115379333496,-9.747992515563965,1.4640543460845947,0.0039927163161337376,0.01117960549890995,0.0077192517928779125
18845278971212,1.1875240802764893,-9.774328231811523,1.4748282432556152,0.0066545275039970875,0.010913425125181675,0.008251613937318325
18845280208300,1.238999366760254,-9.6989107131958,1.4736311435699463,0.0066545275039970875,0.0042588976211845875,0.00692070834338665
18845281445387,1.191115379333496,-9.726444244384766,1.4844050407409668,0.0037265352439135313,0.0053236219100654125,0.00958251953125
18845282682487,1.212663173675537,-9.732430458068848,1.5155296325683594,0.0039927163161337376,0.0053236219100654125,0.007453070487827063
18845283919575,1.2066776752471924,-9.6989107131958,1.4676456451416016,0.006122165359556675,0.0037265352439135313,0.008783976547420025
18845285156662,1.2318167686462402,-9.716867446899414,1.4472949504852295,0.0002661811013240367,0.005589802749454975,0.0090501569211483
18845286393750,1.237802267074585,-9.738415718078613,1.437718152999878,0.0037265352439135313,0.004791259765625,0.01357523538172245
18845287630850,1.2222399711608887,-9.739612579345703,1.455674648284912,0.00692070834338665,0.0053236219100654125,0.00958251953125
18845288867937,1.2270283699035645,-9.733627319335938,1.4508862495422363,0.0018632676219567657,0.0029279920272529125,0.008783976547420025
18845290105025,1.1982979774475098,-9.714473724365234,1.4532804489135742,-0.0013309054775163531,0.00452507846057415,0.0071868896484375
18845291342112,1.169567584991455,-9.6989107131958,1.4724340438842773,0.003460354171693325,0.003460354171693325,0.0090501569211483
18845292579225,1.1851298809051514,-9.690531730651855,1.5119383335113525,0.005057440605014563,0.0023956298828125,0.01597086526453495
18845293816300,1.2090718746185303,-9.666589736938477,1.5406688451766968,0.010114881210029125,0.0021294488105922937,0.010913425125181675
18845295053400,1.2186486721038818,-9.696516990661621,1.4879963397979736,0.003460354171693325,0.0015970865497365594,0.0077192517928779125
18845296290475,1.2797008752822876,-9.732430458068848,1.4640543460845947,0.0023956298828125,0.0026618109550327063,0.01117960549890995
18845297527575,1.2234370708465576,-9.716867446899414,1.4724340438842773,0.0010647244052961469,0.0039927163161337376,0.0077192517928779125
18845298764675,1.2234370708465576,-9.703699111938477,1.4460978507995605,0.0002661811013240367,0.0023956298828125,0.00692070834338665
18845300001762,1.1827356815338135,-9.702502250671387,1.4233529567718506,0.0023956298828125,0.00452507846057415,0.0066545275039970875
18845301238837,1.2330138683319092,-9.727641105651855,1.4233529567718506,0.0021294488105922937,0.0021294488105922937,0.012776692397892475
18845302475937,1.2342109680175781,-9.710882186889648,1.4652514457702637,0.0039927163161337376,-0.0007985432748682797,0.00958251953125
18845303713037,1.2413935661315918,-9.727641105651855,1.4975731372833252,0.0031941730994731188,0.0039927163161337376,0.0090501569211483
18845304950125,1.2234370708465576,-9.696516990661621,1.501164436340332,0.00692070834338665,0.0029279920272529125,0.008517795242369175
18845306187212,1.2497732639312744,-9.7420072555542,1.4401123523712158,0.0018632676219567657,0.0015970865497365594,0.00984870083630085
18845307424300,1.191115379333496,-9.71926212310791,1.456871747970581,0.0015970865497365594,-0.0015970865497365594,0.0114457868039608
18845308661387,1.2449848651885986,-9.72165584564209,1.4724340438842773,0.0042588976211845875,0.0037265352439135313,0.008783976547420025
18845309898500,1.236605167388916,-9.716867446899414,1.4329297542572021,0.005057440605014563,0.0005323622026480734,0.010381062515079975
18845311135587,1.2461819648742676,-9.703699111938477,1.4700398445129395,0.0002661811013240367,0.0018632676219567657,0.012776692397892475
18845312372662,1.2342109680175781,-9.697713851928711,1.437718152999878,0.0021294488105922937,0.0002661811013240367,0.010913425125181675
18845313609750,1.2425906658172607,-9.708487510681152,1.4293384552001953,0.0066545275039970875,-0.0039927163161337376,0.008251613937318325
18845314846862,1.2042834758758545,-9.736021041870117,1.4185645580291748,0.0023956298828125,-0.0026618109550327063,0.01171196810901165
18845316083937,1.2342109680175781,-9.707290649414062,1.4281413555145264,0.0013309054775163531,0.0029279920272529125,0.01171196810901165
18845317321025,1.1659762859344482,-9.68574333190918,1.4760253429412842,0.0053236219100654125,0.0039927163161337376,0.01171196810901165
18845318558112,1.212663173675537,-9.6989107131958,1.4844050407409668,0.0039927163161337376,0.0,0.010647243820130825
18845319795225,1.1875240802764893,-9.750386238098145,1.4616601467132568,0.0031941730994731188,-0.0010647244052961469,0.012776692397892475
18845321032312,1.2222399711608887,-9.714473724365234,1.4484920501708984,-0.0005323622026480734,-0.0015970865497365594,0.012776692397892475
18845322269375,1.2066776752471924,-9.713275909423828,1.4628572463989258,-0.0002661811013240367,0.0010647244052961469,0.0039927163161337376
18845323506487,1.2078747749328613,-9.713275909423828,1.455674648284912,0.0031941730994731188,0.0,0.0119781494140625
18845324743587,1.259350061416626,-9.71926212310791,1.5155296325683594,-0.0015970865497365594,0.0013309054775163531,0.01117960549890995
18845325980687,1.2413935661315918,-9.697713851928711,1.4712369441986084,0.0039927163161337376,-0.0010647244052961469,0.01463996060192585
18845327217762,1.1982979774475098,-9.709685325622559,1.4628572463989258,0.0042588976211845875,0.0005323622026480734,0.01357523538172245
18845328454850,1.2186486721038818,-9.710882186889648,1.41257905960083,0.003460354171693325,0.0015970865497365594,0.01224433071911335
18845329691925,1.2210428714752197,-9.740809440612793,1.479616641998291,0.0021294488105922937,-0.0029279920272529125,0.01650322787463665
18845330929037,1.2102689743041992,-9.759963035583496,1.4915876388549805,-0.0007985432748682797,-0.0007985432748682797,0.01597086526453495
18845332166112,1.237802267074585,-9.708487510681152,1.4389152526855469,0.003460354171693325,0.0005323622026480734,0.00931633822619915
18845333403225,1.2677297592163086,-9.715670585632324,1.4736311435699463,0.0029279920272529125,0.0007985432748682797,0.008517795242369175
18845334640312,1.2078747749328613,-9.744400978088379,1.4329297542572021,0.0,0.0015970865497365594,0.008783976547420025
18845335877400,1.1456254720687866,-9.736021041870117,1.5095441341400146,0.0026618109550327063,0.0013309054775163531,0.00931633822619915
18845337114512,1.2030863761901855,-9.732430458068848,1.455674648284912,0.00692070834338665,-0.0005323622026480734,0.01171196810901165
18845338351587,1.2306196689605713,-9.738415718078613,1.4484920501708984,0.0026618109550327063,-0.0015970865497365594,0.008783976547420025
18845339588675,1.1982979774475098,-9.715670585632324,1.4688427448272705,0.0010647244052961469,0.0002661811013240367,0.0063883461989462376
18845340825762,1.194706678390503,-9.75278091430664,1.4305355548858643,0.0029279920272529125,-0.00452507846057415,0.008517795242369175
18845342062862,1.215057373046875,-9.749189376831055,1.4508862495422363,-0.0021294488105922937,-0.0053236219100654125,0.008517795242369175
18845343299962,1.2018892765045166,-9.744400978088379,1.4245500564575195,0.0,-0.0026618109550327063,0.010913425125181675
18845344537037,1.2461819648742676,-9.720458984375,1.4520833492279053,0.005057440605014563,-0.0029279920272529125,0.008517795242369175
18845345774125,1.2258312702178955,-9.708487510681152,1.4616601467132568,0.0013309054775163531,-0.0029279920272529125,0.01117960549890995
18845347011237,1.2330138683319092,-9.738415718078613,1.4939818382263184,0.0023956298828125,-0.0042588976211845875,0.01171196810901165
18845348248300,1.2282254695892334,-9.736021041870117,1.4963760375976562,0.006122165359556675,-0.0063883461989462376,0.01357523538172245
18845349485400,1.193509578704834,-9.724050521850586,1.5107412338256836,0.0,-0.005589802749454975,0.0042588976211845875
18845350722500,1.2042834758758545,-9.696516990661621,1.4879963397979736,0.0023956298828125,-0.0029279920272529125,0.0063883461989462376
18845351959575,1.2210428714752197,-9.720458984375,1.4281413555145264,0.00452507846057415,-0.005057440605014563,0.013309055007994175
18845353196675,1.215057373046875,-9.6989107131958,1.4640543460845947,0.0066545275039970875,-0.0042588976211845875,0.0157046839594841
18845354433762,1.2413935661315918,-9.750386238098145,1.478419542312622,0.004791259765625,-0.00958251953125,0.01783413253724575
18845355670850,1.2030863761901855,-9.745597839355469,1.4496891498565674,0.0021294488105922937,-0.0063883461989462376,0.0162370465695858
18845356907962,1.1863269805908203,-9.737218856811523,1.501164436340332,-0.0002661811013240367,-0.0042588976211845875,0.010913425125181675
18845358145050,1.1875240802764893,-9.745597839355469,1.4652514457702637,-0.0002661811013240367,-0.0042588976211845875,0.008783976547420025
18845359382137,1.1899182796478271,-9.713275909423828,1.4628572463989258,-0.0005323622026480734,-0.004791259765625,0.010381062515079975
18845360619225,1.216254472732544,-9.724050521850586,1.4628572463989258,0.0023956298828125,-0.008783976547420025,0.013309055007994175
18845361856325,1.2270283699035645,-9.708487510681152,1.4760253429412842,0.004791259765625,-0.0077192517928779125,0.01703559048473835
18845363093412,1.235408067703247,-9.707290649414062,1.4496891498565674,0.005057440605014563,-0.005855984054505825,0.0157046839594841
18845364330500,1.2342109680175781,-9.716867446899414,1.4389152526855469,-0.0010647244052961469,-0.004791259765625,0.01357523538172245
18845365567587,1.2066776752471924,-9.728838920593262,1.4736311435699463,0.00452507846057415,-0.006122165359556675,0.012510511092841625
18845366804687,1.2114660739898682,-9.706093788146973,1.4281413555145264,0.0023956298828125,-0.0063883461989462376,0.00931633822619915
18845368041787,1.2222399711608887,-9.734824180603027,1.502361536026001,0.0015970865497365594,-0.0066545275039970875,0.0119781494140625
18845369278862,1.1552022695541382,-9.701305389404297,1.5059528350830078,-0.0007985432748682797,-0.007985432632267475,0.0119781494140625
18845370515962,1.2114660739898682,-9.696516990661621,1.4987702369689941,0.0002661811013240367,-0.005589802749454975,0.0071868896484375
18845371753037,1.2318167686462402,-9.739612579345703,1.4077906608581543,0.0007985432748682797,-0.008517795242369175,0.005855984054505825
18845372990150,1.215057373046875,-9.764751434326172,1.4628572463989258,0.0010647244052961469,-0.00984870083630085,0.014906140975654125
18845374227225,1.191115379333496,-9.71926212310791,1.43532395362854,0.0031941730994731188,-0.007985432632267475,0.0119781494140625
18845375464337,1.2186486721038818,-9.736021041870117,1.4676456451416016,0.0018632676219567657,-0.008783976547420025,0.00931633822619915
18845376701425,1.2054805755615234,-9.7420072555542,1.4879963397979736,0.0023956298828125,-0.012510511092841625,0.012776692397892475
18845377938500,1.213860273361206,-9.707290649414062,1.4544775485992432,0.0005323622026480734,-0.012510511092841625,0.010913425125181675
18845379175612,1.2078747749328613,-9.739612579345703,1.4401123523712158,0.0039927163161337376,-0.0037265352439135313,0.010913425125181675
18845380412687,1.2545616626739502,-9.709685325622559,1.4736311435699463,0.0037265352439135313,-0.0077192517928779125,0.01117960549890995
18845381649787,1.216254472732544,-9.718064308166504,1.45806884765625,0.0021294488105922937,-0.008517795242369175,0.014906140975654125
18845382886875,1.2102689743041992,-9.714473724365234,1.4317326545715332,0.0031941730994731188,-0.0063883461989462376,0.012510511092841625
