timestamp_ns,accel_x,accel_y,accel_z,gyro_x,gyro_y,gyro_z
17917340325025,2.3271641731262207,-8.784326553344727,4.285621166229248,-0.0066545275039970875,0.003460354171693325,0.008783976547420025
17917341562187,2.3092074394226074,-8.802282333374023,4.315548419952393,-0.0090501569211483,0.007985432632267475,0.012510511092841625
17917342799375,2.3032219409942627,-8.754398345947266,4.298789024353027,-0.00984870083630085,0.0071868896484375,0.00931633822619915
17917344036562,2.323572874069214,-8.773551940917969,4.334702014923096,-0.012776692397892475,0.0063883461989462376,0.0063883461989462376
17917345273750,2.324769973754883,-8.766369819641113,4.352658748626709,-0.008251613937318325,0.0063883461989462376,0.010913425125181675
17917346510912,2.340332269668579,-8.757989883422852,4.349067211151123,-0.00692070834338665,0.005057440605014563,0.01224433071911335
17917347748087,2.346317768096924,-8.724471092224121,4.3179426193237305,-0.0090501569211483,0.0013309054775163531,0.0053236219100654125
17917348985262,2.3977930545806885,-8.705317497253418,4.315548419952393,-0.007985432632267475,0.0031941730994731188,0.005589802749454975
17917350222437,2.342726469039917,-8.688557624816895,4.338293552398682,-0.007985432632267475,0.0015970865497365594,0.007985432632267475
17917351459612,2.4013843536376953,-8.710105895996094,4.314351558685303,-0.00931633822619915,-0.0023956298828125,0.012510511092841625
17917352696787,2.4169466495513916,-8.68017864227295,4.316745758056641,-0.00984870083630085,0.0023956298828125,0.0066545275039970875
17917353933975,2.408566951751709,-8.711302757263184,4.326322555541992,-0.0071868896484375,0.005589802749454975,0.004791259765625
17917355171150,2.3726539611816406,-8.675390243530273,4.282029628753662,-0.008517795242369175,0.0042588976211845875,0.0071868896484375
17917356408325,2.4013843536376953,-8.677783966064453,4.23773717880249,-0.00958251953125,-0.0005323622026480734,0.010913425125181675
17917357645487,2.3762452602386475,-8.676587104797363,4.304774761199951,-0.008517795242369175,-0.0053236219100654125,0.012510511092841625
17917358882675,2.3594858646392822,-8.667010307312012,4.273650169372559,-0.008251613937318325,-0.0066545275039970875,0.0114457868039608
17917360119837,2.3558945655822754,-8.681375503540039,4.355052947998047,-0.0077192517928779125,-0.0013309054775163531,0.008517795242369175
17917361357025,2.3762452602386475,-8.688557624816895,4.2951979637146,-0.0071868896484375,-0.0039927163161337376,0.007453070487827063
17917362594187,2.3151931762695312,-8.712499618530273,4.244919776916504,-0.0053236219100654125,-0.0063883461989462376,0.01357523538172245
17917363831362,2.3068132400512695,-8.71489429473877,4.23893404006958,-0.0077192517928779125,-0.0039927163161337376,0.00958251953125
17917365068537,2.29484224319458,-8.736441612243652,4.262876033782959,-0.01224433071911335,-0.00452507846057415,0.00452507846057415
17917366305712,2.2816741466522217,-8.707711219787598,4.2963948249816895,-0.012510511092841625,-0.003460354171693325,0.0039927163161337376
17917367542887,2.275688648223877,-8.759186744689941,4.267664432525635,-0.008517795242369175,-0.0053236219100654125,0.005855984054505825
17917368780075,2.292448043823242,-8.753201484680176,4.288015365600586,-0.0071868896484375,-0.00692070834338665,0.00692070834338665
17917370017262,2.3151931762695312,-8.755595207214355,4.267664432525635,-0.01357523538172245,-0.00958251953125,0.0005323622026480734
17917371254437,2.2888567447662354,-8.760384559631348,4.294000625610352,-0.0114457868039608,-0.008251613937318325,0.0013309054775163531
17917372491612,2.275688648223877,-8.787917137145996,4.267664432525635,-0.01463996060192585,-0.0077192517928779125,-0.0005323622026480734
17917373728787,2.275688648223877,-8.729259490966797,4.260481834411621,-0.01783413253724575,-0.006122165359556675,-0.0005323622026480734
17917374965962,2.3295583724975586,-8.757989883422852,4.246116638183594,-0.0173017717897892,-0.0077192517928779125,-0.0018632676219567657
17917376203150,2.3104045391082764,-8.738836288452148,4.304774761199951,-0.0181003138422966,-0.0114457868039608,-0.0042588976211845875
17917377440312,2.300827741622925,-8.71609115600586,4.2293572425842285,-0.0167694091796875,-0.010381062515079975,-0.00692070834338665
17917378677487,2.3319525718688965,-8.71728801727295,4.20541524887085,-0.01783413253724575,-0.0077192517928779125,-0.007985432632267475
17917379914650,2.3319525718688965,-8.711302757263184,4.24970817565918,-0.015438503585755825,-0.010114881210029125,-0.0063883461989462376
17917381151837,2.3523032665252686,-8.700529098510742,4.261679172515869,-0.014906140975654125,-0.007453070487827063,0.0
17917382389025,2.3523032665252686,-8.707711219787598,4.234145641326904,-0.01703559048473835,-0.0063883461989462376,-0.0039927163161337376
17917383626175,2.297236442565918,-8.71369743347168,4.301183223724365,-0.01410759799182415,-0.00958251953125,-0.0021294488105922937
17917384863350,2.29484224319458,-8.665813446044922,4.310760021209717,-0.01597086526453495,-0.0031941730994731188,-0.008517795242369175
17917386100537,2.3044190406799316,-8.62511157989502,4.277241230010986,-0.01650322787463665,-0.0018632676219567657,-0.006122165359556675
17917387337712,2.3104045391082764,-8.652645111083984,4.28322696685791,-0.02022976242005825,-0.008783976547420025,-0.0031941730994731188
17917388574887,2.346317768096924,-8.596381187438965,4.2975921630859375,-0.01943122036755085,-0.010913425125181675,-0.007453070487827063
17917389812075,2.337938070297241,-8.62511157989502,4.299986362457275,-0.01410759799182415,-0.015172322280704975,-0.0053236219100654125
17917391049262,2.33913516998291,-8.637083053588867,4.2951979637146,-0.0114457868039608,-0.012510511092841625,-0.005057440605014563
17917392286425,2.3259670734405518,-8.619126319885254,4.24970817565918,-0.008783976547420025,-0.008783976547420025,-0.004791259765625
17917393523600,2.3511061668395996,-8.614337921142578,4.284423828125,-0.0053236219100654125,-0.008783976547420025,-0.0015970865497365594
17917394760787,2.366668462753296,-8.609549522399902,4.303577423095703,-0.008517795242369175,-0.010381062515079975,-0.005589802749454975
17917395997937,2.300827741622925,-8.597578048706055,4.274847030639648,-0.007985432632267475,-0.0162370465695858,-0.005855984054505825
17917397235125,2.317587375640869,-8.605957984924316,4.277241230010986,-0.0063883461989462376,-0.010913425125181675,-0.0015970865497365594
17917398472312,2.337938070297241,-8.643068313598633,4.264073371887207,-0.0039927163161337376,-0.006122165359556675,-0.0037265352439135313
17917399709487,2.36188006401062,-8.669404029846191,4.255693435668945,-0.0053236219100654125,-0.00958251953125,-0.0031941730994731188
17917400946662,2.342726469039917,-8.641871452331543,4.268861770629883,-0.0031941730994731188,-0.0138414166867733,-0.0042588976211845875
17917402183837,2.3319525718688965,-8.62271785736084,4.224568843841553,-0.004791259765625,-0.01224433071911335,-0.0023956298828125
17917403421000,2.3104045391082764,-8.647856712341309,4.252102375030518,-0.0013309054775163531,-0.01117960549890995,-0.0013309054775163531
17917404658175,2.317587375640869,-8.62511157989502,4.301183223724365,0.0031941730994731188,-0.012510511092841625,-0.0023956298828125
17917405895350,2.343923568725586,-8.65623664855957,4.2724528312683105,-0.0007985432748682797,-0.0114457868039608,0.0002661811013240367
17917407132512,2.3044190406799316,-8.663418769836426,4.23773717880249,-0.0029279920272529125,-0.0138414166867733,0.0029279920272529125
17917408369712,2.3092074394226074,-8.637083053588867,4.320336818695068,0.0013309054775163531,-0.013042873702943325,0.0037265352439135313
17917409606900,2.340332269668579,-8.634688377380371,4.289212226867676,0.0,-0.012776692397892475,0.004791259765625
17917410844062,2.317587375640869,-8.635885238647461,4.285621166229248,0.0021294488105922937,-0.0119781494140625,-0.0007985432748682797
17917412081250,2.2888567447662354,-8.613141059875488,4.259284973144531,0.0031941730994731188,-0.01410759799182415,0.0005323622026480734
17917413318400,2.324769973754883,-8.664615631103516,4.2724528312683105,0.005057440605014563,-0.0157046839594841,0.0015970865497365594
17917414555600,2.3116018772125244,-8.668207168579102,4.268861770629883,0.0005323622026480734,-0.01171196810901165,0.004791259765625
17917415792775,2.319981575012207,-8.663418769836426,4.247313976287842,-0.0021294488105922937,-0.00692070834338665,0.0026618109550327063
17917417029950,2.297236442565918,-8.643068313598633,4.270058631896973,0.0,-0.014373779296875,0.003460354171693325
17917418267125,2.345120668411255,-8.634688377380371,4.265270233154297,0.0,-0.013309055007994175,0.008251613937318325
17917419504312,2.3475148677825928,-8.65623664855957,4.2963948249816895,0.007985432632267475,-0.010381062515079975,0.007985432632267475
17917420741475,2.29484224319458,-8.643068313598633,4.2963948249816895,0.0039927163161337376,-0.0119781494140625,0.0005323622026480734
17917421978650,2.321178674697876,-8.611943244934082,4.267664432525635,0.0,-0.010913425125181675,0.0037265352439135313
17917423215825,2.340332269668579,-8.652645111083984,4.298789024353027,0.0023956298828125,-0.014906140975654125,0.00931633822619915
17917424453012,2.3080103397369385,-8.664615631103516,4.218583583831787,0.00958251953125,-0.015172322280704975,0.0021294488105922937
17917425690175,2.322375774383545,-8.652645111083984,4.2544965744018555,0.0071868896484375,-0.012510511092841625,0.0010647244052961469
17917426927350,2.317587375640869,-8.646659851074219,4.265270233154297,0.005589802749454975,-0.010114881210029125,0.0021294488105922937
17917428164525,2.33913516998291,-8.627506256103516,4.313154220581055,0.005589802749454975,-0.010381062515079975,0.0029279920272529125
17917429401712,2.324769973754883,-8.649053573608398,4.308365821838379,0.0037265352439135313,-0.008783976547420025,-0.0018632676219567657
17917430638887,2.3080103397369385,-8.649053573608398,4.259284973144531,0.0026618109550327063,-0.01224433071911335,0.0021294488105922937
17917431876062,2.322375774383545,-8.663418769836426,4.265270233154297,0.0031941730994731188,-0.01224433071911335,0.007985432632267475
17917433113250,2.33913516998291,-8.696937561035156,4.261679172515869,0.00452507846057415,-0.013042873702943325,0.00692070834338665
17917434350425,2.3367409706115723,-8.65982723236084,4.240131378173828,0.0042588976211845875,-0.00958251953125,0.0037265352439135313
17917435587575,2.324769973754883,-8.69334602355957,4.286818027496338,0.0066545275039970875,-0.010381062515079975,0.0026618109550327063
17917436824775,2.2804770469665527,-8.669404029846191,4.311957359313965,0.004791259765625,-0.012776692397892475,0.0021294488105922937
17917438061937,2.319981575012207,-8.675390243530273,4.286818027496338,0.007453070487827063,-0.012510511092841625,0.0077192517928779125
17917439299112,2.3343467712402344,-8.688557624816895,4.302380561828613,0.008783976547420025,-0.0090501569211483,0.010381062515079975
17917440536312,2.3319525718688965,-8.65982723236084,4.267664432525635,0.0138414166867733,-0.010647243820130825,0.0037265352439135313
17917441773475,2.324769973754883,-8.69095230102539,4.314351558685303,0.004791259765625,-0.012510511092841625,0.0077192517928779125
17917443010662,2.3307554721832275,-8.650250434875488,4.2963948249816895,0.00452507846057415,-0.013042873702943325,0.005057440605014563
17917444247825,2.3127989768981934,-8.698134422302246,4.290409564971924,0.0077192517928779125,-0.00958251953125,0.0042588976211845875
17917445485000,2.343923568725586,-8.655038833618164,4.279635429382324,0.0066545275039970875,-0.0071868896484375,0.0029279920272529125
17917446722175,2.3367409706115723,-8.702922821044922,4.279635429382324,0.006122165359556675,-0.00984870083630085,0.005057440605014563
17917447959337,2.322375774383545,-8.704120635986328,4.282029628753662,0.0042588976211845875,-0.010647243820130825,0.005057440605014563
17917449196537,2.322375774383545,-8.684967041015625,4.260481834411621,0.0039927163161337376,-0.010114881210029125,0.004791259765625
17917450433712,2.388216257095337,-8.694543838500977,4.246116638183594,0.0042588976211845875,-0.00931633822619915,0.0063883461989462376
17917451670887,2.3295583724975586,-8.694543838500977,4.246116638183594,0.0031941730994731188,-0.006122165359556675,0.0029279920272529125
17917452908062,2.323572874069214,-8.672995567321777,4.2544965744018555,-0.0018632676219567657,-0.00692070834338665,0.0
17917454145237,2.3523032665252686,-8.68017864227295,4.321534156799316,0.003460354171693325,-0.0138414166867733,-0.0015970865497365594
17917455382400,2.3319525718688965,-8.682572364807129,4.313154220581055,0.0077192517928779125,-0.012776692397892475,0.0053236219100654125
17917456619575,2.345120668411255,-8.671798706054688,4.282029628753662,0.0021294488105922937,-0.007985432632267475,0.0042588976211845875
17917457856762,2.363077163696289,-8.705317497253418,4.305971622467041,0.0015970865497365594,-0.0071868896484375,0.0077192517928779125
17917459093925,2.3116018772125244,-8.678980827331543,4.327519416809082,0.0013309054775163531,-0.0090501569211483,0.005057440605014563
17917460331100,2.33913516998291,-8.695740699768066,4.323928356170654,-0.0002661811013240367,-0.005855984054505825,0.0039927163161337376
17917461568287,2.3139960765838623,-8.675390243530273,4.273650169372559,-0.0026618109550327063,-0.010114881210029125,0.0031941730994731188
17917462805437,2.3092074394226074,-8.65623664855957,4.286818027496338,-0.0005323622026480734,-0.008517795242369175,0.0005323622026480734
17917464042650,2.299630641937256,-8.6897554397583,4.320336818695068,0.0026618109550327063,-0.008783976547420025,0.005589802749454975
17917465279812,2.3032219409942627,-8.676587104797363,4.352658748626709,0.0005323622026480734,-0.0066545275039970875,0.005855984054505825
17917466516987,2.319981575012207,-8.675390243530273,4.310760021209717,-0.0021294488105922937,-0.00692070834338665,0.003460354171693325
17917467754162,2.345120668411255,-8.699332237243652,4.270058631896973,-0.0037265352439135313,-0.010647243820130825,0.0015970865497365594
17917468991337,2.3594858646392822,-8.6897554397583,4.289212226867676,0.0013309054775163531,-0.008517795242369175,0.0023956298828125
17917470228525,2.342726469039917,-8.710105895996094,4.305971622467041,0.0010647244052961469,-0.003460354171693325,0.0015970865497365594
17917471465712,2.3475148677825928,-8.68017864227295,4.282029628753662,0.0010647244052961469,-0.007453070487827063,0.0018632676219567657
17917472702887,2.3475148677825928,-8.711302757263184,4.316745758056641,-0.0021294488105922937,-0.008783976547420025,0.004791259765625
17917473940050,2.3092074394226074,-8.698134422302246,4.325125217437744,-0.0013309054775163531,-0.0063883461989462376,0.005057440605014563
17917475177237,2.3307554721832275,-8.682572364807129,4.290409564971924,-0.0023956298828125,-0.00692070834338665,0.004791259765625
17917476414400,2.297236442565918,-8.684967041015625,4.280832767486572,0.0010647244052961469,-0.00931633822619915,0.0063883461989462376
17917477651587,2.324769973754883,-8.71609115600586,4.305971622467041,-0.00452507846057415,-0.008783976547420025,0.0023956298828125
17917478888775,2.299630641937256,-8.720879554748535,4.278438568115234,-0.0015970865497365594,-0.00958251953125,0.004791259765625
17917480125937,2.324769973754883,-8.725667953491211,4.298789024353027,-0.005057440605014563,-0.0071868896484375,0.006122165359556675
17917481363087,2.3163902759552,-8.729259490966797,4.265270233154297,-0.0071868896484375,-0.01117960549890995,0.008517795242369175
17917482600287,2.3151931762695312,-8.698134422302246,4.270058631896973,-0.005589802749454975,-0.0066545275039970875,0.0026618109550327063
17917483837450,2.3798365592956543,-8.707711219787598,4.288015365600586,-0.0007985432748682797,-0.008251613937318325,0.008783976547420025
17917485074637,2.360682964324951,-8.699332237243652,4.2509050369262695,-0.0029279920272529125,-0.007453070487827063,0.00958251953125
17917486311800,2.3511061668395996,-8.708909034729004,4.308365821838379,-0.0066545275039970875,-0.0039927163161337376,0.005855984054505825
17917487548962,2.3307554721832275,-8.706514358520508,4.334702014923096,-0.008251613937318325,-0.0031941730994731188,0.0031941730994731188
17917488786175,2.388216257095337,-8.684967041015625,4.2963948249816895,-0.010114881210029125,-0.00692070834338665,0.0013309054775163531
17917490023337,2.3523032665252686,-8.674192428588867,4.314351558685303,-0.007453070487827063,-0.0119781494140625,0.0021294488105922937
17917491260525,2.3319525718688965,-8.708909034729004,4.2963948249816895,-0.0071868896484375,-0.008517795242369175,0.010381062515079975
17917492497687,2.3271641731262207,-8.672995567321777,4.2963948249816895,-0.005855984054505825,-0.010381062515079975,0.00931633822619915
17917493734875,2.363077163696289,-8.71609115600586,4.321534156799316,-0.010913425125181675,-0.007985432632267475,0.0013309054775163531
17917494972050,2.3343467712402344,-8.676587104797363,4.284423828125,-0.0119781494140625,-0.0090501569211483,0.0010647244052961469
17917496209212,2.3163902759552,-8.677783966064453,4.292803764343262,-0.007453070487827063,-0.010381062515079975,0.005057440605014563
17917497446387,2.342726469039917,-8.724471092224121,4.280832767486572,-0.0077192517928779125,-0.00984870083630085,0.010114881210029125
17917498683562,2.3319525718688965,-8.701725959777832,4.292803764343262,-0.010114881210029125,-0.01171196810901165,0.007453070487827063
17917499920737,2.3367409706115723,-8.700529098510742,4.286818027496338,-0.0114457868039608,-0.008251613937318325,0.0053236219100654125
17917501157900,2.3259670734405518,-8.722076416015625,4.322731018066406,-0.010381062515079975,-0.007453070487827063,0.00931633822619915
17917502395100,2.3331496715545654,-8.677783966064453,4.265270233154297,-0.010913425125181675,-0.0077192517928779125,0.0114457868039608
17917503632275,2.3762452602386475,-8.694543838500977,4.290409564971924,-0.013309055007994175,-0.0119781494140625,0.008517795242369175
17917504869462,2.3127989768981934,-8.69095230102539,4.264073371887207,-0.01357523538172245,-0.0077192517928779125,0.0077192517928779125
17917506106637,2.2876596450805664,-8.677783966064453,4.323928356170654,-0.01410759799182415,-0.0053236219100654125,0.0119781494140625
17917507343800,2.3487119674682617,-8.705317497253418,4.274847030639648,-0.007985432632267475,-0.006122165359556675,0.01171196810901165
17917508580975,2.3139960765838623,-8.675390243530273,4.313154220581055,-0.00984870083630085,-0.0119781494140625,0.00984870083630085
17917509818137,2.3044190406799316,-8.670601844787598,4.3179426193237305,-0.010913425125181675,-0.015438503585755825,0.0063883461989462376
17917511055337,2.3558945655822754,-8.684967041015625,4.288015365600586,-0.010913425125181675,-0.01117960549890995,0.004791259765625
17917512292525,2.3738510608673096,-8.723274230957031,4.292803764343262,-0.00692070834338665,-0.01357523538172245,0.010381062515079975
17917513529700,2.366668462753296,-8.705317497253418,4.282029628753662,-0.014373779296875,-0.01117960549890995,0.0090501569211483
17917514766875,2.3355438709259033,-8.674192428588867,4.255693435668945,-0.010114881210029125,-0.01224433071911335,0.005855984054505825
17917516004050,2.3092074394226074,-8.674192428588867,4.299986362457275,-0.01224433071911335,-0.0090501569211483,0.008251613937318325
17917517241225,2.3367409706115723,-8.702922821044922,4.289212226867676,-0.007985432632267475,-0.008783976547420025,0.010647243820130825
17917518478400,2.340332269668579,-8.677783966064453,4.309563159942627,-0.01463996060192585,-0.0191650390625,0.01224433071911335
17917519715575,2.3355438709259033,-8.667010307312012,4.259284973144531,-0.013309055007994175,-0.0138414166867733,0.010647243820130825
17917520952750,2.3750481605529785,-8.65623664855957,4.292803764343262,-0.008517795242369175,-0.0077192517928779125,0.008251613937318325
17917522189912,2.3582887649536133,-8.687360763549805,4.327519416809082,-0.008517795242369175,-0.008783976547420025,0.0066545275039970875
17917523427087,2.3582887649536133,-8.700529098510742,4.271255970001221,-0.013042873702943325,-0.013042873702943325,0.013042873702943325
17917524664262,2.3355438709259033,-8.686163902282715,4.290409564971924,-0.012510511092841625,-0.0114457868039608,0.0066545275039970875
17917525901437,2.3786394596099854,-8.675390243530273,4.316745758056641,-0.010381062515079975,-0.0119781494140625,0.00931633822619915
17917527138612,2.323572874069214,-8.664615631103516,4.3191399574279785,-0.015172322280704975,-0.01224433071911335,0.010913425125181675
17917528375800,2.3319525718688965,-8.653841972351074,4.279635429382324,-0.012510511092841625,-0.01463996060192585,0.007453070487827063
17917529612975,2.3032219409942627,-8.647856712341309,4.268861770629883,-0.007985432632267475,-0.0077192517928779125,0.005057440605014563
17917530850162,2.3283612728118896,-8.687360763549805,4.284423828125,-0.010114881210029125,-0.010913425125181675,0.008783976547420025
17917532087325,2.342726469039917,-8.702922821044922,4.248510837554932,-0.013042873702943325,-0.0119781494140625,0.0071868896484375
17917533324487,2.3798365592956543,-8.663418769836426,4.223371982574463,-0.007453070487827063,-0.012510511092841625,0.004791259765625
17917534561675,2.296039342880249,-8.682572364807129,4.219780445098877,-0.0077192517928779125,-0.01357523538172245,0.00931633822619915
17917535798875,2.323572874069214,-8.672995567321777,4.268861770629883,-0.008251613937318325,-0.0181003138422966,0.010114881210029125
17917537036025,2.293645143508911,-8.670601844787598,4.2724528312683105,-0.007453070487827063,-0.013309055007994175,0.00452507846057415
17917538273200,2.3343467712402344,-8.69214916229248,4.273650169372559,-0.0138414166867733,-0.008783976547420025,0.0031941730994731188
17917539510375,2.324769973754883,-8.678980827331543,4.274847030639648,-0.010381062515079975,-0.012510511092841625,0.00931633822619915
17917540747562,2.323572874069214,-8.632294654846191,4.2760443687438965,-0.0071868896484375,-0.01357523538172245,0.0071868896484375
17917541984737,2.3295583724975586,-8.646659851074219,4.271255970001221,-0.0066545275039970875,-0.014906140975654125,0.0053236219100654125
17917543221912,2.3523032665252686,-8.639476776123047,4.243722438812256,-0.010114881210029125,-0.0119781494140625,0.00984870083630085
17917544459100,2.3151931762695312,-8.677783966064453,4.264073371887207,-0.0071868896484375,-0.01836649514734745,0.0077192517928779125
17917545696275,2.318784475326538,-8.688557624816895,4.2724528312683105,-0.007453070487827063,-0.01410759799182415,0.0007985432748682797
17917546933437,2.3151931762695312,-8.695740699768066,4.231751441955566,-0.01117960549890995,-0.008783976547420025,0.006122165359556675
17917548170600,2.3511061668395996,-8.704120635986328,4.28322696685791,-0.00931633822619915,-0.01171196810901165,0.0066545275039970875
17917549407800,2.319981575012207,-8.661025047302246,4.255693435668945,-0.0053236219100654125,-0.0167694091796875,0.006122165359556675
17917550644962,2.3523032665252686,-8.655038833618164,4.2724528312683105,-0.0063883461989462376,-0.01410759799182415,0.013042873702943325
17917551882125,2.323572874069214,-8.668207168579102,4.286818027496338,-0.0037265352439135313,-0.01410759799182415,0.010381062515079975
17917553119312,2.3139960765838623,-8.686163902282715,4.252102375030518,-0.010913425125181675,-0.01410759799182415,0.007453070487827063
17917554356487,2.343923568725586,-8.688557624816895,4.261679172515869,-0.005855984054505825,-0.01703559048473835,0.0031941730994731188
17917555593675,2.3367409706115723,-8.69214916229248,4.228160381317139,-0.0063883461989462376,-0.012510511092841625,0.005057440605014563
17917556830850,2.321178674697876,-8.725667953491211,4.225766181945801,-0.0053236219100654125,-0.0114457868039608,0.010381062515079975
17917558068025,2.3594858646392822,-8.684967041015625,4.23893404006958,-0.0021294488105922937,-0.01410759799182415,0.007453070487827063
17917559305212,2.3331496715545654,-8.683769226074219,4.267664432525635,-0.010913425125181675,-0.012510511092841625,0.004791259765625
17917560542375,2.324769973754883,-8.71609115600586,4.266467571258545,-0.010647243820130825,-0.010913425125181675,0.005057440605014563
17917561779562,2.3295583724975586,-8.735244750976562,4.252102375030518,-0.0077192517928779125,-0.01836649514734745,0.00452507846057415
17917563016737,2.318784475326538,-8.687360763549805,4.243722438812256,-0.01117960549890995,-0.0173017717897892,0.0007985432748682797
17917564253900,2.317587375640869,-8.711302757263184,4.241328239440918,-0.008251613937318325,-0.010913425125181675,0.006122165359556675
17917565491087,2.3726539611816406,-8.712499618530273,4.246116638183594,-0.00452507846057415,-0.014373779296875,0.010913425125181675
17917566728250,2.3511061668395996,-8.671798706054688,4.240131378173828,-0.006122165359556675,-0.01171196810901165,0.0039927163161337376
17917567965462,2.29484224319458,-8.700529098510742,4.244919776916504,-0.007453070487827063,-0.013042873702943325,0.0029279920272529125
17917569202625,2.3331496715545654,-8.69095230102539,4.280832767486572,-0.005855984054505825,-0.015172322280704975,0.0018632676219567657
17917570439787,2.36188006401062,-8.732851028442383,4.288015365600586,-0.0026618109550327063,-0.012510511092841625,0.0021294488105922937
17917571676962,2.3582887649536133,-8.708909034729004,4.23893404006958,-0.0066545275039970875,-0.010647243820130825,0.0066545275039970875
17917572914125,2.3546974658966064,-8.731653213500977,4.286818027496338,-0.007453070487827063,-0.014373779296875,0.004791259765625
17917574151312,2.3307554721832275,-8.734047889709473,4.2724528312683105,-0.0053236219100654125,-0.01357523538172245,0.00931633822619915
17917575388500,2.3092074394226074,-8.738836288452148,4.2329487800598145,-0.00692070834338665,-0.01224433071911335,0.0029279920272529125
17917576625675,2.322375774383545,-8.719682693481445,4.252102375030518,-0.005057440605014563,-0.00984870083630085,0.0042588976211845875
17917577862862,2.2876596450805664,-8.759186744689941,4.2760443687438965,-0.005057440605014563,-0.0157046839594841,0.00931633822619915
17917579100025,2.2888567447662354,-8.7268648147583,4.291606426239014,-0.00452507846057415,-0.0119781494140625,0.008783976547420025
17917580337200,2.293645143508911,-8.720879554748535,4.2544965744018555,-0.0039927163161337376,-0.008517795242369175,0.008251613937318325
17917581574375,2.3163902759552,-8.741230010986328,4.262876033782959,-0.004791259765625,-0.00931633822619915,0.010647243820130825
17917582811550,2.318784475326538,-8.738836288452148,4.24970817565918,-0.006122165359556675,-0.010913425125181675,0.00931633822619915
17917584048725,2.3116018772125244,-8.731653213500977,4.314351558685303,-0.010647243820130825,-0.01171196810901165,0.010381062515079975
17917585285912,2.3032219409942627,-8.736441612243652,4.266467571258545,-0.004791259765625,-0.00931633822619915,0.0090501569211483
17917586523087,2.300827741622925,-8.760384559631348,4.2509050369262695,-0.0037265352439135313,-0.007453070487827063,0.01171196810901165
17917587760262,2.278082847595215,-8.744821548461914,4.242525577545166,-0.0053236219100654125,-0.0114457868039608,0.010913425125181675
17917588997437,2.3068132400512695,-8.754398345947266,4.231751441955566,-0.0066545275039970875,-0.010647243820130825,0.0157046839594841
17917590234612,2.3475148677825928,-8.723274230957031,4.222174644470215,-0.0018632676219567657,-0.008783976547420025,0.010381062515079975
17917591471800,2.2840683460235596,-8.7484130859375,4.279635429382324,-0.007453070487827063,-0.0063883461989462376,0.010647243820130825
17917592708962,2.3271641731262207,-8.729259490966797,4.246116638183594,-0.0053236219100654125,-0.008251613937318325,0.0119781494140625
17917593946150,2.3020248413085938,-8.740033149719238,4.2544965744018555,-0.0077192517928779125,-0.008251613937318325,0.01410759799182415
17917595183325,2.2876596450805664,-8.743624687194824,4.225766181945801,-0.007985432632267475,-0.007985432632267475,0.01463996060192585
17917596420487,2.3151931762695312,-8.744821548461914,4.246116638183594,-0.004791259765625,-0.00692070834338665,0.012776692397892475
17917597657687,2.33913516998291,-8.742427825927734,4.242525577545166,-0.005589802749454975,-0.0077192517928779125,0.010913425125181675
17917598894837,2.317587375640869,-8.736441612243652,4.248510837554932,-0.005057440605014563,-0.007985432632267475,0.0167694091796875
17917600132012,2.318784475326538,-8.746018409729004,4.284423828125,-0.00931633822619915,-0.0066545275039970875,0.015172322280704975
17917601369212,2.346317768096924,-8.740033149719238,4.2329487800598145,-0.012776692397892475,-0.004791259765625,0.0167694091796875
17917602606387,2.300827741622925,-8.702922821044922,4.2509050369262695,-0.010381062515079975,-0.0042588976211845875,0.01463996060192585
17917603843550,2.2888567447662354,-8.6897554397583,4.2090067863464355,-0.0066545275039970875,-0.008783976547420025,0.015172322280704975
17917605080737,2.278082847595215,-8.723274230957031,4.266467571258545,-0.0066545275039970875,-0.0063883461989462376,0.013042873702943325
17917606317912,2.323572874069214,-8.712499618530273,4.2544965744018555,-0.010114881210029125,-0.0031941730994731188,0.01117960549890995
17917607555087,2.337938070297241,-8.736441612243652,4.292803764343262,-0.007985432632267475,-0.0053236219100654125,0.01703559048473835
17917608792262,2.3044190406799316,-8.740033149719238,4.298789024353027,-0.00452507846057415,-0.0037265352439135313,0.0186326764523983
17917610029437,2.3259670734405518,-8.69214916229248,4.2724528312683105,-0.004791259765625,-0.005589802749454975,0.0157046839594841
17917611266612,2.323572874069214,-8.71609115600586,4.2544965744018555,-0.0063883461989462376,-0.00452507846057415,0.01943122036755085
17917612503775,2.3475148677825928,-8.711302757263184,4.2760443687438965,-0.005855984054505825,-0.0063883461989462376,0.0186326764523983
17917613740962,2.342726469039917,-8.723274230957031,4.261679172515869,-0.00692070834338665,-0.005057440605014563,0.0173017717897892
17917614978150,2.3259670734405518,-8.718485832214355,4.24970817565918,-0.0023956298828125,-0.010114881210029125,0.015172322280704975
17917616215312,2.3558945655822754,-8.71728801727295,4.264073371887207,-0.005589802749454975,-0.003460354171693325,0.02022976242005825
17917617452475,2.385822057723999,-8.743624687194824,4.284423828125,-0.007453070487827063,-0.0029279920272529125,0.01703559048473835
17917618689662,2.3774423599243164,-8.700529098510742,4.314351558685303,-0.0071868896484375,-0.0042588976211845875,0.015438503585755825
17917619926837,2.388216257095337,-8.699332237243652,4.266467571258545,-0.003460354171693325,-0.005057440605014563,0.02076212503015995
17917621164012,2.449268341064453,-8.684967041015625,4.2951979637146,-0.007985432632267475,-0.00958251953125,0.0186326764523983
17917622401187,2.4241292476654053,-8.704120635986328,4.285621166229248,-0.0026618109550327063,-0.010647243820130825,0.01703559048473835
17917623638375,2.4025814533233643,-8.681375503540039,4.270058631896973,-0.006122165359556675,-0.0077192517928779125,0.0186326764523983
17917624875550,2.387019157409668,-8.68017864227295,4.270058631896973,-0.005589802749454975,-0.01171196810901165,0.01171196810901165
17917626112737,2.3570916652679443,-8.69214916229248,4.262876033782959,-0.0021294488105922937,-0.008251613937318325,0.013309055007994175
17917627349900,2.3307554721832275,-8.704120635986328,4.270058631896973,-0.007985432632267475,-0.003460354171693325,0.0196974016726017
17917628587075,2.369062662124634,-8.705317497253418,4.277241230010986,-0.0042588976211845875,-0.0053236219100654125,0.01996358297765255
17917629824262,2.383427858352661,-8.702922821044922,4.261679172515869,-0.0005323622026480734,-0.005855984054505825,0.01783413253724575
17917631061437,2.3546974658966064,-8.711302757263184,4.271255970001221,-0.0023956298828125,-0.00452507846057415,0.01783413253724575
17917632298625,2.3714568614959717,-8.675390243530273,4.23773717880249,-0.0029279920272529125,-0.008251613937318325,0.0196974016726017
17917633535787,2.3942017555236816,-8.684967041015625,4.299986362457275,-0.0015970865497365594,-0.010647243820130825,0.0167694091796875
17917634772962,2.3738510608673096,-8.701725959777832,4.262876033782959,-0.0037265352439135313,-0.010647243820130825,0.0196974016726017
17917636010125,2.3750481605529785,-8.722076416015625,4.266467571258545,-0.0031941730994731188,-0.00692070834338665,0.02182685025036335
17917637247312,2.382230758666992,-8.664615631103516,4.302380561828613,-0.003460354171693325,-0.0090501569211483,0.0234239362180233
17917638484487,2.369062662124634,-8.707711219787598,4.305971622467041,-0.005057440605014563,-0.010381062515079975,0.0220930315554142
17917639721662,2.4001872539520264,-8.722076416015625,4.322731018066406,-0.0042588976211845875,-0.005855984054505825,0.02129448764026165
17917640958850,2.409764051437378,-8.683769226074219,4.2963948249816895,-0.0063883461989462376,-0.010114881210029125,0.023956298828125
17917642196025,2.406172752380371,-8.701725959777832,4.282029628753662,-0.004791259765625,-0.012510511092841625,0.0300784632563591
17917643433200,2.4025814533233643,-8.699332237243652,4.2975921630859375,-0.0018632676219567657,-0.01357523538172245,0.023956298828125
17917644670375,2.383427858352661,-8.694543838500977,4.2329487800598145,-0.0031941730994731188,-0.0157046839594841,0.0247548408806324
17917645907562,2.404975652694702,-8.71369743347168,4.247313976287842,-0.0039927163161337376,-0.0090501569211483,0.023956298828125
17917647144725,2.4193408489227295,-8.732851028442383,4.273650169372559,-0.0042588976211845875,-0.010381062515079975,0.03087700717151165
17917648381900,2.4193408489227295,-8.704120635986328,4.258087635040283,0.0005323622026480734,-0.010913425125181675,0.02981228195130825
17917649619087,2.3487119674682617,-8.708909034729004,4.2951979637146,-0.0037265352439135313,-0.01171196810901165,0.0258195661008358
17917650856262,2.4169466495513916,-8.724471092224121,4.3191399574279785,-0.0002661811013240367,-0.01756795309484005,0.0311431884765625
17917652093425,2.40736985206604,-8.700529098510742,4.210203647613525,0.0018632676219567657,-0.01703559048473835,0.02502102218568325
17917653330612,2.3930046558380127,-8.753201484680176,4.2329487800598145,-0.0002661811013240367,-0.013309055007994175,0.0306108258664608
17917654567775,2.385822057723999,-8.701725959777832,4.247313976287842,0.0031941730994731188,-0.0191650390625,0.02741665206849575
17917655804962,2.3594858646392822,-8.741230010986328,4.20421838760376,-0.0026618109550327063,-0.02182685025036335,0.02874755859375
17917657042137,2.3594858646392822,-8.736441612243652,4.278438568115234,0.0002661811013240367,-0.02182685025036335,0.02901373989880085
17917658279325,2.389413356781006,-8.71728801727295,4.253299236297607,-0.0023956298828125,-0.0228915736079216,0.0223592109978199
17917659516487,2.4205379486083984,-8.742427825927734,4.288015365600586,0.0015970865497365594,-0.02076212503015995,0.02262539230287075
17917660753662,2.3942017555236816,-8.688557624816895,4.290409564971924,-0.0007985432748682797,-0.015438503585755825,0.0338049978017807
17917661990825,2.383427858352661,-8.707711219787598,4.255693435668945,-0.0023956298828125,-0.01463996060192585,0.0319417305290699
17917663228037,2.3523032665252686,-8.702922821044922,4.282029628753662,0.0013309054775163531,-0.02022976242005825,0.0263519287109375
17917664465200,2.340332269668579,-8.699332237243652,4.270058631896973,0.0013309054775163531,-0.02422248013317585,0.0316755510866642
17917665702387,2.367865562438965,-8.738836288452148,4.314351558685303,0.0005323622026480734,-0.02182685025036335,0.03034464456140995
17917666939550,2.385822057723999,-8.725667953491211,4.278438568115234,0.0018632676219567657,-0.02661811001598835,0.0314093679189682
17917668176712,2.3786394596099854,-8.708909034729004,4.289212226867676,0.0026618109550327063,-0.023956298828125,0.0356682650744915
17917669413900,2.3151931762695312,-8.762778282165527,4.2509050369262695,-0.0007985432748682797,-0.02022976242005825,0.033272635191679
17917670651087,2.33913516998291,-8.752004623413086,4.311957359313965,-0.0007985432748682797,-0.02555338479578495,0.0268842913210392
17917671888237,2.343923568725586,-8.741230010986328,4.311957359313965,0.0031941730994731188,-0.02901373989880085,0.0295461006462574
17917673125437,2.3953988552093506,-8.742427825927734,4.3179426193237305,0.0021294488105922937,-0.02901373989880085,0.0306108258664608
17917674362600,2.3774423599243164,-8.702922821044922,4.292803764343262,-0.005057440605014563,-0.02661811001598835,0.0252872034907341
17917675599787,2.3295583724975586,-8.732851028442383,4.282029628753662,0.0018632676219567657,-0.0215606689453125,0.03087700717151165
17917676836962,2.3594858646392822,-8.723274230957031,4.267664432525635,0.003460354171693325,-0.02369011752307415,0.0295461006462574
17917678074137,2.3499090671539307,-8.699332237243652,4.256890773773193,0.0005323622026480734,-0.02794901467859745,0.0300784632563591
17917679311325,2.363077163696289,-8.736441612243652,4.258087635040283,-0.0021294488105922937,-0.02981228195130825,0.0330064557492733
17917680548487,2.3726539611816406,-8.699332237243652,4.256890773773193,-0.0037265352439135313,-0.0247548408806324,0.0295461006462574
17917681785687,2.3523032665252686,-8.722076416015625,4.279635429382324,-0.0031941730994731188,-0.0268842913210392,0.0311431884765625
17917683022837,2.342726469039917,-8.740033149719238,4.301183223724365,-0.00984870083630085,-0.0311431884765625,0.02741665206849575
17917684260037,2.388216257095337,-8.7268648147583,4.28322696685791,-0.0090501569211483,-0.02901373989880085,0.02741665206849575
17917685497187,2.3535003662109375,-8.704120635986328,4.277241230010986,-0.0037265352439135313,-0.02608574740588665,0.02422248013317585
17917686734362,2.3068132400512695,-8.662221908569336,4.277241230010986,-0.006122165359556675,-0.0268842913210392,0.0340711809694767
17917687971537,2.3558945655822754,-8.699332237243652,4.299986362457275,-0.0031941730994731188,-0.02901373989880085,0.02874755859375
17917689208712,2.3032219409942627,-8.711302757263184,4.255693435668945,-0.0010647244052961469,-0.02794901467859745,0.02422248013317585
17917690445900,2.3475148677825928,-8.65863037109375,4.262876033782959,-0.0071868896484375,-0.0252872034907341,0.0271504707634449
17917691683087,2.33913516998291,-8.650250434875488,4.246116638183594,-0.0026618109550327063,-0.0343373604118824,0.0292799212038517
17917692920250,2.3594858646392822,-8.696937561035156,4.248510837554932,-0.0026618109550327063,-0.0316755510866642,0.02848137728869915
17917694157437,2.3056161403656006,-8.65863037109375,4.246116638183594,-0.0010647244052961469,-0.0306108258664608,0.023956298828125
17917695394587,2.345120668411255,-8.667010307312012,4.284423828125,0.0005323622026480734,-0.0343373604118824,0.0220930315554142
17917696631775,2.3523032665252686,-8.678980827331543,4.299986362457275,0.0013309054775163531,-0.02608574740588665,0.0247548408806324
17917697868975,2.321178674697876,-8.677783966064453,4.258087635040283,0.0002661811013240367,-0.0276828333735466,0.02661811001598835
17917699106125,2.3535003662109375,-8.655038833618164,4.286818027496338,-0.0042588976211845875,-0.033272635191679,0.0258195661008358
17917700343325,2.322375774383545,-8.667010307312012,4.279635429382324,-0.006122165359556675,-0.0314093679189682,0.0252872034907341
17917701580500,2.33913516998291,-8.629899978637695,4.282029628753662,-0.0029279920272529125,-0.0316755510866642,0.02555338479578495
17917702817687,2.3523032665252686,-8.633491516113281,4.28322696685791,0.0005323622026480734,-0.033538818359375,0.0282151959836483
17917704054850,2.3092074394226074,-8.668207168579102,4.2724528312683105,0.0018632676219567657,-0.0316755510866642,0.02981228195130825
17917705292012,2.340332269668579,-8.664615631103516,4.282029628753662,0.005855984054505825,-0.0367329902946949,0.0263519287109375
17917706529200,2.382230758666992,-8.684967041015625,4.2760443687438965,-0.0023956298828125,-0.0330064557492733,0.01996358297765255
17917707766387,2.299630641937256,-8.652645111083984,4.298789024353027,0.0010647244052961469,-0.0316755510866642,0.02422248013317585
17917709003550,2.3020248413085938,-8.653841972351074,4.280832767486572,0.0015970865497365594,-0.0322079136967659,0.0276828333735466
17917710240712,2.3163902759552,-8.645462036132812,4.2544965744018555,-0.0013309054775163531,-0.0351359061896801,0.0247548408806324
17917711477900,2.3271641731262207,-8.687360763549805,4.274847030639648,0.0031941730994731188,-0.03087700717151165,0.0258195661008358
17917712715075,2.324769973754883,-8.69334602355957,4.253299236297607,0.0013309054775163531,-0.0346035435795784,0.0268842913210392
17917713952262,2.3092074394226074,-8.686163902282715,4.288015365600586,-0.0007985432748682797,-0.038063894957304,0.0271504707634449
17917715189437,2.2804770469665527,-8.698134422302246,4.247313976287842,0.0039927163161337376,-0.038063894957304,0.03034464456140995
17917716426612,2.2876596450805664,-8.71609115600586,4.244919776916504,-0.0010647244052961469,-0.0351359061896801,0.02502102218568325
17917717663787,2.2613234519958496,-8.69214916229248,4.278438568115234,-0.0037265352439135313,-0.0367329902946949,0.0252872034907341
17917718900962,2.3151931762695312,-8.698134422302246,4.261679172515869,0.0031941730994731188,-0.0359344482421875,0.02315775491297245
17917720138137,2.3163902759552,-8.711302757263184,4.222174644470215,0.0015970865497365594,-0.0346035435795784,0.0271504707634449
17917721375312,2.2804770469665527,-8.724471092224121,4.226963043212891,-0.0013309054775163531,-0.0348697230219841,0.02555338479578495
17917722612487,2.2002713680267334,-8.728062629699707,4.23773717880249,-0.0018632676219567657,-0.0364668108522892,0.0228915736079216
17917723849687,2.2649147510528564,-8.71609115600586,4.212597846984863,-0.0018632676219567657,-0.0377977155148983,0.02315775491297245
17917725086862,2.231395959854126,-8.753201484680176,4.271255970001221,-0.0021294488105922937,-0.0343373604118824,0.0228915736079216
17917726324025,2.24935245513916,-8.757989883422852,4.262876033782959,-0.0077192517928779125,-0.0322079136967659,0.01357523538172245
17917727561200,2.2397756576538086,-8.71728801727295,4.267664432525635,-0.00452507846057415,-0.033538818359375,0.0173017717897892
17917728798375,2.2409727573394775,-8.743624687194824,4.242525577545166,-0.0026618109550327063,-0.0346035435795784,0.01836649514734745
17917730035550,2.3068132400512695,-8.742427825927734,4.266467571258545,-0.0071868896484375,-0.033272635191679,0.02076212503015995
17917731272725,2.213439464569092,-8.737639427185059,4.210203647613525,-0.010913425125181675,-0.03087700717151165,0.0191650390625
17917732509900,2.22660756111145,-8.760384559631348,4.2509050369262695,-0.0063883461989462376,-0.0316755510866642,0.02262539230287075
17917733747100,2.2601263523101807,-8.754398345947266,4.2090067863464355,-0.010381062515079975,-0.0276828333735466,0.0220930315554142
17917734984262,2.2218191623687744,-8.78073501586914,4.213795185089111,-0.010913425125181675,-0.0292799212038517,0.014906140975654125
17917736221437,2.209848165512085,-8.757989883422852,4.216189384460449,-0.0114457868039608,-0.0359344482421875,0.01463996060192585
17917737458625,2.2002713680267334,-8.75080680847168,4.20541524887085,-0.0138414166867733,-0.0316755510866642,0.01889885775744915
17917738695787,2.1930887699127197,-8.757989883422852,4.258087635040283,-0.01410759799182415,-0.0322079136967659,0.0223592109978199
17917739932975,2.213439464569092,-8.741230010986328,4.282029628753662,-0.012776692397892475,-0.033538818359375,0.01943122036755085
17917741170150,2.227804660797119,-8.735244750976562,4.278438568115234,-0.0162370465695858,-0.0314093679189682,0.01783413253724575
17917742407312,2.2038626670837402,-8.7268648147583,4.203021049499512,-0.01463996060192585,-0.02981228195130825,0.01703559048473835
17917743644487,2.188300371170044,-8.735244750976562,4.246116638183594,-0.013042873702943325,-0.02741665206849575,0.01597086526453495
17917744881687,2.2457611560821533,-8.725667953491211,4.2544965744018555,-0.01597086526453495,-0.03087700717151165,0.02369011752307415
17917746118850,2.2014684677124023,-8.731653213500977,4.2544965744018555,-0.0114457868039608,-0.0271504707634449,0.0157046839594841
17917747356025,2.2206220626831055,-8.760384559631348,4.260481834411621,-0.0119781494140625,-0.0258195661008358,0.01410759799182415
17917748593175,2.1978771686553955,-8.723274230957031,4.274847030639648,-0.014373779296875,-0.0268842913210392,0.02022976242005825
17917749830375,2.2146365642547607,-8.722076416015625,4.218583583831787,-0.01703559048473835,-0.02369011752307415,0.02182685025036335
17917751067550,2.1942858695983887,-8.744821548461914,4.175487995147705,-0.015172322280704975,-0.02981228195130825,0.0215606689453125
17917752304737,2.1799206733703613,-8.719682693481445,4.24970817565918,-0.012510511092841625,-0.0268842913210392,0.02502102218568325
17917753541900,2.1978771686553955,-8.6897554397583,4.223371982574463,-0.015438503585755825,-0.0268842913210392,0.01889885775744915
17917754779100,2.1739351749420166,-8.723274230957031,4.242525577545166,-0.010913425125181675,-0.0234239362180233,0.01756795309484005
17917756016275,2.191891670227051,-8.735244750976562,4.262876033782959,-0.013042873702943325,-0.0220930315554142,0.0191650390625
17917757253437,2.213439464569092,-8.712499618530273,4.226963043212891,-0.01597086526453495,-0.01996358297765255,0.0157046839594841
17917758490612,2.165555477142334,-8.708909034729004,4.23893404006958,-0.014906140975654125,-0.0223592109978199,0.01357523538172245
17917759727812,2.2182278633117676,-8.724471092224121,4.234145641326904,-0.01357523538172245,-0.0244886614382267,0.0204959437251091
17917760964962,2.232593059539795,-8.695740699768066,4.2544965744018555,-0.01996358297765255,-0.0215606689453125,0.02315775491297245
17917762202150,2.2397756576538086,-8.705317497253418,4.230554580688477,-0.01410759799182415,-0.0228915736079216,0.01783413253724575
17917763439325,2.2445640563964844,-8.71609115600586,4.19224739074707,-0.014373779296875,-0.0167694091796875,0.01171196810901165
17917764676500,2.2158336639404297,-8.665813446044922,4.258087635040283,-0.01463996060192585,-0.01783413253724575,0.012510511092841625
17917765913687,2.2242133617401123,-8.723274230957031,4.213795185089111,-0.01703559048473835,-0.01703559048473835,0.01357523538172245
17917767150862,2.2194249629974365,-8.710105895996094,4.241328239440918,-0.0157046839594841,-0.0173017717897892,0.0167694091796875
17917768388025,2.232593059539795,-8.704120635986328,4.279635429382324,-0.01703559048473835,-0.015438503585755825,0.0173017717897892
17917769625200,2.230198860168457,-8.71489429473877,4.24970817565918,-0.01703559048473835,-0.015438503585755825,0.01171196810901165
17917770862387,2.2026655673980713,-8.684967041015625,4.261679172515869,-0.015438503585755825,-0.015172322280704975,0.00692070834338665
17917772099562,2.2385785579681396,-8.686163902282715,4.242525577545166,-0.01410759799182415,-0.0162370465695858,0.0077192517928779125
17917773336725,2.205059766769409,-8.730456352233887,4.236539840698242,-0.01410759799182415,-0.0157046839594841,0.008251613937318325
17917774573925,2.211045265197754,-8.729259490966797,4.2509050369262695,-0.0167694091796875,-0.01410759799182415,0.0031941730994731188
17917775811100,2.213439464569092,-8.731653213500977,4.2760443687438965,-0.01410759799182415,-0.012776692397892475,0.00692070834338665
17917777048287,2.206256866455078,-8.755595207214355,4.247313976287842,-0.012510511092841625,-0.0119781494140625,0.005855984054505825
17917778285450,2.2230162620544434,-8.746018409729004,4.219780445098877,-0.015172322280704975,-0.01171196810901165,0.0037265352439135313
17917779522612,2.2194249629974365,-8.707711219787598,4.261679172515869,-0.015438503585755825,-0.014906140975654125,0.00692070834338665
17917780759775,2.232593059539795,-8.707711219787598,4.2329487800598145,-0.015438503585755825,-0.012510511092841625,0.0015970865497365594
17917781996975,2.1954829692840576,-8.74960994720459,4.231751441955566,-0.0196974016726017,-0.01171196810901165,-0.0010647244052961469
17917783234162,2.256535053253174,-8.723274230957031,4.163516998291016,-0.0181003138422966,-0.0077192517928779125,0.0002661811013240367
17917784471325,2.2242133617401123,-8.744821548461914,4.226963043212891,-0.015172322280704975,-0.0066545275039970875,-0.004791259765625
17917785708512,2.233790159225464,-8.746018409729004,4.231751441955566,-0.0181003138422966,-0.01117960549890995,-0.0031941730994731188
17917786945687,2.248155355453491,-8.735244750976562,4.242525577545166,-0.01889885775744915,-0.0053236219100654125,-0.0053236219100654125
17917788182850,2.231395959854126,-8.731653213500977,4.248510837554932,-0.015438503585755825,-0.006122165359556675,-0.003460354171693325
17917789420037,2.1942858695983887,-8.696937561035156,4.235342979431152,-0.014373779296875,-0.00692070834338665,-0.00452507846057415
17917790657212,2.2385785579681396,-8.69095230102539,4.252102375030518,-0.0173017717897892,-0.003460354171693325,-0.010114881210029125
17917791894400,2.2589292526245117,-8.688557624816895,4.212597846984863,-0.01756795309484005,0.0002661811013240367,-0.0037265352439135313
17917793131562,2.2577321529388428,-8.687360763549805,4.212597846984863,-0.02076212503015995,0.0021294488105922937,-0.010913425125181675
17917794368750,2.22660756111145,-8.670601844787598,4.236539840698242,-0.0173017717897892,-0.0015970865497365594,-0.01224433071911335
17917795605925,2.234987258911133,-8.667010307312012,4.216189384460449,-0.01943122036755085,-0.0066545275039970875,-0.013309055007994175
17917796843087,2.2697031497955322,-8.65743350982666,4.213795185089111,-0.0204959437251091,-0.0042588976211845875,-0.013309055007994175
17917798080275,2.2661118507385254,-8.647856712341309,4.220977783203125,-0.0173017717897892,0.0002661811013240367,-0.014373779296875
17917799317462,2.2230162620544434,-8.646659851074219,4.256890773773193,-0.0223592109978199,0.0029279920272529125,-0.014906140975654125
17917800554625,2.2589292526245117,-8.684967041015625,4.20541524887085,-0.01836649514734745,0.0053236219100654125,-0.015172322280704975
17917801791800,2.274491548538208,-8.632294654846191,4.261679172515869,-0.01171196810901165,0.0042588976211845875,-0.01224433071911335
17917803028987,2.2445640563964844,-8.616731643676758,4.210203647613525,-0.01357523538172245,0.0023956298828125,-0.005855984054505825
17917804266150,2.2373814582824707,-8.627506256103516,4.203021049499512,-0.0162370465695858,0.005057440605014563,-0.0119781494140625
17917805503325,2.2816741466522217,-8.65863037109375,4.20541524887085,-0.014906140975654125,0.008783976547420025,-0.0167694091796875
17917806740512,2.2685060501098633,-8.65623664855957,4.206612586975098,-0.007453070487827063,0.008517795242369175,-0.014906140975654125
17917807977687,2.2601263523101807,-8.667010307312012,4.19344425201416,-0.00931633822619915,0.0042588976211845875,-0.01650322787463665
17917809214887,2.3080103397369385,-8.667010307312012,4.199429988861084,-0.01410759799182415,0.008251613937318325,-0.01783413253724575
17917810452050,2.2804770469665527,-8.668207168579102,4.226963043212891,-0.010913425125181675,0.01224433071911335,-0.0157046839594841
17917811689212,2.2697031497955322,-8.640673637390137,4.2078094482421875,-0.0063883461989462376,0.0063883461989462376,-0.01357523538172245
17917812926387,2.2852654457092285,-8.65623664855957,4.225766181945801,-0.00958251953125,0.00452507846057415,-0.0114457868039608
17917814163575,2.2864625453948975,-8.672995567321777,4.234145641326904,-0.005589802749454975,0.0063883461989462376,-0.01410759799182415
17917815400750,2.3319525718688965,-8.708909034729004,4.2078094482421875,-0.0037265352439135313,0.0090501569211483,-0.01703559048473835
17917816637912,2.3032219409942627,-8.702922821044922,4.224568843841553,-0.008783976547420025,0.01357523538172245,-0.0196974016726017
17917817875100,2.252943754196167,-8.71489429473877,4.194641590118408,-0.0090501569211483,0.01117960549890995,-0.0138414166867733
17917819112287,2.3092074394226074,-8.647856712341309,4.211400985717773,-0.00692070834338665,0.01117960549890995,-0.010647243820130825
17917820349450,2.3139960765838623,-8.652645111083984,4.201824188232422,-0.0053236219100654125,0.010913425125181675,-0.015438503585755825
17917821586637,2.322375774383545,-8.694543838500977,4.220977783203125,-0.00958251953125,0.0138414166867733,-0.01650322787463665
17917822823812,2.2697031497955322,-8.678980827331543,4.180276393890381,-0.005589802749454975,0.012510511092841625,-0.015172322280704975
17917824061000,2.3139960765838623,-8.688557624816895,4.188655853271484,-0.003460354171693325,0.01171196810901165,-0.012510511092841625
17917825298175,2.2912509441375732,-8.68017864227295,4.220977783203125,-0.008251613937318325,0.010381062515079975,-0.01357523538172245
17917826535325,2.298433542251587,-8.69334602355957,4.219780445098877,-0.0053236219100654125,0.005057440605014563,-0.010381062515079975
17917827772512,2.299630641937256,-8.694543838500977,4.230554580688477,-0.0053236219100654125,0.00931633822619915,-0.015172322280704975
17917829009700,2.321178674697876,-8.708909034729004,4.19344425201416,-0.0026618109550327063,0.010913425125181675,-0.01463996060192585
17917830246875,2.318784475326538,-8.676587104797363,4.213795185089111,-0.0002661811013240367,0.010114881210029125,-0.013309055007994175
17917831484025,2.345120668411255,-8.704120635986328,4.201824188232422,0.0013309054775163531,0.01171196810901165,-0.013042873702943325
17917832721237,2.3151931762695312,-8.675390243530273,4.195838451385498,0.0021294488105922937,0.0114457868039608,-0.012776692397892475
17917833958400,2.324769973754883,-8.710105895996094,4.180276393890381,-0.0023956298828125,0.01597086526453495,-0.01410759799182415
17917835195587,2.3319525718688965,-8.699332237243652,4.210203647613525,-0.0021294488105922937,0.0162370465695858,-0.01357523538172245
17917836432750,2.3020248413085938,-8.698134422302246,4.15992546081543,-0.0042588976211845875,0.0162370465695858,-0.010381062515079975
17917837669937,2.341529369354248,-8.702922821044922,4.183867454528809,-0.0042588976211845875,0.01703559048473835,-0.01410759799182415
17917838907112,2.346317768096924,-8.735244750976562,4.162319660186768,-0.005589802749454975,0.01943122036755085,-0.00984870083630085
17917840144287,2.3475148677825928,-8.686163902282715,4.195838451385498,-0.00692070834338665,0.015172322280704975,-0.00984870083630085
17917841381462,2.3331496715545654,-8.754398345947266,4.2293572425842285,-0.006122165359556675,0.01756795309484005,-0.010114881210029125
17917842618637,2.346317768096924,-8.701725959777832,4.20541524887085,-0.005057440605014563,0.0138414166867733,-0.01224433071911335
17917843855825,2.3319525718688965,-8.699332237243652,4.201824188232422,-0.005855984054505825,0.0138414166867733,-0.014906140975654125
17917845093000,2.340332269668579,-8.674192428588867,4.179079055786133,-0.0021294488105922937,0.0181003138422966,-0.01463996060192585
17917846330162,2.3343467712402344,-8.69334602355957,4.194641590118408,-0.0010647244052961469,0.0228915736079216,-0.013309055007994175
17917847567350,2.3535003662109375,-8.698134422302246,4.15872859954834,0.0002661811013240367,0.01783413253724575,-0.010381062515079975
17917848804512,2.403778553009033,-8.69334602355957,4.197035789489746,-0.0037265352439135313,0.015438503585755825,-0.0119781494140625
17917850041687,2.3511061668395996,-8.734047889709473,4.2090067863464355,-0.003460354171693325,0.0196974016726017,-0.01357523538172245
17917851278862,2.364274263381958,-8.701725959777832,4.189853191375732,-0.0015970865497365594,0.0181003138422966,-0.00692070834338665
17917852516037,2.36188006401062,-8.720879554748535,4.224568843841553,-0.0039927163161337376,0.0191650390625,-0.008783976547420025
17917853753225,2.340332269668579,-8.667010307312012,4.234145641326904,-0.0029279920272529125,0.01836649514734745,-0.0063883461989462376
17917854990412,2.337938070297241,-8.684967041015625,4.1874589920043945,-0.0021294488105922937,0.0210283063352108,-0.0114457868039608
17917856227587,2.404975652694702,-8.708909034729004,4.247313976287842,-0.0010647244052961469,0.01943122036755085,-0.010647243820130825
17917857464762,2.3499090671539307,-8.725667953491211,4.216189384460449,0.0007985432748682797,0.01756795309484005,-0.008783976547420025
17917858701925,2.389413356781006,-8.725667953491211,4.23773717880249,-0.005589802749454975,0.0215606689453125,-0.00958251953125
17917859939112,2.38462495803833,-8.731653213500977,4.217386245727539,-0.0021294488105922937,0.01597086526453495,-0.012510511092841625
17917861176300,2.3582887649536133,-8.69095230102539,4.230554580688477,0.0015970865497365594,0.01783413253724575,-0.012510511092841625
17917862413462,2.3367409706115723,-8.71609115600586,4.151546001434326,-0.004791259765625,0.02022976242005825,-0.012510511092841625
17917863650650,2.3930046558380127,-8.712499618530273,4.1862616539001465,-0.0015970865497365594,0.01756795309484005,-0.007985432632267475
17917864887825,2.360682964324951,-8.738836288452148,4.210203647613525,-0.0031941730994731188,0.014373779296875,-0.008783976547420025
17917866125012,2.367865562438965,-8.723274230957031,4.23773717880249,-0.0005323622026480734,0.01597086526453495,-0.0077192517928779125
17917867362175,2.360682964324951,-8.684967041015625,4.19224739074707,-0.0007985432748682797,0.0186326764523983,-0.0090501569211483
17917868599362,2.367865562438965,-8.71369743347168,4.177882194519043,-0.004791259765625,0.02129448764026165,-0.010381062515079975
17917869836525,2.3487119674682617,-8.719682693481445,4.200626850128174,-0.0066545275039970875,0.0181003138422966,-0.006122165359556675
17917871073700,2.412158250808716,-8.695740699768066,4.228160381317139,-0.0015970865497365594,0.01650322787463665,-0.0039927163161337376
17917872310887,2.390610456466675,-8.71728801727295,4.1874589920043945,-0.0029279920272529125,0.01410759799182415,-0.0071868896484375
17917873548062,2.3786394596099854,-8.677783966064453,4.188655853271484,0.0023956298828125,0.013042873702943325,-0.008783976547420025
17917874785237,2.4145524501800537,-8.688557624816895,4.194641590118408,0.0013309054775163531,0.01597086526453495,-0.005589802749454975
17917876022400,2.404975652694702,-8.653841972351074,4.223371982574463,-0.006122165359556675,0.01703559048473835,-0.0066545275039970875
17917877259587,2.3714568614959717,-8.653841972351074,4.2090067863464355,-0.0042588976211845875,0.01650322787463665,-0.0066545275039970875
17917878496750,2.428917646408081,-8.686163902282715,4.19344425201416,-0.0042588976211845875,0.01943122036755085,-0.005855984054505825
17917879733937,2.40736985206604,-8.687360763549805,4.23773717880249,-0.0013309054775163531,0.01836649514734745,-0.005855984054505825
17917880971112,2.390610456466675,-8.706514358520508,4.198232650756836,-0.0007985432748682797,0.0181003138422966,-0.0053236219100654125
17917882208300,2.428917646408081,-8.631096839904785,4.2090067863464355,-0.0037265352439135313,0.01756795309484005,-0.005589802749454975
17917883445475,2.3918075561523438,-8.667010307312012,4.176684856414795,-0.0015970865497365594,0.01597086526453495,-0.0029279920272529125
17917884682650,2.409764051437378,-8.65743350982666,4.246116638183594,0.0,0.0162370465695858,-0.0042588976211845875
17917885919812,2.4157495498657227,-8.675390243530273,4.20421838760376,-0.0002661811013240367,0.0157046839594841,-0.0029279920272529125
17917887157000,2.4025814533233643,-8.683769226074219,4.218583583831787,0.0026618109550327063,0.012510511092841625,-0.0015970865497365594
17917888394175,2.4241292476654053,-8.649053573608398,4.200626850128174,0.0029279920272529125,0.0114457868039608,-0.0013309054775163531
17917889631362,2.4384944438934326,-8.677783966064453,4.2090067863464355,0.0002661811013240367,0.014373779296875,-0.0037265352439135313
17917890868512,2.4169466495513916,-8.675390243530273,4.218583583831787,0.0018632676219567657,0.0157046839594841,-0.0013309054775163531
17917892105712,2.408566951751709,-8.695740699768066,4.2078094482421875,0.0021294488105922937,0.0114457868039608,0.0015970865497365594
17917893342887,2.403778553009033,-8.677783966064453,4.211400985717773,-0.0015970865497365594,0.00984870083630085,-0.0002661811013240367
17917894580075,2.410961151123047,-8.667010307312012,4.171896457672119,0.005855984054505825,0.0071868896484375,-0.0021294488105922937
17917895817237,2.448071241378784,-8.698134422302246,4.19224739074707,0.0015970865497365594,0.0090501569211483,-0.0023956298828125
17917897054400,2.4181437492370605,-8.671798706054688,4.2090067863464355,0.006122165359556675,0.010114881210029125,0.0007985432748682797
17917898291600,2.4193408489227295,-8.640673637390137,4.206612586975098,0.0071868896484375,0.00958251953125,0.0007985432748682797
17917899528762,2.433706045150757,-8.639476776123047,4.217386245727539,0.007985432632267475,0.00692070834338665,0.0010647244052961469
17917900765925,2.4384944438934326,-8.6897554397583,4.220977783203125,0.008783976547420025,0.0077192517928779125,-0.0007985432748682797
17917902003125,2.434903144836426,-8.6897554397583,4.201824188232422,0.006122165359556675,0.00984870083630085,-0.0013309054775163531
17917903240300,2.450465440750122,-8.683769226074219,4.19344425201416,0.00931633822619915,0.0037265352439135313,-0.0002661811013240367
17917904477475,2.4372973442077637,-8.68017864227295,4.2078094482421875,0.008517795242369175,0.005589802749454975,-0.0021294488105922937
17917905714650,2.4241292476654053,-8.688557624816895,4.179079055786133,0.007453070487827063,0.005589802749454975,0.0007985432748682797
17917906951825,2.4372973442077637,-8.676587104797363,4.218583583831787,0.007985432632267475,0.0063883461989462376,0.0018632676219567657
17917908188987,2.427720546722412,-8.662221908569336,4.213795185089111,0.00958251953125,0.0063883461989462376,0.0031941730994731188
17917909426175,2.4420857429504395,-8.663418769836426,4.248510837554932,0.014906140975654125,0.0029279920272529125,0.008251613937318325
17917910663350,2.4396915435791016,-8.645462036132812,4.20541524887085,0.00931633822619915,0.0029279920272529125,0.0063883461989462376
17917911900537,2.470816135406494,-8.663418769836426,4.216189384460449,0.0063883461989462376,0.0023956298828125,0.0023956298828125
17917913137712,2.4408886432647705,-8.652645111083984,4.2293572425842285,0.008783976547420025,0.0042588976211845875,0.0026618109550327063
17917914374875,2.473210334777832,-8.65743350982666,4.265270233154297,0.007453070487827063,0.0005323622026480734,0.0042588976211845875
17917915612062,2.427720546722412,-8.646659851074219,4.1659111976623535,0.0066545275039970875,0.0021294488105922937,0.0031941730994731188
17917916849237,2.4384944438934326,-8.641871452331543,4.206612586975098,0.012776692397892475,-0.0018632676219567657,0.005057440605014563
17917918086425,2.4384944438934326,-8.701725959777832,4.23893404006958,0.010647243820130825,-0.0021294488105922937,0.0063883461989462376
17917919323587,2.454056739807129,-8.678980827331543,4.217386245727539,0.007453070487827063,-0.0037265352439135313,0.006122165359556675
17917920560762,2.4468741416931152,-8.668207168579102,4.210203647613525,0.010913425125181675,-0.004791259765625,-0.0002661811013240367
17917921797962,2.4576480388641357,-8.6897554397583,4.174290657043457,0.005855984054505825,-0.0037265352439135313,-0.0005323622026480734
17917923035125,2.4372973442077637,-8.669404029846191,4.138377666473389,0.01117960549890995,-0.006122165359556675,0.0071868896484375
17917924272300,2.4600422382354736,-8.69095230102539,4.201824188232422,0.010647243820130825,-0.004791259765625,0.0031941730994731188
17917925509500,2.45285964012146,-8.694543838500977,4.200626850128174,0.013042873702943325,-0.006122165359556675,0.0013309054775163531
17917926746662,2.449268341064453,-8.678980827331543,4.206612586975098,0.0167694091796875,-0.0077192517928779125,0.0053236219100654125
17917927983837,2.499546527862549,-8.688557624816895,4.168305397033691,0.014906140975654125,-0.010913425125181675,0.0053236219100654125
17917929221000,2.4241292476654053,-8.719682693481445,4.1659111976623535,0.013042873702943325,-0.012510511092841625,0.0066545275039970875
17917930458187,2.4361002445220947,-8.695740699768066,4.188655853271484,0.0114457868039608,-0.01410759799182415,0.005855984054505825
17917931695362,2.448071241378784,-8.704120635986328,4.213795185089111,0.0119781494140625,-0.010381062515079975,0.0010647244052961469
17917932932562,2.4456770420074463,-8.69095230102539,4.219780445098877,0.005589802749454975,-0.0071868896484375,0.0039927163161337376
17917934169737,2.3965959548950195,-8.704120635986328,4.222174644470215,0.00984870083630085,-0.007453070487827063,0.0066545275039970875
17917935406887,2.426523447036743,-8.69334602355957,4.174290657043457,0.008783976547420025,-0.008783976547420025,0.00931633822619915
17917936644075,2.3582887649536133,-8.69214916229248,4.201824188232422,0.0114457868039608,-0.01117960549890995,0.010381062515079975
17917937881262,2.454056739807129,-8.707711219787598,4.19224739074707,0.0071868896484375,-0.0114457868039608,0.00692070834338665
17917939118412,2.431311845779419,-8.69214916229248,4.210203647613525,0.005589802749454975,-0.01463996060192585,0.0077192517928779125
17917940355625,2.40736985206604,-8.718485832214355,4.247313976287842,0.004791259765625,-0.015438503585755825,0.0021294488105922937
17917941592787,2.427720546722412,-8.684967041015625,4.2090067863464355,0.0031941730994731188,-0.014373779296875,0.0066545275039970875
17917942829962,2.389413356781006,-8.682572364807129,4.179079055786133,0.004791259765625,-0.015172322280704975,0.010647243820130825
17917944067125,2.390610456466675,-8.695740699768066,4.195838451385498,0.010114881210029125,-0.014906140975654125,0.0090501569211483
17917945304337,2.4133553504943848,-8.699332237243652,4.222174644470215,0.008517795242369175,-0.0181003138422966,0.012776692397892475
17917946541487,2.4241292476654053,-8.6897554397583,4.189853191375732,0.012776692397892475,-0.02129448764026165,0.007985432632267475
17917947778675,2.45285964012146,-8.71728801727295,4.188655853271484,0.01597086526453495,-0.02076212503015995,0.008251613937318325
17917949015862,2.40736985206604,-8.722076416015625,4.23893404006958,0.0157046839594841,-0.02608574740588665,0.01117960549890995
17917950253025,2.4205379486083984,-8.69214916229248,4.20541524887085,0.01224433071911335,-0.02315775491297245,0.0138414166867733
17917951490200,2.43011474609375,-8.707711219787598,4.225766181945801,0.01224433071911335,-0.0234239362180233,0.015438503585755825
17917952727375,2.412158250808716,-8.7268648147583,4.203021049499512,0.013042873702943325,-0.02182685025036335,0.01463996060192585
17917953964562,2.3977930545806885,-8.720879554748535,4.212597846984863,0.0114457868039608,-0.0263519287109375,0.01943122036755085
17917955201737,2.383427858352661,-8.74721622467041,4.219780445098877,0.010114881210029125,-0.0244886614382267,0.0196974016726017
17917956438912,2.345120668411255,-8.735244750976562,4.210203647613525,0.015438503585755825,-0.0268842913210392,0.0210283063352108
17917957676075,2.3810336589813232,-8.740033149719238,4.203021049499512,0.012776692397892475,-0.02502102218568325,0.02022976242005825
17917958913250,2.409764051437378,-8.729259490966797,4.266467571258545,0.01597086526453495,-0.0263519287109375,0.0215606689453125
17917960150437,2.3977930545806885,-8.686163902282715,4.23773717880249,0.0071868896484375,-0.0306108258664608,0.02022976242005825
17917961387612,2.3570916652679443,-8.684967041015625,4.267664432525635,0.01117960549890995,-0.02848137728869915,0.0244886614382267
17917962624775,2.3977930545806885,-8.719682693481445,4.266467571258545,0.014906140975654125,-0.02901373989880085,0.02129448764026165
17917963861962,2.410961151123047,-8.702922821044922,4.2724528312683105,0.01597086526453495,-0.02901373989880085,0.0268842913210392
17917965099137,2.4157495498657227,-8.69214916229248,4.303577423095703,0.0162370465695858,-0.0271504707634449,0.0276828333735466
17917966336325,2.4408886432647705,-8.722076416015625,4.226963043212891,0.015438503585755825,-0.0258195661008358,0.023956298828125
17917967573487,2.3726539611816406,-8.723274230957031,4.2090067863464355,0.0138414166867733,-0.02848137728869915,0.02555338479578495
17917968810675,2.410961151123047,-8.68017864227295,4.252102375030518,0.0162370465695858,-0.0324740931391716,0.03034464456140995
17917970047862,2.4361002445220947,-8.708909034729004,4.218583583831787,0.0210283063352108,-0.02901373989880085,0.0314093679189682
17917971285025,2.4013843536376953,-8.740033149719238,4.255693435668945,0.01996358297765255,-0.02874755859375,0.0306108258664608
17917972522200,2.4025814533233643,-8.676587104797363,4.260481834411621,0.0167694091796875,-0.0346035435795784,0.0292799212038517
17917973759375,2.3762452602386475,-8.682572364807129,4.243722438812256,0.01783413253724575,-0.03034464456140995,0.02129448764026165
17917974996550,2.3738510608673096,-8.763975143432617,4.224568843841553,0.0162370465695858,-0.033272635191679,0.02661811001598835
17917976233725,2.340332269668579,-8.723274230957031,4.247313976287842,0.0114457868039608,-0.0340711809694767,0.02874755859375
17917977470925,2.3511061668395996,-8.725667953491211,4.266467571258545,0.01650322787463665,-0.0354020856320858,0.023956298828125
17917978708100,2.317587375640869,-8.765172958374023,4.200626850128174,0.0157046839594841,-0.0362006276845932,0.0228915736079216
17917979945275,2.3044190406799316,-8.753201484680176,4.23893404006958,0.01224433071911335,-0.0354020856320858,0.02129448764026165
17917981182450,2.340332269668579,-8.736441612243652,4.24970817565918,0.010114881210029125,-0.0354020856320858,0.02315775491297245
17917982419612,2.343923568725586,-8.78312873840332,4.223371982574463,0.00984870083630085,-0.0322079136967659,0.0223592109978199
17917983656787,2.3092074394226074,-8.787917137145996,4.258087635040283,0.008783976547420025,-0.02981228195130825,0.0204959437251091
17917984893962,2.3295583724975586,-8.787917137145996,4.218583583831787,0.0138414166867733,-0.0306108258664608,0.0228915736079216
17917986131150,2.2888567447662354,-8.7484130859375,4.240131378173828,0.01357523538172245,-0.0351359061896801,0.0228915736079216
17917987368325,2.3020248413085938,-8.787917137145996,4.231751441955566,0.0063883461989462376,-0.0324740931391716,0.0173017717897892
17917988605525,2.2613234519958496,-8.78312873840332,4.270058631896973,0.00984870083630085,-0.0322079136967659,0.01650322787463665
17917989842675,2.3044190406799316,-8.786720275878906,4.252102375030518,0.00984870083630085,-0.0330064557492733,0.01836649514734745
17917991079862,2.29484224319458,-8.78193187713623,4.2509050369262695,0.005855984054505825,-0.02901373989880085,0.0196974016726017
17917992317037,2.3271641731262207,-8.771158218383789,4.198232650756836,0.008783976547420025,-0.033538818359375,0.0191650390625
17917993554212,2.3523032665252686,-8.755595207214355,4.226963043212891,0.008783976547420025,-0.0372653529047966,0.014373779296875
17917994791400,2.345120668411255,-8.761581420898438,4.15992546081543,0.008251613937318325,-0.0263519287109375,0.01597086526453495
17917996028562,2.296039342880249,-8.77953815460205,4.226963043212891,0.00452507846057415,-0.02741665206849575,0.013042873702943325
17917997265750,2.2828712463378906,-8.74721622467041,4.260481834411621,0.0029279920272529125,-0.0322079136967659,0.014906140975654125
17917998502925,2.2912509441375732,-8.71609115600586,4.260481834411621,0.005855984054505825,-0.0372653529047966,0.01889885775744915
17917999740100,2.317587375640869,-8.71609115600586,4.247313976287842,0.0002661811013240367,-0.0314093679189682,0.0167694091796875
17918000977275,2.29484224319458,-8.718485832214355,4.24970817565918,0.0007985432748682797,-0.02741665206849575,0.015438503585755825
17918002214450,2.3032219409942627,-8.729259490966797,4.258087635040283,0.0026618109550327063,-0.0306108258664608,0.01357523538172245
17918003451625,2.3056161403656006,-8.71369743347168,4.299986362457275,0.0042588976211845875,-0.0282151959836483,0.010647243820130825
17918004688825,2.2888567447662354,-8.71369743347168,4.273650169372559,0.0037265352439135313,-0.02981228195130825,0.01224433071911335
17918005925987,2.2900538444519043,-8.701725959777832,4.223371982574463,0.0037265352439135313,-0.0258195661008358,0.0119781494140625
17918007163162,2.248155355453491,-8.674192428588867,4.2293572425842285,0.0018632676219567657,-0.0311431884765625,0.015438503585755825
17918008400350,2.279279947280884,-8.668207168579102,4.2951979637146,0.0042588976211845875,-0.03034464456140995,0.01171196810901165
17918009637512,2.292448043823242,-8.65623664855957,4.244919776916504,0.005589802749454975,-0.02661811001598835,0.0173017717897892
17918010874700,2.2457611560821533,-8.649053573608398,4.2760443687438965,0.005057440605014563,-0.01943122036755085,0.0157046839594841
17918012111875,2.2433669567108154,-8.672995567321777,4.253299236297607,0.0037265352439135313,-0.0258195661008358,0.010381062515079975
17918013349050,2.293645143508911,-8.664615631103516,4.256890773773193,0.004791259765625,-0.02555338479578495,0.012776692397892475
17918014586212,2.2409727573394775,-8.674192428588867,4.268861770629883,0.010114881210029125,-0.02608574740588665,0.014906140975654125
17918015823412,2.2852654457092285,-8.665813446044922,4.235342979431152,0.0066545275039970875,-0.02901373989880085,0.0162370465695858
17918017060587,2.2649147510528564,-8.718485832214355,4.244919776916504,0.0015970865497365594,-0.023956298828125,0.01756795309484005
17918018297750,2.251746654510498,-8.71489429473877,4.242525577545166,0.0029279920272529125,-0.02422248013317585,0.01650322787463665
17918019534937,2.2577321529388428,-8.737639427185059,4.210203647613525,0.00452507846057415,-0.0268842913210392,0.0181003138422966
17918020772100,2.2397756576538086,-8.695740699768066,4.199429988861084,0.0037265352439135313,-0.02741665206849575,0.0173017717897892
17918022009287,2.3092074394226074,-8.723274230957031,4.277241230010986,0.004791259765625,-0.02129448764026165,0.0167694091796875
17918023246462,2.256535053253174,-8.7268648147583,4.266467571258545,0.006122165359556675,-0.0220930315554142,0.0186326764523983
17918024483612,2.274491548538208,-8.728062629699707,4.248510837554932,0.0114457868039608,-0.02262539230287075,0.015438503585755825
17918025720812,2.27209734916687,-8.711302757263184,4.2760443687438965,0.008517795242369175,-0.01836649514734745,0.014906140975654125
17918026957987,2.276885747909546,-8.737639427185059,4.265270233154297,0.01117960549890995,-0.0215606689453125,0.010647243820130825
17918028195175,2.275688648223877,-8.753201484680176,4.28322696685791,0.007453070487827063,-0.0223592109978199,0.01357523538172245
17918029432362,2.250549554824829,-8.720879554748535,4.255693435668945,0.007985432632267475,-0.023956298828125,0.0196974016726017
17918030669550,2.279279947280884,-8.695740699768066,4.243722438812256,0.010381062515079975,-0.0204959437251091,0.02182685025036335
17918031906712,2.276885747909546,-8.686163902282715,4.267664432525635,0.007453070487827063,-0.014906140975654125,0.01703559048473835
17918033143887,2.299630641937256,-8.699332237243652,4.278438568115234,0.008783976547420025,-0.00984870083630085,0.02182685025036335
17918034381050,2.2804770469665527,-8.678980827331543,4.267664432525635,0.008783976547420025,-0.0173017717897892,0.0196974016726017
17918035618225,2.3068132400512695,-8.65863037109375,4.284423828125,0.01117960549890995,-0.0191650390625,0.0196974016726017
17918036855412,2.2637176513671875,-8.671798706054688,4.258087635040283,0.012776692397892475,-0.01703559048473835,0.01783413253724575
17918038092587,2.3127989768981934,-8.669404029846191,4.277241230010986,0.0119781494140625,-0.0138414166867733,0.015438503585755825
17918039329762,2.293645143508911,-8.699332237243652,4.265270233154297,0.014906140975654125,-0.013042873702943325,0.014906140975654125
17918040566925,2.2852654457092285,-8.702922821044922,4.288015365600586,0.008251613937318325,-0.01410759799182415,0.015438503585755825
17918041804137,2.274491548538208,-8.69095230102539,4.299986362457275,0.00692070834338665,-0.013042873702943325,0.01171196810901165
17918043041300,2.296039342880249,-8.71489429473877,4.259284973144531,0.0077192517928779125,-0.01357523538172245,0.0114457868039608
17918044278475,2.274491548538208,-8.720879554748535,4.279635429382324,0.01117960549890995,-0.014373779296875,0.01756795309484005
17918045515650,2.2816741466522217,-8.677783966064453,4.265270233154297,0.01117960549890995,-0.013309055007994175,0.0196974016726017
17918046752825,2.270900249481201,-8.681375503540039,4.2724528312683105,0.01224433071911335,-0.010114881210029125,0.015438503585755825
17918047990000,2.2661118507385254,-8.696937561035156,4.23773717880249,0.015172322280704975,-0.010381062515079975,0.015438503585755825
17918049227187,2.24935245513916,-8.724471092224121,4.253299236297607,0.01703559048473835,-0.010381062515079975,0.013309055007994175
17918050464350,2.270900249481201,-8.700529098510742,4.2963948249816895,0.01224433071911335,-0.010647243820130825,0.014373779296875
17918051701550,2.2601263523101807,-8.71369743347168,4.270058631896973,0.013042873702943325,-0.01117960549890995,0.01756795309484005
17918052938725,2.300827741622925,-8.710105895996094,4.261679172515869,0.01171196810901165,-0.0090501569211483,0.02076212503015995
17918054175887,2.2900538444519043,-8.732851028442383,4.304774761199951,0.00984870083630085,-0.0071868896484375,0.01463996060192585
17918055413062,2.3080103397369385,-8.74960994720459,4.262876033782959,0.008517795242369175,-0.008517795242369175,0.0114457868039608
17918056650250,2.2625205516815186,-8.724471092224121,4.261679172515869,0.0138414166867733,-0.0037265352439135313,0.014906140975654125
17918057887412,2.2876596450805664,-8.7268648147583,4.322731018066406,0.012510511092841625,-0.0090501569211483,0.010381062515079975
17918059124587,2.2661118507385254,-8.74960994720459,4.274847030639648,0.008783976547420025,-0.00692070834338665,0.01783413253724575
17918060361775,2.24935245513916,-8.743624687194824,4.313154220581055,0.00984870083630085,-0.0039927163161337376,0.0173017717897892
17918061598950,2.2840683460235596,-8.7268648147583,4.3179426193237305,0.010913425125181675,-0.004791259765625,0.013042873702943325
17918062836137,2.278082847595215,-8.740033149719238,4.268861770629883,0.010114881210029125,-0.00452507846057415,0.0090501569211483
17918064073300,2.279279947280884,-8.757989883422852,4.304774761199951,0.0063883461989462376,-0.0053236219100654125,0.008783976547420025
17918065310475,2.2900538444519043,-8.7268648147583,4.301183223724365,0.0039927163161337376,-0.0063883461989462376,0.010381062515079975
17918066547662,2.2697031497955322,-8.695740699768066,4.292803764343262,0.0090501569211483,-0.0029279920272529125,0.010913425125181675
17918067784837,2.2613234519958496,-8.740033149719238,4.316745758056641,0.010381062515079975,-0.0042588976211845875,0.0090501569211483
17918069022025,2.278082847595215,-8.71369743347168,4.299986362457275,0.00931633822619915,-0.005589802749454975,0.0066545275039970875
17918070259212,2.2625205516815186,-8.746018409729004,4.298789024353027,0.010647243820130825,0.0015970865497365594,0.0042588976211845875
17918071496375,2.2900538444519043,-8.724471092224121,4.259284973144531,0.01171196810901165,0.0002661811013240367,0.010381062515079975
17918072733562,2.256535053253174,-8.763975143432617,4.28322696685791,0.008783976547420025,0.0005323622026480734,0.01117960549890995
17918073970750,2.3319525718688965,-8.753201484680176,4.298789024353027,0.00958251953125,-0.0005323622026480734,0.008783976547420025
17918075207900,2.293645143508911,-8.725667953491211,4.2509050369262695,0.00984870083630085,-0.0015970865497365594,0.010647243820130825
17918076445075,2.256535053253174,-8.757989883422852,4.24970817565918,0.0010647244052961469,-0.0039927163161337376,0.008783976547420025
17918077682262,2.2385785579681396,-8.740033149719238,4.274847030639648,0.00692070834338665,0.0013309054775163531,0.007985432632267475
17918078919450,2.3092074394226074,-8.746018409729004,4.327519416809082,0.005589802749454975,0.0015970865497365594,0.00958251953125
17918080156612,2.299630641937256,-8.763975143432617,4.309563159942627,0.0015970865497365594,-0.0007985432748682797,0.01171196810901165
17918081393775,2.2828712463378906,-8.746018409729004,4.309563159942627,-0.0013309054775163531,0.005855984054505825,0.006122165359556675
17918082630975,2.2469582557678223,-8.7699613571167,4.2724528312683105,0.0013309054775163531,0.00692070834338665,0.005855984054505825
17918083868137,2.233790159225464,-8.762778282165527,4.286818027496338,0.00452507846057415,0.0015970865497365594,0.0053236219100654125
17918085105312,2.2673089504241943,-8.738836288452148,4.277241230010986,0.0026618109550327063,0.005057440605014563,0.005589802749454975
17918086342487,2.2912509441375732,-8.761581420898438,4.264073371887207,-0.0002661811013240367,0.006122165359556675,0.0039927163161337376
17918087579675,2.2900538444519043,-8.760384559631348,4.265270233154297,0.0,0.004791259765625,0.0063883461989462376
17918088816850,2.2852654457092285,-8.742427825927734,4.23893404006958,0.0031941730994731188,0.008251613937318325,0.00452507846057415
17918090054050,2.2254104614257812,-8.77953815460205,4.289212226867676,-0.0010647244052961469,0.0053236219100654125,0.0029279920272529125
17918091291212,2.2864625453948975,-8.756793022155762,4.302380561828613,-0.0037265352439135313,0.008517795242369175,0.0039927163161337376
17918092528387,2.299630641937256,-8.75080680847168,4.270058631896973,-0.0023956298828125,0.007453070487827063,0.005855984054505825
17918093765562,2.275688648223877,-8.757989883422852,4.242525577545166,-0.0005323622026480734,0.0029279920272529125,0.0010647244052961469
17918095002737,2.3127989768981934,-8.735244750976562,4.240131378173828,-0.0002661811013240367,0.004791259765625,0.005855984054505825
17918096239925,2.2912509441375732,-8.719682693481445,4.292803764343262,-0.005057440605014563,0.013309055007994175,-0.0023956298828125
17918097477087,2.2912509441375732,-8.731653213500977,4.255693435668945,-0.0066545275039970875,0.0119781494140625,0.0002661811013240367
17918098714275,2.3116018772125244,-8.71369743347168,4.243722438812256,-0.0063883461989462376,0.0066545275039970875,0.0021294488105922937
17918099951462,2.252943754196167,-8.754398345947266,4.2078094482421875,-0.006122165359556675,0.006122165359556675,-0.0002661811013240367
17918101188637,2.293645143508911,-8.742427825927734,4.273650169372559,-0.0013309054775163531,0.0077192517928779125,0.0023956298828125
17918102425800,2.337938070297241,-8.741230010986328,4.270058631896973,-0.010647243820130825,0.01117960549890995,0.0005323622026480734
17918103662962,2.3104045391082764,-8.723274230957031,4.32871675491333,-0.010913425125181675,0.008783976547420025,0.0037265352439135313
17918104900162,2.292448043823242,-8.69095230102539,4.231751441955566,-0.008251613937318325,0.013042873702943325,0.0063883461989462376
17918106137325,2.300827741622925,-8.738836288452148,4.24970817565918,-0.0053236219100654125,0.00984870083630085,0.0015970865497365594
17918107374512,2.342726469039917,-8.7484130859375,4.264073371887207,-0.0090501569211483,0.0090501569211483,0.0018632676219567657
17918108611675,2.3163902759552,-8.705317497253418,4.260481834411621,-0.00984870083630085,0.010114881210029125,0.0031941730994731188
17918109848875,2.3116018772125244,-8.744821548461914,4.278438568115234,-0.0077192517928779125,0.01357523538172245,0.005589802749454975
17918111086050,2.278082847595215,-8.702922821044922,4.241328239440918,-0.0119781494140625,0.013309055007994175,-0.0005323622026480734
17918112323212,2.3271641731262207,-8.71489429473877,4.314351558685303,-0.00984870083630085,0.00931633822619915,0.0031941730994731188
17918113560387,2.337938070297241,-8.69334602355957,4.256890773773193,-0.00984870083630085,0.01117960549890995,0.006122165359556675
17918114797587,2.321178674697876,-8.710105895996094,4.262876033782959,-0.007453070487827063,0.010381062515079975,-0.0005323622026480734
17918116034750,2.2804770469665527,-8.729259490966797,4.260481834411621,-0.0026618109550327063,0.010913425125181675,0.0013309054775163531
17918117271937,2.3355438709259033,-8.695740699768066,4.259284973144531,-0.0015970865497365594,0.0119781494140625,0.0029279920272529125
17918118509100,2.322375774383545,-8.705317497253418,4.286818027496338,-0.0071868896484375,0.00958251953125,-0.0010647244052961469
17918119746300,2.3331496715545654,-8.694543838500977,4.280832767486572,-0.007453070487827063,0.010913425125181675,0.0053236219100654125
17918120983462,2.3546974658966064,-8.708909034729004,4.264073371887207,-0.0042588976211845875,0.010381062515079975,-0.0037265352439135313
17918122220625,2.366668462753296,-8.687360763549805,4.271255970001221,-0.008251613937318325,0.01463996060192585,-0.005589802749454975
17918123457812,2.3139960765838623,-8.681375503540039,4.274847030639648,-0.0077192517928779125,0.012776692397892475,0.0026618109550327063
17918124695012,2.3570916652679443,-8.678980827331543,4.285621166229248,-0.004791259765625,0.0114457868039608,0.004791259765625
17918125932200,2.3367409706115723,-8.6897554397583,4.279635429382324,-0.005855984054505825,0.01224433071911335,-0.0029279920272529125
17918127169375,2.3523032665252686,-8.664615631103516,4.256890773773193,-0.0053236219100654125,0.0114457868039608,-0.004791259765625
17918128406525,2.321178674697876,-8.711302757263184,4.291606426239014,-0.00931633822619915,0.008783976547420025,-0.0010647244052961469
17918129643700,2.3594858646392822,-8.682572364807129,4.2509050369262695,-0.0077192517928779125,0.010381062515079975,-0.0018632676219567657
17918130880875,2.3259670734405518,-8.688557624816895,4.247313976287842,-0.007453070487827063,0.01463996060192585,-0.005589802749454975
17918132118062,2.3511061668395996,-8.646659851074219,4.258087635040283,-0.00692070834338665,0.01463996060192585,-0.005057440605014563
17918133355237,2.337938070297241,-8.69095230102539,4.243722438812256,-0.007985432632267475,0.008517795242369175,0.0015970865497365594
17918134592412,2.317587375640869,-8.722076416015625,4.325125217437744,-0.005855984054505825,0.00692070834338665,0.0013309054775163531
17918135829600,2.3511061668395996,-8.663418769836426,4.290409564971924,-0.0066545275039970875,0.0077192517928779125,-0.0002661811013240367
17918137066775,2.341529369354248,-8.683769226074219,4.255693435668945,-0.005855984054505825,0.0138414166867733,-0.0013309054775163531
17918138303950,2.342726469039917,-8.686163902282715,4.241328239440918,-0.0021294488105922937,0.01171196810901165,-0.003460354171693325
17918139541125,2.3475148677825928,-8.710105895996094,4.284423828125,-0.005589802749454975,0.006122165359556675,-0.0018632676219567657
17918140778312,2.340332269668579,-8.710105895996094,4.267664432525635,-0.008783976547420025,0.004791259765625,-0.004791259765625
17918142015475,2.3511061668395996,-8.722076416015625,4.280832767486572,-0.008251613937318325,0.008251613937318325,-0.005589802749454975
17918143252662,2.33913516998291,-8.684967041015625,4.2329487800598145,-0.005057440605014563,0.0077192517928779125,-0.0021294488105922937
17918144489837,2.3319525718688965,-8.664615631103516,4.2724528312683105,-0.00452507846057415,0.005057440605014563,-0.0037265352439135313
17918145727025,2.3558945655822754,-8.694543838500977,4.274847030639648,-0.007453070487827063,0.00958251953125,-0.0023956298828125
17918146964187,2.363077163696289,-8.701725959777832,4.259284973144531,-0.0039927163161337376,0.007985432632267475,-0.00452507846057415
17918148201375,2.3702597618103027,-8.633491516113281,4.274847030639648,-0.003460354171693325,0.0029279920272529125,-0.006122165359556675
17918149438537,2.365471363067627,-8.69214916229248,4.28322696685791,-0.0090501569211483,0.0031941730994731188,-0.0026618109550327063
17918150675725,2.365471363067627,-8.71609115600586,4.258087635040283,-0.007453070487827063,0.0029279920272529125,-0.007985432632267475
17918151912912,2.3798365592956543,-8.696937561035156,4.248510837554932,-0.005057440605014563,0.007985432632267475,-0.0066545275039970875
17918153150075,2.3702597618103027,-8.722076416015625,4.240131378173828,-0.005589802749454975,0.008517795242369175,0.0
17918154387262,2.363077163696289,-8.71489429473877,4.24970817565918,-0.008517795242369175,0.0053236219100654125,-0.0013309054775163531
17918155624437,2.3594858646392822,-8.676587104797363,4.264073371887207,-0.0077192517928779125,0.0015970865497365594,-0.0063883461989462376
17918156861600,2.3774423599243164,-8.735244750976562,4.241328239440918,-0.005589802749454975,0.0013309054775163531,-0.006122165359556675
17918158098800,2.3594858646392822,-8.735244750976562,4.270058631896973,-0.010647243820130825,0.00692070834338665,-0.00692070834338665
17918159335962,2.383427858352661,-8.710105895996094,4.278438568115234,-0.0071868896484375,0.0077192517928779125,-0.005855984054505825
17918160573150,2.3918075561523438,-8.686163902282715,4.264073371887207,-0.006122165359556675,0.0071868896484375,-0.005057440605014563
17918161810325,2.3714568614959717,-8.7268648147583,4.282029628753662,-0.00692070834338665,0.005855984054505825,-0.006122165359556675
17918163047512,2.387019157409668,-8.704120635986328,4.28322696685791,-0.00984870083630085,0.0053236219100654125,-0.0066545275039970875
17918164284675,2.369062662124634,-8.670601844787598,4.265270233154297,-0.0157046839594841,0.008251613937318325,-0.00692070834338665
17918165521875,2.3714568614959717,-8.707711219787598,4.259284973144531,-0.01171196810901165,0.003460354171693325,-0.008517795242369175
17918166759025,2.403778553009033,-8.683769226074219,4.2760443687438965,-0.0090501569211483,0.0013309054775163531,-0.004791259765625
17918167996212,2.346317768096924,-8.683769226074219,4.274847030639648,-0.0066545275039970875,0.0031941730994731188,-0.0037265352439135313
17918169233387,2.342726469039917,-8.738836288452148,4.280832767486572,-0.007453070487827063,0.0026618109550327063,-0.0077192517928779125
17918170470562,2.3487119674682617,-8.756793022155762,4.243722438812256,-0.00984870083630085,0.0066545275039970875,-0.0018632676219567657
17918171707737,2.387019157409668,-8.720879554748535,4.2509050369262695,-0.008517795242369175,0.0007985432748682797,-0.008251613937318325
17918172944925,2.323572874069214,-8.722076416015625,4.28322696685791,-0.007985432632267475,0.0015970865497365594,-0.0063883461989462376
17918174182087,2.3594858646392822,-8.738836288452148,4.261679172515869,-0.01224433071911335,0.0005323622026480734,-0.0042588976211845875
17918175419287,2.3367409706115723,-8.708909034729004,4.2293572425842285,-0.012510511092841625,0.0037265352439135313,-0.0031941730994731188
17918176656450,2.3535003662109375,-8.698134422302246,4.247313976287842,-0.005855984054505825,0.0007985432748682797,-0.00931633822619915
17918177893625,2.403778553009033,-8.734047889709473,4.285621166229248,-0.01224433071911335,-0.0007985432748682797,-0.005589802749454975
17918179130800,2.3714568614959717,-8.746018409729004,4.286818027496338,-0.00931633822619915,-0.0007985432748682797,-0.0021294488105922937
17918180367975,2.3977930545806885,-8.768763542175293,4.344278812408447,-0.0090501569211483,-0.003460354171693325,-0.0071868896484375
17918181605162,2.3068132400512695,-8.754398345947266,4.240131378173828,-0.0119781494140625,0.00452507846057415,-0.008251613937318325
17918182842337,2.337938070297241,-8.78073501586914,4.2724528312683105,-0.010647243820130825,0.0018632676219567657,-0.006122165359556675
17918184079512,2.389413356781006,-8.760384559631348,4.262876033782959,-0.00984870083630085,-0.0021294488105922937,-0.0077192517928779125
17918185316700,2.366668462753296,-8.774749755859375,4.242525577545166,-0.014373779296875,-0.0021294488105922937,-0.0031941730994731188
17918186553862,2.3750481605529785,-8.74721622467041,4.266467571258545,-0.01117960549890995,0.0007985432748682797,-0.0029279920272529125
17918187791037,2.340332269668579,-8.765172958374023,4.2509050369262695,-0.0090501569211483,0.0002661811013240367,-0.0063883461989462376
17918189028225,2.3127989768981934,-8.772355079650879,4.218583583831787,-0.012776692397892475,-0.0002661811013240367,-0.00692070834338665
17918190265412,2.3068132400512695,-8.767566680908203,4.28322696685791,-0.015172322280704975,-0.0013309054775163531,-0.0023956298828125
17918191502562,2.364274263381958,-8.77953815460205,4.267664432525635,-0.014906140975654125,-0.0007985432748682797,0.0029279920272529125
17918192739762,2.3989901542663574,-8.707711219787598,4.23773717880249,-0.0090501569211483,-0.0021294488105922937,0.0026618109550327063
17918193976925,2.342726469039917,-8.742427825927734,4.2724528312683105,-0.012510511092841625,0.0029279920272529125,-0.0002661811013240367
17918195214112,2.317587375640869,-8.734047889709473,4.246116638183594,-0.0167694091796875,0.0018632676219567657,0.0002661811013240367
17918196451287,2.3355438709259033,-8.754398345947266,4.268861770629883,-0.01756795309484005,0.0018632676219567657,-0.0029279920272529125
17918197688475,2.3594858646392822,-8.705317497253418,4.210203647613525,-0.0167694091796875,0.005057440605014563,0.0005323622026480734
17918198925650,2.3750481605529785,-8.7268648147583,4.236539840698242,-0.0162370465695858,0.0018632676219567657,-0.0013309054775163531
17918200162825,2.365471363067627,-8.702922821044922,4.282029628753662,-0.01703559048473835,-0.0002661811013240367,-0.0007985432748682797
17918201400000,2.346317768096924,-8.741230010986328,4.236539840698242,-0.0138414166867733,0.0066545275039970875,0.0018632676219567657
17918202637175,2.3714568614959717,-8.7268648147583,4.225766181945801,-0.01463996060192585,0.008251613937318325,0.0018632676219567657
17918203874350,2.3283612728118896,-8.71489429473877,4.234145641326904,-0.012776692397892475,-0.0002661811013240367,0.00931633822619915
17918205111537,2.3283612728118896,-8.741230010986328,4.213795185089111,-0.0157046839594841,-0.0007985432748682797,0.0029279920272529125
17918206348700,2.3127989768981934,-8.741230010986328,4.243722438812256,-0.0157046839594841,0.003460354171693325,0.003460354171693325
17918207585887,2.3475148677825928,-8.707711219787598,4.23893404006958,-0.015438503585755825,0.0021294488105922937,0.0007985432748682797
17918208823050,2.317587375640869,-8.71369743347168,4.2293572425842285,-0.0173017717897892,0.0018632676219567657,0.006122165359556675
17918210060250,2.3535003662109375,-8.69214916229248,4.258087635040283,-0.01171196810901165,0.0021294488105922937,0.005589802749454975
17918211297412,2.3283612728118896,-8.706514358520508,4.20541524887085,-0.015172322280704975,-0.0002661811013240367,0.005589802749454975
17918212534600,2.321178674697876,-8.71369743347168,4.255693435668945,-0.015172322280704975,0.0005323622026480734,-0.0010647244052961469
17918213771762,2.3307554721832275,-8.722076416015625,4.2293572425842285,-0.015172322280704975,-0.0007985432748682797,-0.0005323622026480734
17918215008950,2.3582887649536133,-8.704120635986328,4.244919776916504,-0.0119781494140625,0.0031941730994731188,0.0031941730994731188
17918216246125,2.3367409706115723,-8.69334602355957,4.224568843841553,-0.01357523538172245,0.0037265352439135313,0.005855984054505825
17918217483312,2.324769973754883,-8.710105895996094,4.217386245727539,-0.0181003138422966,0.0029279920272529125,0.0013309054775163531
17918218720475,2.3056161403656006,-8.722076416015625,4.23773717880249,-0.0162370465695858,0.0007985432748682797,-0.0005323622026480734
17918219957662,2.3582887649536133,-8.708909034729004,4.220977783203125,-0.014906140975654125,0.005057440605014563,0.0018632676219567657
17918221194825,2.321178674697876,-8.699332237243652,4.226963043212891,-0.0167694091796875,0.008517795242369175,0.004791259765625
17918222432025,2.3104045391082764,-8.683769226074219,4.2329487800598145,-0.0186326764523983,0.006122165359556675,0.0026618109550327063
17918223669212,2.341529369354248,-8.723274230957031,4.214992046356201,-0.0138414166867733,0.0029279920272529125,0.0005323622026480734
17918224906350,2.3774423599243164,-8.699332237243652,4.225766181945801,-0.01410759799182415,0.005855984054505825,0.0018632676219567657
17918226143537,2.3546974658966064,-8.694543838500977,4.217386245727539,-0.01756795309484005,0.0071868896484375,0.0005323622026480734
17918227380725,2.324769973754883,-8.708909034729004,4.228160381317139,-0.01703559048473835,0.0007985432748682797,-0.0010647244052961469
17918228617875,2.3163902759552,-8.69334602355957,4.234145641326904,-0.015438503585755825,0.0026618109550327063,0.0002661811013240367
17918229855087,2.3283612728118896,-8.706514358520508,4.179079055786133,-0.01703559048473835,0.004791259765625,-0.0026618109550327063
17918231092262,2.3259670734405518,-8.686163902282715,4.175487995147705,-0.014373779296875,0.0042588976211845875,0.0063883461989462376
17918232329425,2.3367409706115723,-8.681375503540039,4.247313976287842,-0.014373779296875,0.0039927163161337376,0.0031941730994731188
17918233566625,2.3104045391082764,-8.69095230102539,4.20421838760376,-0.0181003138422966,0.00958251953125,0.0013309054775163531
17918234803787,2.3487119674682617,-8.682572364807129,4.211400985717773,-0.02076212503015995,0.0119781494140625,-0.0018632676219567657
17918236040962,2.3487119674682617,-8.678980827331543,4.216189384460449,-0.01410759799182415,0.006122165359556675,0.0018632676219567657
17918237278137,2.340332269668579,-8.677783966064453,4.213795185089111,-0.01171196810901165,0.0071868896484375,0.0071868896484375
17918238515325,2.3355438709259033,-8.65863037109375,4.2090067863464355,-0.010913425125181675,0.0053236219100654125,0.0042588976211845875
17918239752500,2.3511061668395996,-8.62630844116211,4.23893404006958,-0.010381062515079975,0.010381062515079975,-0.005057440605014563
17918240989700,2.3116018772125244,-8.643068313598633,4.194641590118408,-0.014373779296875,0.00931633822619915,-0.0029279920272529125
17918242226837,2.3283612728118896,-8.62630844116211,4.213795185089111,-0.0138414166867733,0.00958251953125,-0.0021294488105922937
17918243464025,2.321178674697876,-8.681375503540039,4.252102375030518,-0.012776692397892475,0.00958251953125,0.005855984054505825
17918244701212,2.3271641731262207,-8.593987464904785,4.222174644470215,-0.010381062515079975,0.00931633822619915,0.00958251953125
17918245938400,2.3044190406799316,-8.65982723236084,4.20421838760376,-0.01597086526453495,0.01117960549890995,0.0053236219100654125
17918247175562,2.3558945655822754,-8.664615631103516,4.177882194519043,-0.013042873702943325,0.005855984054505825,0.0023956298828125
17918248412750,2.383427858352661,-8.682572364807129,4.194641590118408,-0.01171196810901165,0.00452507846057415,0.0010647244052961469
17918249649925,2.3523032665252686,-8.661025047302246,4.195838451385498,-0.0114457868039608,0.0090501569211483,-0.0015970865497365594
17918250887125,2.3032219409942627,-8.646659851074219,4.201824188232422,-0.010114881210029125,0.0119781494140625,-0.0015970865497365594
17918252124262,2.346317768096924,-8.639476776123047,4.211400985717773,-0.00692070834338665,0.010647243820130825,0.0005323622026480734
17918253361462,2.3331496715545654,-8.639476776123047,4.181473255157471,-0.0077192517928779125,0.0090501569211483,0.0005323622026480734
17918254598625,2.3487119674682617,-8.650250434875488,4.197035789489746,-0.008783976547420025,0.012510511092841625,0.0053236219100654125
17918255835812,2.3307554721832275,-8.640673637390137,4.189853191375732,-0.0066545275039970875,0.0077192517928779125,0.0066545275039970875
17918257072962,2.3523032665252686,-8.663418769836426,4.231751441955566,-0.005057440605014563,0.0119781494140625,0.003460354171693325
17918258310150,2.3487119674682617,-8.647856712341309,4.199429988861084,-0.0026618109550327063,0.01224433071911335,0.0015970865497365594
17918259547325,2.343923568725586,-8.637083053588867,4.213795185089111,-0.007453070487827063,0.012776692397892475,0.0026618109550327063
17918260784512,2.337938070297241,-8.684967041015625,4.179079055786133,-0.0053236219100654125,0.010913425125181675,0.0015970865497365594
17918262021687,2.360682964324951,-8.631096839904785,4.194641590118408,-0.0026618109550327063,0.01117960549890995,0.0021294488105922937
17918263258875,2.3151931762695312,-8.65623664855957,4.217386245727539,-0.00452507846057415,0.00958251953125,0.0002661811013240367
17918264496062,2.3582887649536133,-8.635885238647461,4.230554580688477,-0.0026618109550327063,0.010114881210029125,-0.0015970865497365594
17918265733225,2.3714568614959717,-8.633491516113281,4.211400985717773,-0.0007985432748682797,0.00958251953125,-0.0037265352439135313
17918266970387,2.3487119674682617,-8.669404029846191,4.1862616539001465,-0.0015970865497365594,0.013042873702943325,-0.0015970865497365594
17918268207587,2.323572874069214,-8.675390243530273,4.226963043212891,-0.0026618109550327063,0.013042873702943325,0.0037265352439135313
17918269444750,2.337938070297241,-8.670601844787598,4.150348663330078,-0.0002661811013240367,0.0090501569211483,0.0
17918270681925,2.343923568725586,-8.649053573608398,4.195838451385498,-0.0005323622026480734,0.00984870083630085,-0.0002661811013240367
17918271919125,2.3511061668395996,-8.662221908569336,4.156334400177002,-0.0021294488105922937,0.01171196810901165,-0.0010647244052961469
17918273156287,2.3032219409942627,-8.69095230102539,4.1862616539001465,-0.003460354171693325,0.0077192517928779125,0.004791259765625
17918274393475,2.369062662124634,-8.698134422302246,4.177882194519043,-0.0007985432748682797,0.00984870083630085,0.004791259765625
17918275630662,2.3319525718688965,-8.681375503540039,4.19344425201416,-0.0002661811013240367,0.010913425125181675,-0.0002661811013240367
17918276867825,2.324769973754883,-8.702922821044922,4.223371982574463,-0.0026618109550327063,0.0090501569211483,-0.0031941730994731188
17918278104987,2.360682964324951,-8.677783966064453,4.182670593261719,-0.003460354171693325,0.01117960549890995,0.0010647244052961469
17918279342175,2.3798365592956543,-8.71609115600586,4.162319660186768,0.0021294488105922937,0.01410759799182415,0.0007985432748682797
17918280579350,2.3798365592956543,-8.7268648147583,4.182670593261719,-0.0005323622026480734,0.012776692397892475,0.0018632676219567657
17918281816550,2.3092074394226074,-8.681375503540039,4.19224739074707,0.0021294488105922937,0.013042873702943325,0.0037265352439135313
17918283053725,2.369062662124634,-8.694543838500977,4.198232650756836,0.0015970865497365594,0.01117960549890995,0.0023956298828125
17918284290887,2.389413356781006,-8.701725959777832,4.211400985717773,0.0018632676219567657,0.010381062515079975,0.0023956298828125
17918285528062,2.3546974658966064,-8.669404029846191,4.168305397033691,0.0023956298828125,0.010114881210029125,0.0021294488105922937
17918286765237,2.363077163696289,-8.684967041015625,4.1874589920043945,0.0013309054775163531,0.00958251953125,-0.0010647244052961469
17918288002425,2.412158250808716,-8.640673637390137,4.173093795776367,0.0026618109550327063,0.01703559048473835,-0.0002661811013240367
17918289239600,2.360682964324951,-8.669404029846191,4.20421838760376,-0.004791259765625,0.01650322787463665,0.0042588976211845875
17918290476787,2.3535003662109375,-8.662221908569336,4.167108058929443,-0.0013309054775163531,0.014373779296875,0.0015970865497365594
17918291713962,2.36188006401062,-8.670601844787598,4.240131378173828,0.0018632676219567657,0.010381062515079975,-0.004791259765625
17918292951112,2.3319525718688965,-8.668207168579102,4.189853191375732,0.0021294488105922937,0.005589802749454975,0.0005323622026480734
17918294188325,2.3092074394226074,-8.674192428588867,4.2090067863464355,0.00931633822619915,0.008251613937318325,0.0037265352439135313
17918295425500,2.3942017555236816,-8.671798706054688,4.1647138595581055,0.003460354171693325,0.010647243820130825,-0.0053236219100654125
17918296662675,2.3535003662109375,-8.69095230102539,4.183867454528809,0.0007985432748682797,0.0138414166867733,-0.0013309054775163531
17918297899837,2.3163902759552,-8.653841972351074,4.226963043212891,0.007985432632267475,0.01117960549890995,-0.0015970865497365594
17918299137025,2.3762452602386475,-8.62511157989502,4.211400985717773,0.004791259765625,0.005855984054505825,0.0018632676219567657
17918300374212,2.3582887649536133,-8.615534782409668,4.197035789489746,0.0018632676219567657,0.01224433071911335,0.0013309054775163531
17918301611375,2.3558945655822754,-8.644265174865723,4.167108058929443,0.0005323622026480734,0.01117960549890995,0.0010647244052961469
17918302848550,2.3798365592956543,-8.686163902282715,4.169502258300781,0.0013309054775163531,0.0090501569211483,-0.0010647244052961469
17918304085750,2.365471363067627,-8.638279914855957,4.224568843841553,0.00931633822619915,0.010114881210029125,-0.0023956298828125
17918305322912,2.342726469039917,-8.674192428588867,4.258087635040283,0.00931633822619915,0.004791259765625,0.0002661811013240367
17918306560087,2.364274263381958,-8.661025047302246,4.220977783203125,0.00958251953125,0.010114881210029125,-0.0013309054775163531
17918307797262,2.340332269668579,-8.629899978637695,4.223371982574463,0.008517795242369175,0.01224433071911335,0.0005323622026480734
17918309034450,2.3499090671539307,-8.627506256103516,4.242525577545166,0.005855984054505825,0.01117960549890995,-0.0031941730994731188
17918310271612,2.388216257095337,-8.702922821044922,4.20421838760376,0.005589802749454975,0.008783976547420025,0.0023956298828125
17918311508800,2.369062662124634,-8.69214916229248,4.20421838760376,0.01410759799182415,0.007453070487827063,0.0029279920272529125
17918312745987,2.4145524501800537,-8.676587104797363,4.167108058929443,0.01117960549890995,0.007985432632267475,-0.0015970865497365594
17918313983162,2.389413356781006,-8.665813446044922,4.173093795776367,0.010913425125181675,0.007453070487827063,-0.0007985432748682797
17918315220325,2.40736985206604,-8.69334602355957,4.175487995147705,0.010647243820130825,0.0090501569211483,-0.0053236219100654125
17918316457500,2.3750481605529785,-8.671798706054688,4.195838451385498,0.0138414166867733,0.008517795242369175,-0.0015970865497365594
17918317694675,2.3918075561523438,-8.669404029846191,4.228160381317139,0.01463996060192585,0.0053236219100654125,0.0013309054775163531
17918318931850,2.390610456466675,-8.645462036132812,4.2078094482421875,0.0071868896484375,0.0053236219100654125,0.0
17918320169025,2.3762452602386475,-8.662221908569336,4.220977783203125,0.01224433071911335,0.005855984054505825,0.0015970865497365594
17918321406225,2.3762452602386475,-8.684967041015625,4.2293572425842285,0.0138414166867733,0.0013309054775163531,-0.0042588976211845875
17918322643400,2.409764051437378,-8.694543838500977,4.201824188232422,0.015438503585755825,0.0026618109550327063,-0.008251613937318325
17918323880587,2.4372973442077637,-8.665813446044922,4.222174644470215,0.01117960549890995,0.0042588976211845875,-0.0039927163161337376
17918325117762,2.4025814533233643,-8.655038833618164,4.199429988861084,0.01703559048473835,-0.0010647244052961469,-0.003460354171693325
17918326354937,2.4229321479797363,-8.633491516113281,4.1874589920043945,0.01889885775744915,-0.003460354171693325,0.0031941730994731188
17918327592087,2.363077163696289,-8.646659851074219,4.177882194519043,0.012776692397892475,0.0042588976211845875,-0.0039927163161337376
17918328829300,2.3774423599243164,-8.627506256103516,4.226963043212891,0.01410759799182415,0.0029279920272529125,-0.0023956298828125
17918330066462,2.3810336589813232,-8.668207168579102,4.198232650756836,0.01597086526453495,0.0023956298828125,-0.0042588976211845875
17918331303637,2.3977930545806885,-8.720879554748535,4.15992546081543,0.01836649514734745,0.0026618109550327063,-0.005057440605014563
17918332540812,2.4145524501800537,-8.708909034729004,4.211400985717773,0.01836649514734745,-0.0042588976211845875,-0.00452507846057415
17918333778000,2.3714568614959717,-8.65863037109375,4.1874589920043945,0.01943122036755085,-0.005057440605014563,-0.0021294488105922937
17918335015162,2.4001872539520264,-8.669404029846191,4.219780445098877,0.01357523538172245,-0.0018632676219567657,-0.004791259765625
17918336252362,2.412158250808716,-8.724471092224121,4.176684856414795,0.015172322280704975,0.0021294488105922937,-0.0077192517928779125
17918337489550,2.3762452602386475,-8.701725959777832,4.129997730255127,0.0167694091796875,-0.0018632676219567657,-0.008783976547420025
17918338726700,2.3750481605529785,-8.761581420898438,4.14795446395874,0.01650322787463665,-0.003460354171693325,-0.003460354171693325
17918339963887,2.3546974658966064,-8.734047889709473,4.19224739074707,0.015172322280704975,0.0002661811013240367,-0.0026618109550327063
17918341201062,2.3702597618103027,-8.734047889709473,4.188655853271484,0.01463996060192585,-0.0029279920272529125,-0.00452507846057415
17918342438237,2.3319525718688965,-8.71609115600586,4.170699596405029,0.014906140975654125,-0.0021294488105922937,0.0007985432748682797
17918343675412,2.367865562438965,-8.728062629699707,4.198232650756836,0.013042873702943325,-0.0007985432748682797,0.0
17918344912600,2.3918075561523438,-8.718485832214355,4.179079055786133,0.013042873702943325,0.0013309054775163531,-0.0031941730994731188
17918346149762,2.403778553009033,-8.78193187713623,4.19224739074707,0.013309055007994175,0.0007985432748682797,-0.0007985432748682797
17918347386950,2.410961151123047,-8.740033149719238,4.189853191375732,0.01224433071911335,-0.005057440605014563,-0.0007985432748682797
17918348624137,2.38462495803833,-8.754398345947266,4.212597846984863,0.015172322280704975,-0.004791259765625,-0.0039927163161337376
17918349861300,2.366668462753296,-8.732851028442383,4.199429988861084,0.01171196810901165,-0.008517795242369175,-0.0002661811013240367
17918351098487,2.3750481605529785,-8.731653213500977,4.214992046356201,0.008251613937318325,-0.006122165359556675,-0.0023956298828125
17918352335675,2.3738510608673096,-8.743624687194824,4.267664432525635,0.010114881210029125,-0.005057440605014563,-0.0015970865497365594
17918353572825,2.3535003662109375,-8.74721622467041,4.181473255157471,0.0138414166867733,-0.003460354171693325,-0.0013309054775163531
17918354810012,2.366668462753296,-8.736441612243652,4.20541524887085,0.015172322280704975,-0.005589802749454975,-0.0021294488105922937
17918356047200,2.3750481605529785,-8.74721622467041,4.2293572425842285,0.012776692397892475,-0.008517795242369175,0.0031941730994731188
17918357284375,2.3953988552093506,-8.742427825927734,4.225766181945801,0.013042873702943325,-0.0053236219100654125,-0.0015970865497365594
17918358521562,2.38462495803833,-8.759186744689941,4.223371982574463,0.0114457868039608,-0.0053236219100654125,0.0015970865497365594
17918359758725,2.3535003662109375,-8.74960994720459,4.278438568115234,0.0114457868039608,-0.008251613937318325,0.0021294488105922937
17918360995900,2.3750481605529785,-8.766369819641113,4.218583583831787,0.013309055007994175,-0.0066545275039970875,0.0029279920272529125
17918362233087,2.3738510608673096,-8.754398345947266,4.235342979431152,0.015172322280704975,-0.0071868896484375,0.0042588976211845875
17918363470262,2.3343467712402344,-8.752004623413086,4.177882194519043,0.012510511092841625,-0.010913425125181675,0.0029279920272529125
17918364707437,2.3786394596099854,-8.744821548461914,4.206612586975098,0.01410759799182415,-0.008251613937318325,0.0066545275039970875
17918365944612,2.360682964324951,-8.71489429473877,4.252102375030518,0.0077192517928779125,-0.0007985432748682797,0.0053236219100654125
17918367181800,2.3762452602386475,-8.744821548461914,4.248510837554932,0.0090501569211483,-0.007453070487827063,0.008251613937318325
17918368418975,2.3977930545806885,-8.761581420898438,4.224568843841553,0.007985432632267475,-0.00931633822619915,0.010114881210029125
17918369656175,2.387019157409668,-8.71369743347168,4.216189384460449,0.008783976547420025,-0.006122165359556675,0.00984870083630085
17918370893325,2.3977930545806885,-8.753201484680176,4.231751441955566,0.008251613937318325,-0.004791259765625,0.005589802749454975
17918372130512,2.345120668411255,-8.712499618530273,4.2329487800598145,0.0090501569211483,-0.008517795242369175,0.00958251953125
17918373367700,2.365471363067627,-8.71728801727295,4.195838451385498,0.010913425125181675,-0.008783976547420025,0.01463996060192585
17918374604850,2.38462495803833,-8.725667953491211,4.222174644470215,0.00692070834338665,-0.0090501569211483,0.004791259765625
17918375842062,2.409764051437378,-8.752004623413086,4.200626850128174,0.0066545275039970875,-0.01357523538172245,0.004791259765625
17918377079225,2.403778553009033,-8.738836288452148,4.216189384460449,0.010647243820130825,-0.00984870083630085,0.012776692397892475
17918378316412,2.4001872539520264,-8.735244750976562,4.23773717880249,0.010647243820130825,-0.008517795242369175,0.00984870083630085
17918379553575,2.4133553504943848,-8.71609115600586,4.212597846984863,0.0066545275039970875,-0.0119781494140625,0.015172322280704975
17918380790762,2.426523447036743,-8.730456352233887,4.1874589920043945,0.008517795242369175,-0.013309055007994175,0.015438503585755825
17918382027937,2.4217350482940674,-8.741230010986328,4.169502258300781,0.008783976547420025,-0.0162370465695858,0.010913425125181675
17918383265100,2.3930046558380127,-8.7484130859375,4.191050052642822,0.010647243820130825,-0.010913425125181675,0.01224433071911335
17918384502300,2.383427858352661,-8.676587104797363,4.23773717880249,0.008517795242369175,-0.014373779296875,0.010114881210029125
17918385739475,2.3918075561523438,-8.711302757263184,4.2544965744018555,0.010913425125181675,-0.01703559048473835,0.008783976547420025
17918386976637,2.3702597618103027,-8.744821548461914,4.224568843841553,0.0119781494140625,-0.015438503585755825,0.010913425125181675
17918388213812,2.342726469039917,-8.729259490966797,4.217386245727539,0.01410759799182415,-0.014906140975654125,0.00984870083630085
17918389451000,2.3750481605529785,-8.746018409729004,4.242525577545166,0.010381062515079975,-0.012510511092841625,0.005855984054505825
17918390688187,2.343923568725586,-8.729259490966797,4.23893404006958,0.00692070834338665,-0.013042873702943325,0.0042588976211845875
17918391925350,2.360682964324951,-8.708909034729004,4.213795185089111,0.003460354171693325,-0.014373779296875,0.0066545275039970875
17918393162537,2.3930046558380127,-8.698134422302246,4.243722438812256,0.010381062515079975,-0.0173017717897892,0.010381062515079975
17918394399700,2.3475148677825928,-8.710105895996094,4.217386245727539,0.012776692397892475,-0.0157046839594841,0.007985432632267475
17918395636875,2.3762452602386475,-8.729259490966797,4.252102375030518,0.008517795242369175,-0.014373779296875,-0.0015970865497365594
17918396874062,2.388216257095337,-8.710105895996094,4.268861770629883,0.010647243820130825,-0.0167694091796875,0.0015970865497365594
17918398111237,2.382230758666992,-8.704120635986328,4.258087635040283,0.0090501569211483,-0.0157046839594841,0.0042588976211845875
17918399348437,2.3594858646392822,-8.734047889709473,4.264073371887207,0.0063883461989462376,-0.012776692397892475,0.0053236219100654125
17918400585600,2.3750481605529785,-8.725667953491211,4.268861770629883,0.0066545275039970875,-0.01783413253724575,0.0023956298828125
17918401822800,2.3582887649536133,-8.705317497253418,4.252102375030518,0.0071868896484375,-0.02022976242005825,0.0063883461989462376
17918403059950,2.4001872539520264,-8.704120635986328,4.235342979431152,0.00692070834338665,-0.01597086526453495,0.005589802749454975
17918404297137,2.3367409706115723,-8.734047889709473,4.2509050369262695,0.008517795242369175,-0.01597086526453495,0.0021294488105922937
17918405534312,2.3714568614959717,-8.69095230102539,4.252102375030518,0.013042873702943325,-0.0204959437251091,-0.0010647244052961469
17918406771487,2.3702597618103027,-8.700529098510742,4.252102375030518,0.01224433071911335,-0.01463996060192585,0.0021294488105922937
17918408008687,2.365471363067627,-8.671798706054688,4.290409564971924,0.008783976547420025,-0.010114881210029125,-0.0002661811013240367
17918409245850,2.389413356781006,-8.655038833618164,4.225766181945801,0.010114881210029125,-0.01463996060192585,-0.0026618109550327063
17918410483025,2.408566951751709,-8.631096839904785,4.236539840698242,0.012776692397892475,-0.0138414166867733,-0.0039927163161337376
17918411720200,2.3977930545806885,-8.638279914855957,4.280832767486572,0.012510511092841625,-0.01463996060192585,-0.007985432632267475
17918412957375,2.3499090671539307,-8.700529098510742,4.253299236297607,0.010647243820130825,-0.01703559048473835,-0.0039927163161337376
17918414194550,2.3259670734405518,-8.661025047302246,4.198232650756836,0.014906140975654125,-0.0157046839594841,-0.0002661811013240367
17918415431737,2.3810336589813232,-8.638279914855957,4.255693435668945,0.0138414166867733,-0.013309055007994175,-0.0023956298828125
17918416668912,2.363077163696289,-8.677783966064453,4.243722438812256,0.0119781494140625,-0.01597086526453495,-0.0066545275039970875
17918417906087,2.382230758666992,-8.655038833618164,4.230554580688477,0.01836649514734745,-0.01996358297765255,-0.0037265352439135313
17918419143262,2.389413356781006,-8.62630844116211,4.247313976287842,0.0167694091796875,-0.0167694091796875,0.0015970865497365594
17918420380437,2.3738510608673096,-8.638279914855957,4.23893404006958,0.015438503585755825,-0.01171196810901165,0.0007985432748682797
17918421617625,2.4025814533233643,-8.634688377380371,4.286818027496338,0.01650322787463665,-0.01171196810901165,-0.0063883461989462376
17918422854812,2.410961151123047,-8.647856712341309,4.2293572425842285,0.015438503585755825,-0.01357523538172245,-0.0002661811013240367
17918424091975,2.3810336589813232,-8.649053573608398,4.243722438812256,0.01996358297765255,-0.0114457868039608,-0.0005323622026480734
17918425329150,2.365471363067627,-8.678980827331543,4.266467571258545,0.0223592109978199,-0.0173017717897892,0.0005323622026480734
17918426566350,2.3714568614959717,-8.641871452331543,4.259284973144531,0.02262539230287075,-0.014373779296875,-0.0007985432748682797
17918427803512,2.383427858352661,-8.62630844116211,4.308365821838379,0.01996358297765255,-0.0090501569211483,0.0018632676219567657
17918429040700,2.3487119674682617,-8.661025047302246,4.2078094482421875,0.0271504707634449,-0.01224433071911335,0.0
17918430277850,2.3738510608673096,-8.631096839904785,4.241328239440918,0.02502102218568325,-0.010647243820130825,0.0018632676219567657
17918431515050,2.383427858352661,-8.645462036132812,4.2509050369262695,0.0258195661008358,-0.01597086526453495,0.0007985432748682797
17918432752225,2.3977930545806885,-8.677783966064453,4.246116638183594,0.0263519287109375,-0.012510511092841625,0.0031941730994731188
17918433989412,2.3977930545806885,-8.682572364807129,4.260481834411621,0.0220930315554142,-0.015438503585755825,0.005057440605014563
17918435226587,2.4229321479797363,-8.681375503540039,4.284423828125,0.0282151959836483,-0.0167694091796875,0.004791259765625
17918436463775,2.4001872539520264,-8.663418769836426,4.23773717880249,0.0338049978017807,-0.0119781494140625,0.0029279920272529125
17918437700962,2.387019157409668,-8.678980827331543,4.28322696685791,0.02901373989880085,-0.0138414166867733,0.0029279920272529125
17918438938125,2.408566951751709,-8.674192428588867,4.273650169372559,0.02741665206849575,-0.013309055007994175,0.0031941730994731188
17918440175325,2.403778553009033,-8.670601844787598,4.279635429382324,0.0327402763068676,-0.01224433071911335,0.0013309054775163531
17918441412487,2.4013843536376953,-8.640673637390137,4.234145641326904,0.0247548408806324,-0.00692070834338665,-0.0015970865497365594
17918442649650,2.3810336589813232,-8.641871452331543,4.289212226867676,0.02848137728869915,-0.014906140975654125,0.005589802749454975
17918443886837,2.3953988552093506,-8.686163902282715,4.261679172515869,0.033272635191679,-0.01357523538172245,0.005057440605014563
