timestamp_ns,accel_x,accel_y,accel_z,gyro_x,gyro_y,gyro_z
18212321603850,-0.07661445438861847,-9.787496566772461,1.337161660194397,-0.02502102218568325,-0.015438503585755825,0.0500420443713665
18212322841400,-0.08738835901021957,-9.794679641723633,1.3874398469924927,-0.01836649514734745,-0.0215606689453125,0.0540347620844841
18212324078937,-0.090979665517807,-9.807847023010254,1.3634978532791138,-0.0228915736079216,-0.01889885775744915,0.052703857421875
18212325316487,-0.11013327538967133,-9.792284965515137,1.3407529592514038,-0.0196974016726017,-0.0090501569211483,0.0503082275390625
18212326554037,-0.14604631066322327,-9.75278091430664,1.3623007535934448,-0.0228915736079216,-0.01650322787463665,0.047646414488554
18212327791562,-0.10893617570400238,-9.714473724365234,1.3611036539077759,-0.0223592109978199,-0.01943122036755085,0.0521714948117733
18212329029112,-0.07781155407428741,-9.75517463684082,1.3407529592514038,-0.0191650390625,-0.01597086526453495,0.0569627545773983
18212330266650,-0.07541735470294952,-9.762357711791992,1.3491326570510864,-0.0215606689453125,-0.012510511092841625,0.0500420443713665
18212331504200,-0.12090718746185303,-9.767146110534668,1.3503297567367554,-0.02262539230287075,-0.01463996060192585,0.0508405901491642
18212332741725,-0.09576807171106339,-9.759963035583496,1.3239935636520386,-0.0228915736079216,-0.01224433071911335,0.0455169677734375
18212333979275,-0.11252748221158981,-9.743204116821289,1.3060370683670044,-0.02022976242005825,-0.013042873702943325,0.0481787770986557
18212335216825,-0.07900865375995636,-9.763554573059082,1.3323732614517212,-0.0204959437251091,-0.010381062515079975,0.0465816929936409
18212336454350,-0.1149216815829277,-9.768342971801758,1.3108254671096802,-0.0263519287109375,-0.010647243820130825,0.0503082275390625
18212337691887,-0.09935937076807022,-9.75517463684082,1.334767460823059,-0.02422248013317585,-0.012776692397892475,0.052703857421875
18212338929425,-0.11013327538967133,-9.77791976928711,1.3251906633377075,-0.02369011752307415,-0.010381062515079975,0.0503082275390625
18212340166962,-0.11252748221158981,-9.787496566772461,1.335964560508728,-0.0244886614382267,-0.0138414166867733,0.0481787770986557
18212341404500,-0.11611878126859665,-9.739612579345703,1.3287819623947144,-0.023956298828125,-0.0114457868039608,0.0447184219956398
18212342642037,-0.14604631066322327,-9.725247383117676,1.37906014919281,-0.01703559048473835,-0.010913425125181675,0.0473802350461483
18212343879587,-0.12090718746185303,-9.75517463684082,1.3096283674240112,-0.02129448764026165,-0.00984870083630085,0.0495096817612648
18212345117137,-0.09935937076807022,-9.806650161743164,1.3479355573654175,-0.02794901467859745,-0.01171196810901165,0.0449846051633358
18212346354675,-0.1412578970193863,-9.768342971801758,1.3527239561080933,-0.0268842913210392,-0.01171196810901165,0.0468478724360466
18212347592225,-0.15083470940589905,-9.75278091430664,1.3407529592514038,-0.0210283063352108,-0.0066545275039970875,0.0500420443713665
18212348829750,-0.12090718746185303,-9.75158405303955,1.3060370683670044,-0.02315775491297245,-0.00692070834338665,0.0449846051633358
18212350067300,-0.13527239859104156,-9.72165584564209,1.314416766166687,-0.02129448764026165,-0.008517795242369175,0.0463155098259449
18212351304837,-0.15562310814857483,-9.757569313049316,1.3036428689956665,-0.0252872034907341,-0.01117960549890995,0.0412580706179142
18212352542387,-0.1735796183347702,-9.727641105651855,1.3012486696243286,-0.02076212503015995,-0.010114881210029125,0.0468478724360466
18212353779925,-0.1256955862045288,-9.739612579345703,1.335964560508728,-0.01889885775744915,-0.010647243820130825,0.0473802350461483
18212355017450,-0.11133038252592087,-9.736021041870117,1.2797008752822876,-0.02022976242005825,-0.007453070487827063,0.0391286201775074
18212356254987,-0.12330138683319092,-9.704896926879883,1.3515268564224243,-0.0186326764523983,-0.0063883461989462376,0.0412580706179142
18212357492550,-0.13168109953403473,-9.710882186889648,1.3180080652236938,-0.02022976242005825,-0.0053236219100654125,0.0433875173330307
18212358730087,-0.0933738648891449,-9.68694019317627,1.314416766166687,-0.01783413253724575,-0.008783976547420025,0.0367329902946949
18212359967612,-0.1412578970193863,-9.730035781860352,1.3275848627090454,-0.02129448764026165,-0.005057440605014563,0.042855154722929
18212361205162,-0.10534487664699554,-9.736021041870117,1.3299790620803833,-0.0228915736079216,-0.0042588976211845875,0.0441860631108284
18212362442712,-0.11372458189725876,-9.761160850524902,1.3634978532791138,-0.02182685025036335,-0.0018632676219567657,0.0439198799431324
18212363680237,-0.07661445438861847,-9.709685325622559,1.3958195447921753,-0.01889885775744915,-0.0037265352439135313,0.0401933453977108
18212364917800,-0.09217676520347595,-9.743204116821289,1.3275848627090454,-0.01650322787463665,-0.0071868896484375,0.0436537005007267
18212366155312,-0.1388636976480484,-9.761160850524902,1.3323732614517212,-0.01410759799182415,-0.0029279920272529125,0.0396609827876091
18212367392862,-0.08858546614646912,-9.75397777557373,1.3634978532791138,-0.0220930315554142,-0.0039927163161337376,0.0359344482421875
18212368630412,-0.13527239859104156,-9.758766174316406,1.3275848627090454,-0.0181003138422966,-0.0042588976211845875,0.038063894957304
18212369867950,-0.08858546614646912,-9.797073364257812,1.3335703611373901,-0.01650322787463665,-0.00452507846057415,0.0436537005007267
18212371105462,-0.13048399984836578,-9.792284965515137,1.292868971824646,-0.0191650390625,-0.0031941730994731188,0.0407257080078125
18212372343037,-0.09457096457481384,-9.793481826782227,1.3539210557937622,-0.01836649514734745,-0.0042588976211845875,0.0415242500603199
18212373580562,-0.11372458189725876,-9.771934509277344,1.3084312677383423,-0.0167694091796875,-0.007453070487827063,0.0463155098259449
18212374818112,-0.11372458189725876,-9.780314445495605,1.290474772453308,-0.0138414166867733,-0.0031941730994731188,0.0439198799431324
18212376055650,-0.07661445438861847,-9.747992515563965,1.291671872138977,-0.01224433071911335,-0.00452507846057415,0.0415242500603199
18212377293175,-0.08738835901021957,-9.764751434326172,1.3275848627090454,-0.013309055007994175,-0.0002661811013240367,0.0439198799431324
18212378530750,-0.08738835901021957,-9.745597839355469,1.3192051649093628,-0.01463996060192585,0.0002661811013240367,0.0449846051633358
18212379768275,-0.09816227108240128,-9.749189376831055,1.3204022645950317,-0.0114457868039608,-0.0042588976211845875,0.038330078125
18212381005812,-0.09576807171106339,-9.780314445495605,1.3299790620803833,-0.015438503585755825,-0.006122165359556675,0.0407257080078125
18212382243362,-0.0933738648891449,-9.728838920593262,1.3192051649093628,-0.012510511092841625,-0.008783976547420025,0.0452507846057415
18212383480900,-0.12928690016269684,-9.739612579345703,1.359906554222107,-0.00958251953125,-0.0053236219100654125,0.0415242500603199
18212384718437,-0.07422025501728058,-9.75397777557373,1.3527239561080933,-0.012776692397892475,-0.0026618109550327063,0.0417904332280159
18212385955975,-0.09816227108240128,-9.746795654296875,1.2988544702529907,-0.01117960549890995,-0.005057440605014563,0.0393948033452034
18212387193525,-0.13527239859104156,-9.759963035583496,1.3527239561080933,-0.010647243820130825,-0.0053236219100654125,0.0385962575674057
18212388431050,-0.08738835901021957,-9.749189376831055,1.359906554222107,-0.0090501569211483,-0.010381062515079975,0.038063894957304
18212389668612,-0.1256955862045288,-9.77672290802002,1.3311761617660522,-0.012776692397892475,-0.004791259765625,0.0391286201775074
18212390906150,-0.1041477769613266,-9.791088104248047,1.2892776727676392,-0.013042873702943325,-0.003460354171693325,0.0377977155148983
18212392143700,-0.10534487664699554,-9.738415718078613,1.3503297567367554,-0.0119781494140625,-0.0063883461989462376,0.0340711809694767
18212393381212,-0.10773907601833344,-9.736021041870117,1.3000515699386597,-0.007985432632267475,-0.012510511092841625,0.0377977155148983
18212394618762,-0.1173158809542656,-9.744400978088379,1.3036428689956665,-0.00984870083630085,-0.0023956298828125,0.033272635191679
18212395856300,-0.12090718746185303,-9.770737648010254,1.3287819623947144,-0.00958251953125,-0.004791259765625,0.0311431884765625
18212397093862,-0.13048399984836578,-9.799468040466309,1.294066071510315,-0.0114457868039608,-0.0077192517928779125,0.0338049978017807
18212398331387,-0.10654197633266449,-9.762357711791992,1.2880805730819702,-0.010114881210029125,-0.01224433071911335,0.0343373604118824
18212399568925,-0.08619125932455063,-9.769539833068848,1.3192051649093628,-0.008783976547420025,-0.008251613937318325,0.0346035435795784
18212400806475,-0.090979665517807,-9.816226959228516,1.3204022645950317,-0.0018632676219567657,-0.010647243820130825,0.0356682650744915
18212402044012,-0.13168109953403473,-9.806650161743164,1.3096283674240112,-0.0053236219100654125,-0.01224433071911335,0.0346035435795784
18212403281575,-0.10175357013940811,-9.762357711791992,1.3311761617660522,-0.00452507846057415,-0.0077192517928779125,0.033272635191679
18212404519100,-0.08738835901021957,-9.745597839355469,1.3275848627090454,-0.00984870083630085,-0.00692070834338665,0.0340711809694767
18212405756625,-0.10175357013940811,-9.769539833068848,1.3431471586227417,-0.0114457868039608,-0.008251613937318325,0.0372653529047966
18212406994187,-0.09217676520347595,-9.783905029296875,1.3682862520217896,-0.0090501569211483,-0.00984870083630085,0.0354020856320858
18212408231712,-0.08140286058187485,-9.773131370544434,1.3263877630233765,-0.0071868896484375,-0.01117960549890995,0.0324740931391716
18212409469250,-0.09457096457481384,-9.75517463684082,1.3263877630233765,-0.010647243820130825,-0.012510511092841625,0.0330064557492733
18212410706812,-0.09576807171106339,-9.801861763000488,1.3084312677383423,-0.0090501569211483,-0.01597086526453495,0.0327402763068676
18212411944337,-0.07182604819536209,-9.762357711791992,1.2808979749679565,-0.005057440605014563,-0.0090501569211483,0.0295461006462574
18212413181887,-0.11252748221158981,-9.767146110534668,1.2844892740249634,-0.0023956298828125,-0.00958251953125,0.03034464456140995
18212414419425,-0.14484921097755432,-9.77791976928711,1.3251906633377075,-0.006122165359556675,-0.00984870083630085,0.0300784632563591
18212415656962,-0.15801730751991272,-9.767146110534668,1.357512354850769,-0.015438503585755825,-0.008251613937318325,0.02741665206849575
18212416894512,-0.15801730751991272,-9.761160850524902,1.3311761617660522,-0.008251613937318325,-0.010913425125181675,0.02901373989880085
18212418132037,-0.14245499670505524,-9.758766174316406,1.3323732614517212,-0.0042588976211845875,-0.01650322787463665,0.02848137728869915
18212419369600,-0.1759738326072693,-9.797073364257812,1.3515268564224243,-0.00984870083630085,-0.00931633822619915,0.0306108258664608
18212420607137,-0.12689268589019775,-9.785102844238281,1.359906554222107,-0.003460354171693325,-0.0114457868039608,0.033538818359375
18212421844675,-0.15921440720558167,-9.740809440612793,1.3395558595657349,-0.01224433071911335,-0.01224433071911335,0.0295461006462574
18212423082225,-0.1173158809542656,-9.732430458068848,1.316810965538025,-0.00984870083630085,-0.01357523538172245,0.0306108258664608
18212424319737,-0.12090718746185303,-9.813833236694336,1.3479355573654175,-0.0023956298828125,-0.01410759799182415,0.02981228195130825
18212425557300,-0.10295067727565765,-9.773131370544434,1.3431471586227417,-0.0053236219100654125,-0.00958251953125,0.02981228195130825
18212426794825,-0.12210428714752197,-9.756372451782227,1.3048399686813354,-0.0071868896484375,-0.00931633822619915,0.02422248013317585
18212428032387,-0.10654197633266449,-9.819818496704102,1.2797008752822876,-0.01117960549890995,-0.0119781494140625,0.0271504707634449
18212429269912,-0.11252748221158981,-9.783905029296875,1.3180080652236938,-0.010114881210029125,-0.012510511092841625,0.0295461006462574
18212430507462,-0.1149216815829277,-9.786299705505371,1.2725181579589844,-0.005855984054505825,-0.01756795309484005,0.033272635191679
18212431744987,-0.10773907601833344,-9.800664901733398,1.3012486696243286,-0.00692070834338665,-0.013042873702943325,0.02502102218568325
18212432982537,-0.1280897855758667,-9.795876502990723,1.3084312677383423,-0.005855984054505825,-0.0138414166867733,0.02502102218568325
18212434220075,-0.10055647045373917,-9.801861763000488,1.3024457693099976,-0.008251613937318325,-0.01597086526453495,0.0263519287109375
18212435457612,-0.13048399984836578,-9.819818496704102,1.3096283674240112,-0.012510511092841625,-0.0114457868039608,0.0244886614382267
18212436695162,-0.14245499670505524,-9.800664901733398,1.259350061416626,-0.0167694091796875,-0.010114881210029125,0.0181003138422966
18212437932712,-0.10654197633266449,-9.768342971801758,1.2892776727676392,-0.00931633822619915,-0.01410759799182415,0.02022976242005825
18212439170250,-0.10175357013940811,-9.768342971801758,1.2976573705673218,-0.0071868896484375,-0.0157046839594841,0.023956298828125
18212440407787,-0.08858546614646912,-9.77672290802002,1.3491326570510864,-0.0090501569211483,-0.01756795309484005,0.0271504707634449
18212441645337,-0.12090718746185303,-9.762357711791992,1.3275848627090454,-0.01117960549890995,-0.015438503585755825,0.02262539230287075
18212442882850,-0.09457096457481384,-9.769539833068848,1.2749123573303223,-0.008783976547420025,-0.02182685025036335,0.0247548408806324
18212444120400,-0.090979665517807,-9.782708168029785,1.3287819623947144,-0.007985432632267475,-0.0191650390625,0.0263519287109375
18212445357950,-0.12689268589019775,-9.770737648010254,1.3323732614517212,-0.007985432632267475,-0.0186326764523983,0.02262539230287075
18212446595500,-0.10893617570400238,-9.750386238098145,1.3503297567367554,-0.0039927163161337376,-0.0173017717897892,0.0196974016726017
18212447833025,-0.11013327538967133,-9.730035781860352,1.3455413579940796,-0.007453070487827063,-0.01463996060192585,0.02502102218568325
18212449070575,-0.09935937076807022,-9.77552604675293,1.2773066759109497,-0.007985432632267475,-0.0138414166867733,0.03034464456140995
18212450308125,-0.15442600846290588,-9.774328231811523,1.3778630495071411,-0.0039927163161337376,-0.01783413253724575,0.02848137728869915
18212451545662,-0.10295067727565765,-9.768342971801758,1.3479355573654175,-0.0071868896484375,-0.015438503585755825,0.0258195661008358
18212452783212,-0.0933738648891449,-9.795876502990723,1.3024457693099976,-0.0114457868039608,-0.00931633822619915,0.02262539230287075
18212454020750,-0.12090718746185303,-9.815030097961426,1.2952631711959839,-0.005589802749454975,-0.01650322787463665,0.02502102218568325
18212455258275,-0.11013327538967133,-9.821015357971191,1.3060370683670044,-0.00452507846057415,-0.0228915736079216,0.0258195661008358
18212456495825,-0.15083470940589905,-9.739612579345703,1.3467384576797485,-0.006122165359556675,-0.0196974016726017,0.02555338479578495
18212457733362,-0.12210428714752197,-9.795876502990723,1.314416766166687,-0.00692070834338665,-0.01703559048473835,0.023956298828125
18212458970900,-0.13287819921970367,-9.801861763000488,1.3443442583084106,-0.008517795242369175,-0.014906140975654125,0.02182685025036335
18212460208425,-0.09696517139673233,-9.805453300476074,1.3443442583084106,-0.006122165359556675,-0.013309055007994175,0.02076212503015995
18212461445987,-0.11133038252592087,-9.774328231811523,1.3275848627090454,-0.0063883461989462376,-0.0162370465695858,0.02315775491297245
18212462683525,-0.15562310814857483,-9.805453300476074,1.2785037755966187,-0.010114881210029125,-0.02022976242005825,0.02182685025036335
18212463921075,-0.13168109953403473,-9.794679641723633,1.3084312677383423,-0.010647243820130825,-0.0196974016726017,0.01836649514734745
18212465158612,-0.15083470940589905,-9.830592155456543,1.3311761617660522,-0.00958251953125,-0.01703559048473835,0.02129448764026165
18212466396150,-0.1412578970193863,-9.78869342803955,1.316810965538025,-0.00958251953125,-0.013309055007994175,0.023956298828125
18212467633700,-0.152031809091568,-9.780314445495605,1.3084312677383423,-0.0053236219100654125,-0.01650322787463665,0.0258195661008358
18212468871225,-0.12330138683319092,-9.792284965515137,1.3323732614517212,-0.00958251953125,-0.0234239362180233,0.0181003138422966
18212470108762,-0.15801730751991272,-9.831789016723633,1.3335703611373901,-0.01171196810901165,-0.01597086526453495,0.0196974016726017
18212471346300,-0.14245499670505524,-9.813833236694336,1.315613865852356,-0.0114457868039608,-0.013042873702943325,0.02129448764026165
18212472583850,-0.14245499670505524,-9.799468040466309,1.3180080652236938,-0.010381062515079975,-0.0138414166867733,0.02502102218568325
18212473821400,-0.14006079733371735,-9.816226959228516,1.3108254671096802,-0.0119781494140625,-0.01463996060192585,0.0282151959836483
18212475058925,-0.12210428714752197,-9.799468040466309,1.2868834733963013,-0.010647243820130825,-0.010381062515079975,0.0210283063352108
18212476296487,-0.15562310814857483,-9.77552604675293,1.2797008752822876,-0.008517795242369175,-0.01703559048473835,0.02422248013317585
18212477534025,-0.13287819921970367,-9.819818496704102,1.3227964639663696,-0.00984870083630085,-0.01650322787463665,0.0282151959836483
18212478771562,-0.12330138683319092,-9.749189376831055,1.3455413579940796,-0.0181003138422966,-0.0215606689453125,0.02129448764026165
18212480009100,-0.1280897855758667,-9.75397777557373,1.3204022645950317,-0.01410759799182415,-0.0196974016726017,0.0228915736079216
18212481246637,-0.14245499670505524,-9.800664901733398,1.2988544702529907,-0.010381062515079975,-0.01357523538172245,0.0244886614382267
18212482484175,-0.12449848651885986,-9.804256439208984,1.316810965538025,-0.013042873702943325,-0.01224433071911335,0.02369011752307415
18212483721725,-0.11611878126859665,-9.80904483795166,1.3096283674240112,-0.0181003138422966,-0.013309055007994175,0.02608574740588665
18212484959262,-0.13168109953403473,-9.758766174316406,1.3108254671096802,-0.01463996060192585,-0.01463996060192585,0.02129448764026165
18212486196812,-0.12689268589019775,-9.749189376831055,1.3108254671096802,-0.014373779296875,-0.01597086526453495,0.0234239362180233
18212487434325,-0.12928690016269684,-9.773131370544434,1.2677297592163086,-0.01463996060192585,-0.0210283063352108,0.0244886614382267
18212488671887,-0.1364694982767105,-9.770737648010254,1.3012486696243286,-0.0119781494140625,-0.01783413253724575,0.02422248013317585
18212489909437,-0.14365209639072418,-9.791088104248047,1.3239935636520386,-0.014373779296875,-0.01597086526453495,0.0282151959836483
18212491146975,-0.15562310814857483,-9.791088104248047,1.338358759880066,-0.01410759799182415,-0.01889885775744915,0.0295461006462574
18212492384512,-0.14844051003456116,-9.817423820495605,1.3048399686813354,-0.01597086526453495,-0.01703559048473835,0.0306108258664608
18212493622062,-0.17477671802043915,-9.849745750427246,1.3096283674240112,-0.014373779296875,-0.01597086526453495,0.02981228195130825
18212494859587,-0.16998831927776337,-9.823410034179688,1.2832921743392944,-0.00958251953125,-0.0215606689453125,0.0314093679189682
18212496097150,-0.19871874153614044,-9.8784761428833,1.3096283674240112,-0.0114457868039608,-0.0157046839594841,0.0330064557492733
18212497334662,-0.17717093229293823,-9.803058624267578,1.3491326570510864,-0.02022976242005825,-0.013309055007994175,0.02422248013317585
18212498572237,-0.15083470940589905,-9.84615421295166,1.2868834733963013,-0.012776692397892475,-0.015172322280704975,0.02502102218568325
18212499809762,-0.20350714027881622,-9.877279281616211,1.2952631711959839,-0.01836649514734745,-0.0162370465695858,0.02874755859375
18212501047300,-0.16519992053508759,-9.873687744140625,1.2725181579589844,-0.01996358297765255,-0.01171196810901165,0.02794901467859745
18212502284837,-0.18315643072128296,-9.884461402893066,1.3096283674240112,-0.0181003138422966,-0.01996358297765255,0.0282151959836483
18212503522375,-0.19033904373645782,-9.9000244140625,1.3263877630233765,-0.01889885775744915,-0.01756795309484005,0.02981228195130825
18212504759912,-0.19871874153614044,-9.856928825378418,1.3048399686813354,-0.01996358297765255,-0.01597086526453495,0.0282151959836483
18212505997462,-0.1867477297782898,-9.917980194091797,1.2617442607879639,-0.02502102218568325,-0.01783413253724575,0.0271504707634449
18212507235000,-0.19632454216480255,-9.909601211547852,1.3048399686813354,-0.023956298828125,-0.01703559048473835,0.0244886614382267
18212508472550,-0.19033904373645782,-9.86889934539795,1.2868834733963013,-0.0252872034907341,-0.01889885775744915,0.0263519287109375
18212509710100,-0.1711854189634323,-9.86650562286377,1.337161660194397,-0.0220930315554142,-0.01783413253724575,0.0258195661008358
18212510947637,-0.1604115217924118,-9.822212219238281,1.290474772453308,-0.02022976242005825,-0.015172322280704975,0.0228915736079216
18212512185175,-0.14245499670505524,-9.876082420349121,1.3072341680526733,-0.0276828333735466,-0.015438503585755825,0.0319417305290699
18212513422725,-0.17717093229293823,-9.838972091674805,1.3215993642807007,-0.02981228195130825,-0.0162370465695858,0.02262539230287075
18212514660262,-0.18076223134994507,-9.80904483795166,1.3048399686813354,-0.02608574740588665,-0.01410759799182415,0.01996358297765255
18212515897800,-0.20470423996448517,-9.883264541625977,1.3024457693099976,-0.0311431884765625,-0.007985432632267475,0.023956298828125
18212517135325,-0.1496376097202301,-9.871294021606445,1.3227964639663696,-0.0340711809694767,-0.014373779296875,0.0252872034907341
18212518372875,-0.15562310814857483,-9.818621635437012,1.2665326595306396,-0.02422248013317585,-0.013309055007994175,0.0282151959836483
18212519610425,-0.152031809091568,-9.804256439208984,1.294066071510315,-0.02369011752307415,-0.0138414166867733,0.0258195661008358
18212520847962,-0.14484921097755432,-9.785102844238281,1.2988544702529907,-0.02794901467859745,-0.0138414166867733,0.01996358297765255
18212522085512,-0.1472434103488922,-9.795876502990723,1.313219666481018,-0.0327402763068676,-0.008251613937318325,0.02022976242005825
18212523323037,-0.23104046285152435,-9.798270225524902,1.3311761617660522,-0.0322079136967659,-0.010114881210029125,0.02741665206849575
18212524560587,-0.2082955539226532,-9.761160850524902,1.3036428689956665,-0.0311431884765625,-0.01463996060192585,0.03087700717151165
18212525798137,-0.20470423996448517,-9.767146110534668,1.3060370683670044,-0.0354020856320858,-0.015172322280704975,0.0292799212038517
18212527035675,-0.18794482946395874,-9.737218856811523,1.258152961730957,-0.0346035435795784,-0.010381062515079975,0.02981228195130825
18212528273212,-0.16759411990642548,-9.728838920593262,1.2880805730819702,-0.02901373989880085,-0.008783976547420025,0.02901373989880085
18212529510737,-0.1735796183347702,-9.702502250671387,1.2677297592163086,-0.0306108258664608,-0.01117960549890995,0.0300784632563591
18212530748300,-0.1999158412218094,-9.714473724365234,1.3204022645950317,-0.0311431884765625,-0.00692070834338665,0.0268842913210392
18212531985837,-0.2059013545513153,-9.75278091430664,1.3000515699386597,-0.0292799212038517,-0.0053236219100654125,0.0268842913210392
18212533223362,-0.2190694510936737,-9.738415718078613,1.292868971824646,-0.0268842913210392,-0.007453070487827063,0.0314093679189682
18212534460912,-0.23343466222286224,-9.733627319335938,1.2988544702529907,-0.02981228195130825,-0.008783976547420025,0.02794901467859745
18212535698437,-0.2214636653661728,-9.743204116821289,1.2653355598449707,-0.02555338479578495,-0.01117960549890995,0.02661811001598835
18212536936012,-0.1867477297782898,-9.758766174316406,1.3072341680526733,-0.0271504707634449,-0.008251613937318325,0.0220930315554142
18212538173550,-0.21667525172233582,-9.7791166305542,1.3407529592514038,-0.02741665206849575,-0.00692070834338665,0.02555338479578495
18212539411087,-0.181959331035614,-9.738415718078613,1.3000515699386597,-0.0282151959836483,-0.00958251953125,0.0316755510866642
18212540648637,-0.22026655077934265,-9.77791976928711,1.3227964639663696,-0.0268842913210392,-0.00692070834338665,0.0292799212038517
18212541886175,-0.1628057211637497,-9.743204116821289,1.3108254671096802,-0.02502102218568325,-0.0063883461989462376,0.02608574740588665
18212543123712,-0.13048399984836578,-9.773131370544434,1.3036428689956665,-0.0263519287109375,-0.0066545275039970875,0.02661811001598835
18212544361237,-0.17717093229293823,-9.734824180603027,1.2677297592163086,-0.0276828333735466,-0.0029279920272529125,0.02874755859375
18212545598787,-0.14844051003456116,-9.732430458068848,1.3287819623947144,-0.0252872034907341,-0.010114881210029125,0.03034464456140995
18212546836337,-0.13766659796237946,-9.75278091430664,1.3096283674240112,-0.0268842913210392,-0.005589802749454975,0.02848137728869915
18212548073862,-0.13766659796237946,-9.770737648010254,1.3024457693099976,-0.0263519287109375,-0.0013309054775163531,0.0271504707634449
18212549311425,-0.15562310814857483,-9.783905029296875,1.3084312677383423,-0.02315775491297245,-0.0029279920272529125,0.02794901467859745
18212550548962,-0.152031809091568,-9.768342971801758,1.3299790620803833,-0.0234239362180233,-0.0037265352439135313,0.02076212503015995
18212551786500,-0.17717093229293823,-9.747992515563965,1.3024457693099976,-0.02502102218568325,-0.0015970865497365594,0.02129448764026165
18212553024050,-0.13407529890537262,-9.72285270690918,1.3467384576797485,-0.0252872034907341,-0.003460354171693325,0.02502102218568325
18212554261587,-0.13527239859104156,-9.706093788146973,1.3275848627090454,-0.0223592109978199,-0.008783976547420025,0.01703559048473835
18212555499125,-0.12210428714752197,-9.695320129394531,1.3527239561080933,-0.0228915736079216,-0.007985432632267475,0.0181003138422966
18212556736675,-0.1472434103488922,-9.707290649414062,1.3563152551651,-0.01783413253724575,-0.0053236219100654125,0.01836649514734745
18212557974212,-0.16998831927776337,-9.701305389404297,1.3287819623947144,-0.014906140975654125,-0.0031941730994731188,0.01650322787463665
18212559211737,-0.14604631066322327,-9.697713851928711,1.3491326570510864,-0.0186326764523983,-0.0090501569211483,0.015438503585755825
18212560449287,-0.19153614342212677,-9.700108528137207,1.3706804513931274,-0.0157046839594841,-0.007453070487827063,0.01597086526453495
18212561686837,-0.1843535304069519,-9.724050521850586,1.2964602708816528,-0.01410759799182415,-0.0053236219100654125,0.01597086526453495
18212562924362,-0.1496376097202301,-9.682151794433594,1.3180080652236938,-0.02608574740588665,-0.005589802749454975,0.014373779296875
18212564161925,-0.17956513166427612,-9.704896926879883,1.3120225667953491,-0.02422248013317585,-0.0071868896484375,0.0114457868039608
18212565399450,-0.14484921097755432,-9.739612579345703,1.314416766166687,-0.0186326764523983,-0.005589802749454975,0.00958251953125
18212566637000,-0.1472434103488922,-9.733627319335938,1.3180080652236938,-0.0114457868039608,-0.0063883461989462376,0.008251613937318325
18212567874525,-0.15562310814857483,-9.725247383117676,1.3263877630233765,-0.01597086526453495,-0.0005323622026480734,0.0077192517928779125
18212569112075,-0.16759411990642548,-9.72285270690918,1.3215993642807007,-0.0138414166867733,0.0005323622026480734,0.00958251953125
18212570349612,-0.15921440720558167,-9.75397777557373,1.3239935636520386,-0.010114881210029125,-0.003460354171693325,0.00692070834338665
18212571587175,-0.18076223134994507,-9.749189376831055,1.260547161102295,-0.010913425125181675,-0.005057440605014563,0.004791259765625
18212572824700,-0.17956513166427612,-9.706093788146973,1.3395558595657349,-0.01171196810901165,-0.005855984054505825,0.0037265352439135313
18212574062250,-0.22026655077934265,-9.695320129394531,1.3275848627090454,-0.008251613937318325,-0.0066545275039970875,0.0029279920272529125
18212575299775,-0.21787235140800476,-9.724050521850586,1.334767460823059,-0.0090501569211483,-0.005855984054505825,0.0015970865497365594
18212576537337,-0.20949265360832214,-9.744400978088379,1.3646949529647827,-0.010114881210029125,0.0010647244052961469,0.0010647244052961469
18212577774875,-0.14484921097755432,-9.715670585632324,1.3407529592514038,-0.0066545275039970875,0.0031941730994731188,-0.0013309054775163531
18212579012412,-0.16759411990642548,-9.668983459472656,1.3527239561080933,-0.003460354171693325,-0.0021294488105922937,-0.005057440605014563
18212580249950,-0.18076223134994507,-9.677363395690918,1.291671872138977,-0.0039927163161337376,-0.0023956298828125,-0.006122165359556675
18212581487475,-0.1711854189634323,-9.707290649414062,1.314416766166687,-0.0026618109550327063,-0.00452507846057415,-0.00692070834338665
18212582725025,-0.152031809091568,-9.670180320739746,1.3012486696243286,-0.003460354171693325,-0.0015970865497365594,-0.0077192517928779125
18212583962562,-0.1628057211637497,-9.703699111938477,1.292868971824646,-0.0023956298828125,-0.003460354171693325,-0.00958251953125
18212585200125,-0.13048399984836578,-9.66299819946289,1.3048399686813354,-0.0002661811013240367,-0.006122165359556675,-0.005057440605014563
18212586437650,-0.15682020783424377,-9.672574996948242,1.315613865852356,0.003460354171693325,-0.0042588976211845875,-0.007453070487827063
18212587675187,-0.13168109953403473,-9.659406661987305,1.3335703611373901,-0.0026618109550327063,-0.0039927163161337376,-0.01756795309484005
18212588912762,-0.14604631066322327,-9.680954933166504,1.2952631711959839,-0.0010647244052961469,-0.006122165359556675,-0.01117960549890995
18212590150275,-0.15682020783424377,-9.694122314453125,1.2832921743392944,0.0066545275039970875,-0.0015970865497365594,-0.00958251953125
18212591387812,-0.152031809091568,-9.68574333190918,1.3204022645950317,0.010381062515079975,-0.004791259765625,-0.0090501569211483
18212592625375,-0.15921440720558167,-9.709685325622559,1.3012486696243286,0.010647243820130825,-0.0042588976211845875,-0.01357523538172245
18212593862912,-0.15562310814857483,-9.701305389404297,1.3108254671096802,0.00692070834338665,-0.0026618109550327063,-0.01224433071911335
18212595100450,-0.14365209639072418,-9.704896926879883,1.338358759880066,0.008783976547420025,-0.0053236219100654125,-0.01117960549890995
18212596338000,-0.1280897855758667,-9.730035781860352,1.3455413579940796,0.008517795242369175,-0.0042588976211845875,-0.010114881210029125
18212597575537,-0.13048399984836578,-9.7420072555542,1.3395558595657349,0.005057440605014563,-0.003460354171693325,-0.0204959437251091
18212598813087,-0.11252748221158981,-9.713275909423828,1.3072341680526733,0.01463996060192585,-0.0063883461989462376,-0.0138414166867733
18212600050600,-0.14484921097755432,-9.71926212310791,1.3036428689956665,0.01463996060192585,-0.00452507846057415,-0.0181003138422966
18212601288162,-0.1628057211637497,-9.720458984375,1.2749123573303223,0.0090501569211483,-0.007985432632267475,-0.02022976242005825
18212602525712,-0.13766659796237946,-9.727641105651855,1.2880805730819702,0.0090501569211483,-0.005589802749454975,-0.0162370465695858
18212603763225,-0.15322890877723694,-9.771934509277344,1.2988544702529907,0.015172322280704975,-0.005057440605014563,-0.01703559048473835
18212605000775,-0.15083470940589905,-9.718064308166504,1.3239935636520386,0.01756795309484005,-0.00958251953125,-0.0173017717897892
18212606238312,-0.10773907601833344,-9.740809440612793,1.2820950746536255,0.013309055007994175,-0.0053236219100654125,-0.01943122036755085
18212607475862,-0.1496376097202301,-9.747992515563965,1.2737152576446533,0.013309055007994175,-0.0029279920272529125,-0.0210283063352108
18212608713400,-0.1256955862045288,-9.749189376831055,1.3048399686813354,0.0157046839594841,-0.005855984054505825,-0.01650322787463665
18212609950950,-0.1149216815829277,-9.737218856811523,1.3192051649093628,0.01357523538172245,-0.0071868896484375,-0.012776692397892475
18212611188487,-0.12689268589019775,-9.739612579345703,1.337161660194397,0.01650322787463665,-0.0021294488105922937,-0.0210283063352108
18212612426025,-0.13287819921970367,-9.734824180603027,1.294066071510315,0.0167694091796875,-0.005855984054505825,-0.01889885775744915
18212613663562,-0.1280897855758667,-9.749189376831055,1.2964602708816528,0.01597086526453495,-0.003460354171693325,-0.01597086526453495
18212614901125,-0.14245499670505524,-9.746795654296875,1.3000515699386597,0.013309055007994175,-0.008783976547420025,-0.01783413253724575
18212616138650,-0.13168109953403473,-9.761160850524902,1.3024457693099976,0.01783413253724575,-0.01117960549890995,-0.01783413253724575
18212617376200,-0.1735796183347702,-9.774328231811523,1.3036428689956665,0.01836649514734745,-0.005057440605014563,-0.01836649514734745
18212618613737,-0.12928690016269684,-9.767146110534668,1.315613865852356,0.01996358297765255,-0.006122165359556675,-0.0186326764523983
18212619851300,-0.152031809091568,-9.77552604675293,1.3072341680526733,0.0223592109978199,-0.006122165359556675,-0.015172322280704975
18212621088812,-0.13287819921970367,-9.757569313049316,1.314416766166687,0.01224433071911335,-0.0066545275039970875,-0.012776692397892475
18212622326362,-0.14604631066322327,-9.745597839355469,1.3323732614517212,0.0167694091796875,-0.0119781494140625,-0.010647243820130825
18212623563900,-0.18914192914962769,-9.756372451782227,1.2749123573303223,0.01756795309484005,-0.01756795309484005,-0.01943122036755085
18212624801437,-0.152031809091568,-9.757569313049316,1.3275848627090454,0.01597086526453495,-0.005057440605014563,-0.0167694091796875
18212626039000,-0.12330138683319092,-9.7420072555542,1.3251906633377075,0.0247548408806324,-0.007985432632267475,-0.00692070834338665
18212627276537,-0.1041477769613266,-9.761160850524902,1.3096283674240112,0.01410759799182415,-0.007985432632267475,-0.0173017717897892
18212628514087,-0.13048399984836578,-9.786299705505371,1.3215993642807007,0.01171196810901165,-0.0066545275039970875,-0.0196974016726017
18212629751612,-0.1388636976480484,-9.783905029296875,1.2832921743392944,0.0157046839594841,-0.00984870083630085,-0.0186326764523983
18212630989150,-0.1412578970193863,-9.793481826782227,1.3263877630233765,0.01463996060192585,-0.010114881210029125,-0.01463996060192585
18212632226700,-0.1280897855758667,-9.815030097961426,1.316810965538025,0.012776692397892475,-0.0053236219100654125,-0.014906140975654125
18212633464237,-0.1496376097202301,-9.81263542175293,1.314416766166687,0.00958251953125,-0.010913425125181675,-0.015172322280704975
18212634701800,-0.11252748221158981,-9.824606895446777,1.3072341680526733,0.010913425125181675,-0.0114457868039608,-0.01597086526453495
18212635939325,-0.15322890877723694,-9.773131370544434,1.3515268564224243,0.014906140975654125,-0.0037265352439135313,-0.01703559048473835
18212637176862,-0.10295067727565765,-9.84615421295166,1.3204022645950317,0.012510511092841625,-0.0023956298828125,-0.0173017717897892
18212638414400,-0.1149216815829277,-9.795876502990723,1.3742717504501343,0.01171196810901165,-0.003460354171693325,-0.0181003138422966
18212639651950,-0.1364694982767105,-9.795876502990723,1.3563152551651,0.0119781494140625,-0.008783976547420025,-0.013042873702943325
18212640889500,-0.15562310814857483,-9.818621635437012,1.3108254671096802,0.01171196810901165,-0.01171196810901165,-0.01597086526453495
18212642127025,-0.1173158809542656,-9.821015357971191,1.3515268564224243,0.0090501569211483,-0.008517795242369175,-0.0186326764523983
18212643364575,-0.11851298809051514,-9.80904483795166,1.3227964639663696,0.00931633822619915,-0.0071868896484375,-0.02022976242005825
18212644602112,-0.11971008777618408,-9.853337287902832,1.3275848627090454,0.008251613937318325,-0.004791259765625,-0.0181003138422966
18212645839675,-0.13168109953403473,-9.850942611694336,1.3515268564224243,0.007453070487827063,-0.0021294488105922937,-0.0234239362180233
18212647077200,-0.16160862147808075,-9.816226959228516,1.3670891523361206,0.0021294488105922937,-0.008251613937318325,-0.0186326764523983
18212648314737,-0.07422025501728058,-9.872490882873535,1.334767460823059,0.0039927163161337376,-0.010647243820130825,-0.01836649514734745
18212649552275,-0.10295067727565765,-9.864110946655273,1.3395558595657349,0.0021294488105922937,-0.0063883461989462376,-0.0196974016726017
18212650789825,-0.12210428714752197,-9.865307807922363,1.358709454536438,0.0039927163161337376,-0.0039927163161337376,-0.01889885775744915
18212652027387,-0.1173158809542656,-9.854534149169922,1.3467384576797485,0.004791259765625,-0.010647243820130825,-0.0167694091796875
18212653264912,-0.10654197633266449,-9.860519409179688,1.3275848627090454,0.0007985432748682797,-0.00984870083630085,-0.02182685025036335
18212654502462,-0.11133038252592087,-9.841365814208984,1.290474772453308,0.0013309054775163531,-0.0023956298828125,-0.0228915736079216
18212655739987,-0.10773907601833344,-9.831789016723633,1.334767460823059,0.004791259765625,-0.005057440605014563,-0.0191650390625
18212656977537,-0.06464345008134842,-9.892841339111328,1.3730746507644653,0.0031941730994731188,-0.0077192517928779125,-0.01996358297765255
18212658215087,-0.10534487664699554,-9.855731010437012,1.3778630495071411,-0.0010647244052961469,-0.00984870083630085,-0.01650322787463665
18212659452612,-0.0933738648891449,-9.806650161743164,1.3634978532791138,-0.0029279920272529125,-0.007453070487827063,-0.01943122036755085
18212660690187,-0.09217676520347595,-9.789891242980957,1.3718775510787964,0.0007985432748682797,-0.00931633822619915,-0.01889885775744915
18212661927712,-0.10295067727565765,-9.787496566772461,1.359906554222107,-0.0010647244052961469,-0.010381062515079975,-0.02182685025036335
18212663165237,-0.09816227108240128,-9.830592155456543,1.3994109630584717,-0.0071868896484375,-0.007985432632267475,-0.01889885775744915
18212664402787,-0.08259996026754379,-9.822212219238281,1.334767460823059,-0.0031941730994731188,-0.0114457868039608,-0.01597086526453495
18212665640325,-0.1388636976480484,-9.791088104248047,1.3623007535934448,0.0007985432748682797,-0.012510511092841625,-0.01783413253724575
18212666877875,-0.10654197633266449,-9.801861763000488,1.3970166444778442,-0.0026618109550327063,-0.008517795242369175,-0.0157046839594841
18212668115425,-0.090979665517807,-9.780314445495605,1.357512354850769,-0.0015970865497365594,-0.006122165359556675,-0.0181003138422966
18212669352962,-0.08738835901021957,-9.7791166305542,1.382651448249817,-0.005057440605014563,-0.0090501569211483,-0.0215606689453125
18212670590500,-0.1280897855758667,-9.793481826782227,1.3551181554794312,-0.003460354171693325,-0.01410759799182415,-0.0186326764523983
18212671828025,-0.090979665517807,-9.798270225524902,1.382651448249817,-0.0029279920272529125,-0.013309055007994175,-0.01463996060192585
18212673065587,-0.11851298809051514,-9.792284965515137,1.3754688501358032,-0.0037265352439135313,-0.008517795242369175,-0.0119781494140625
18212674303125,-0.11611878126859665,-9.84376049041748,1.3682862520217896,-0.0053236219100654125,-0.012510511092841625,-0.0167694091796875
18212675540662,-0.1173158809542656,-9.841365814208984,1.3623007535934448,-0.0015970865497365594,-0.00692070834338665,-0.015172322280704975
18212676778200,-0.08259996026754379,-9.832986831665039,1.3084312677383423,-0.0023956298828125,-0.003460354171693325,-0.0173017717897892
18212678015750,-0.05027823522686958,-9.81024169921875,1.3323732614517212,-0.003460354171693325,-0.0042588976211845875,-0.01410759799182415
18212679253275,-0.07900865375995636,-9.865307807922363,1.380257248878479,-0.0010647244052961469,-0.0029279920272529125,-0.012510511092841625
18212680490850,-0.07541735470294952,-9.892841339111328,1.3335703611373901,-0.0029279920272529125,-0.0077192517928779125,-0.0162370465695858
18212681728375,-0.09935937076807022,-9.860519409179688,1.3431471586227417,-0.0042588976211845875,-0.0053236219100654125,-0.0162370465695858
18212682965900,-0.09217676520347595,-9.880870819091797,1.3455413579940796,-0.0023956298828125,0.0015970865497365594,-0.01171196810901165
18212684203462,-0.07422025501728058,-9.890447616577148,1.3503297567367554,-0.0007985432748682797,-0.005855984054505825,-0.0066545275039970875
18212685440987,-0.090979665517807,-9.877279281616211,1.37906014919281,-0.0002661811013240367,-0.010913425125181675,-0.003460354171693325
18212686678525,-0.08858546614646912,-9.919178009033203,1.37906014919281,-0.0053236219100654125,-0.00692070834338665,-0.0023956298828125
18212687916075,-0.11372458189725876,-9.84615421295166,1.3287819623947144,-0.00452507846057415,-0.0071868896484375,-0.005057440605014563
18212689153625,-0.0933738648891449,-9.840168952941895,1.3778630495071411,-0.005057440605014563,-0.01117960549890995,-0.0037265352439135313
18212690391150,-0.0586579404771328,-9.87967300415039,1.380257248878479,-0.0053236219100654125,-0.0063883461989462376,-0.0039927163161337376
18212691628700,-0.09696517139673233,-9.871294021606445,1.3455413579940796,-0.00452507846057415,-0.005057440605014563,0.0013309054775163531
18212692866250,-0.09935937076807022,-9.81263542175293,1.3778630495071411,-0.005057440605014563,-0.010114881210029125,-0.0013309054775163531
18212694103787,-0.06584054976701736,-9.829395294189453,1.4065935611724854,-0.008517795242369175,-0.007985432632267475,-0.0018632676219567657
18212695341350,-0.09935937076807022,-9.847352027893066,1.3706804513931274,-0.005057440605014563,-0.0018632676219567657,-0.0007985432748682797
18212696578875,-0.09217676520347595,-9.831789016723633,1.3479355573654175,-0.00692070834338665,-0.007985432632267475,-0.0018632676219567657
18212697816425,-0.08379705995321274,-9.804256439208984,1.3443442583084106,-0.007453070487827063,-0.01357523538172245,-0.0015970865497365594
18212699053962,-0.05027823522686958,-9.747992515563965,1.4173674583435059,-0.007985432632267475,-0.010381062515079975,0.0005323622026480734
18212700291500,-0.10055647045373917,-9.791088104248047,1.3395558595657349,-0.008783976547420025,-0.008783976547420025,0.005589802749454975
18212701529050,-0.08259996026754379,-9.800664901733398,1.381454348564148,-0.0119781494140625,-0.0071868896484375,0.0039927163161337376
18212702766587,-0.08619125932455063,-9.848548889160156,1.359906554222107,-0.0138414166867733,-0.00958251953125,0.0026618109550327063
18212704004125,-0.09576807171106339,-9.84615421295166,1.3563152551651,-0.0090501569211483,-0.01117960549890995,0.00452507846057415
18212705241662,-0.06703764945268631,-9.854534149169922,1.3742717504501343,-0.0114457868039608,-0.00692070834338665,0.0029279920272529125
18212706479200,-0.08499415963888168,-9.872490882873535,1.357512354850769,-0.0114457868039608,-0.0114457868039608,0.005057440605014563
18212707716762,-0.08140286058187485,-9.86770248413086,1.3515268564224243,-0.008783976547420025,-0.010381062515079975,-0.0007985432748682797
18212708954300,-0.06823474913835526,-9.850942611694336,1.3120225667953491,-0.010114881210029125,-0.0066545275039970875,0.0015970865497365594
18212710191850,-0.09696517139673233,-9.909601211547852,1.3503297567367554,-0.00984870083630085,-0.005057440605014563,0.007985432632267475
18212711429387,-0.07781155407428741,-9.849745750427246,1.3694833517074585,-0.0138414166867733,-0.0037265352439135313,0.004791259765625
18212712666937,-0.07900865375995636,-9.888052940368652,1.3634978532791138,-0.01410759799182415,-0.0042588976211845875,0.003460354171693325
18212713904475,-0.11133038252592087,-9.865307807922363,1.3096283674240112,-0.012776692397892475,-0.008251613937318325,0.0007985432748682797
18212715142012,-0.10295067727565765,-9.920374870300293,1.382651448249817,-0.01597086526453495,-0.010381062515079975,0.0007985432748682797
18212716379537,-0.11133038252592087,-9.898826599121094,1.3850456476211548,-0.0162370465695858,-0.005855984054505825,-0.0002661811013240367
18212717617100,-0.12689268589019775,-9.885659217834473,1.3670891523361206,-0.0157046839594841,-0.0053236219100654125,-0.0026618109550327063
18212718854625,-0.14365209639072418,-9.848548889160156,1.3886369466781616,-0.0173017717897892,-0.0029279920272529125,-0.005057440605014563
18212720092175,-0.14006079733371735,-9.86889934539795,1.3634978532791138,-0.0162370465695858,-0.0042588976211845875,0.0039927163161337376
18212721329700,-0.1256955862045288,-9.898826599121094,1.3862427473068237,-0.02555338479578495,-0.00692070834338665,0.005589802749454975
18212722567250,-0.12689268589019775,-9.9000244140625,1.3778630495071411,-0.023956298828125,-0.005057440605014563,-0.0010647244052961469
18212723804800,-0.13287819921970367,-9.895236015319824,1.3479355573654175,-0.02422248013317585,-0.0007985432748682797,0.0002661811013240367
18212725042350,-0.09696517139673233,-9.892841339111328,1.3096283674240112,-0.0244886614382267,-0.00452507846057415,-0.003460354171693325
18212726279875,-0.14844051003456116,-9.872490882873535,1.3072341680526733,-0.0268842913210392,-0.0037265352439135313,0.0015970865497365594
18212727517425,-0.13527239859104156,-9.861717224121094,1.3634978532791138,-0.0258195661008358,-0.0021294488105922937,-0.0013309054775163531
18212728754975,-0.09576807171106339,-9.828198432922363,1.3335703611373901,-0.02369011752307415,-0.0039927163161337376,-0.0010647244052961469
18212729992537,-0.11971008777618408,-9.882067680358887,1.3646949529647827,-0.0244886614382267,-0.0007985432748682797,-0.005589802749454975
18212731230050,-0.08379705995321274,-9.883264541625977,1.3646949529647827,-0.0271504707634449,-0.0005323622026480734,-0.0071868896484375
18212732467600,-0.090979665517807,-9.837775230407715,1.380257248878479,-0.0322079136967659,-0.0007985432748682797,-0.0005323622026480734
18212733705137,-0.10055647045373917,-9.877279281616211,1.3395558595657349,-0.0377977155148983,-0.0005323622026480734,-0.0013309054775163531
18212734942687,-0.11851298809051514,-9.874884605407715,1.3527239561080933,-0.0316755510866642,-0.0037265352439135313,-0.006122165359556675
18212736180212,-0.09457096457481384,-9.84615421295166,1.3611036539077759,-0.02848137728869915,-0.0005323622026480734,-0.0026618109550327063
18212737417762,-0.07661445438861847,-9.817423820495605,1.357512354850769,-0.0306108258664608,-0.0042588976211845875,-0.0031941730994731188
18212738655300,-0.0933738648891449,-9.849745750427246,1.3479355573654175,-0.033272635191679,-0.0015970865497365594,-0.0039927163161337376
18212739892837,-0.07422025501728058,-9.828198432922363,1.3539210557937622,-0.0348697230219841,0.0002661811013240367,-0.0005323622026480734
18212741130387,-0.13527239859104156,-9.797073364257812,1.3407529592514038,-0.0295461006462574,-0.0018632676219567657,0.0
18212742367925,-0.07661445438861847,-9.831789016723633,1.3251906633377075,-0.0362006276845932,0.0029279920272529125,-0.0002661811013240367
18212743605462,-0.08619125932455063,-9.830592155456543,1.3503297567367554,-0.0346035435795784,0.0071868896484375,-0.0005323622026480734
18212744843025,-0.0802057608962059,-9.793481826782227,1.3227964639663696,-0.0314093679189682,-0.0007985432748682797,-0.0002661811013240367
18212746080562,-0.09457096457481384,-9.80904483795166,1.3096283674240112,-0.02555338479578495,0.0002661811013240367,0.006122165359556675
18212747318112,-0.08858546614646912,-9.793481826782227,1.3634978532791138,-0.03034464456140995,0.0018632676219567657,-0.0010647244052961469
18212748555637,-0.10773907601833344,-9.807847023010254,1.3275848627090454,-0.0340711809694767,-0.0031941730994731188,-0.0002661811013240367
18212749793175,-0.09217676520347595,-9.795876502990723,1.3467384576797485,-0.0311431884765625,-0.0013309054775163531,-0.0015970865497365594
18212751030725,-0.11851298809051514,-9.783905029296875,1.3263877630233765,-0.033272635191679,0.0042588976211845875,-0.0026618109550327063
18212752268275,-0.09457096457481384,-9.795876502990723,1.3515268564224243,-0.0306108258664608,0.0021294488105922937,0.0013309054775163531
18212753505800,-0.0802057608962059,-9.81143856048584,1.3287819623947144,-0.0300784632563591,-0.0031941730994731188,0.003460354171693325
18212754743362,-0.08978256583213806,-9.787496566772461,1.3443442583084106,-0.0314093679189682,0.0023956298828125,-0.0007985432748682797
18212755980887,-0.08140286058187485,-9.824606895446777,1.338358759880066,-0.0300784632563591,0.0002661811013240367,0.010913425125181675
18212757218437,-0.12330138683319092,-9.799468040466309,1.3084312677383423,-0.0311431884765625,0.0007985432748682797,0.0066545275039970875
18212758455962,-0.10175357013940811,-9.799468040466309,1.337161660194397,-0.0316755510866642,-0.0013309054775163531,0.008251613937318325
18212759693512,-0.07900865375995636,-9.795876502990723,1.2832921743392944,-0.03034464456140995,-0.004791259765625,0.006122165359556675
18212760931075,-0.0694318488240242,-9.77552604675293,1.315613865852356,-0.0276828333735466,-0.00692070834338665,0.010647243820130825
18212762168587,-0.05267243832349777,-9.785102844238281,1.3108254671096802,-0.02608574740588665,0.0,0.0071868896484375
18212763406137,-0.0802057608962059,-9.793481826782227,1.337161660194397,-0.0300784632563591,0.0018632676219567657,0.008783976547420025
18212764643662,-0.08259996026754379,-9.819818496704102,1.3275848627090454,-0.0346035435795784,0.00452507846057415,0.01224433071911335
18212765881237,-0.1041477769613266,-9.720458984375,1.3036428689956665,-0.0330064557492733,0.0005323622026480734,0.005855984054505825
18212767118775,-0.1041477769613266,-9.765949249267578,1.3120225667953491,-0.02901373989880085,0.003460354171693325,0.00452507846057415
18212768356300,-0.08619125932455063,-9.758766174316406,1.3395558595657349,-0.02981228195130825,-0.0021294488105922937,0.0138414166867733
18212769593862,-0.061052143573760986,-9.716867446899414,1.3012486696243286,-0.0263519287109375,-0.0015970865497365594,0.01650322787463665
18212770831400,-0.07900865375995636,-9.761160850524902,1.2868834733963013,-0.02848137728869915,0.005589802749454975,0.0042588976211845875
18212772068950,-0.06464345008134842,-9.764751434326172,1.3527239561080933,-0.0295461006462574,-0.0007985432748682797,0.008783976547420025
18212773306487,-0.09696517139673233,-9.765949249267578,1.3407529592514038,-0.0314093679189682,-0.0029279920272529125,0.0138414166867733
18212774544025,-0.09816227108240128,-9.791088104248047,1.2964602708816528,-0.0300784632563591,0.0010647244052961469,0.01756795309484005
18212775781575,-0.10175357013940811,-9.771934509277344,1.2952631711959839,-0.03034464456140995,0.0,0.013309055007994175
18212777019100,-0.10175357013940811,-9.75397777557373,1.3263877630233765,-0.02981228195130825,0.0,0.015438503585755825
18212778256662,-0.10055647045373917,-9.738415718078613,1.3084312677383423,-0.02608574740588665,-0.0013309054775163531,0.015172322280704975
18212779494187,-0.10055647045373917,-9.77672290802002,1.3227964639663696,-0.02608574740588665,0.0026618109550327063,0.013309055007994175
18212780731712,-0.10295067727565765,-9.77791976928711,1.3263877630233765,-0.02981228195130825,0.0037265352439135313,0.008517795242369175
18212781969275,-0.07422025501728058,-9.774328231811523,1.3036428689956665,-0.0306108258664608,0.0015970865497365594,0.007985432632267475
18212783206837,-0.07781155407428741,-9.77672290802002,1.2868834733963013,-0.0322079136967659,0.0010647244052961469,0.013309055007994175
18212784444362,-0.08259996026754379,-9.813833236694336,1.2485761642456055,-0.033272635191679,0.0007985432748682797,0.01463996060192585
18212785681912,-0.1149216815829277,-9.805453300476074,1.3024457693099976,-0.03034464456140995,0.0005323622026480734,0.014906140975654125
18212786919437,-0.10055647045373917,-9.798270225524902,1.2892776727676392,-0.0316755510866642,-0.0015970865497365594,0.0119781494140625
18212788156987,-0.10175357013940811,-9.804256439208984,1.2665326595306396,-0.02794901467859745,0.0029279920272529125,0.0119781494140625
18212789394537,-0.1256955862045288,-9.798270225524902,1.3072341680526733,-0.02502102218568325,0.0018632676219567657,0.01463996060192585
18212790632087,-0.08738835901021957,-9.827000617980957,1.3012486696243286,-0.02901373989880085,0.0039927163161337376,0.0157046839594841
18212791869612,-0.11971008777618408,-9.817423820495605,1.258152961730957,-0.0311431884765625,0.005057440605014563,0.014906140975654125
18212793107162,-0.10055647045373917,-9.799468040466309,1.3204022645950317,-0.0367329902946949,0.0037265352439135313,0.005855984054505825
18212794344712,-0.1149216815829277,-9.81263542175293,1.3239935636520386,-0.0311431884765625,0.003460354171693325,0.010913425125181675
18212795582237,-0.11851298809051514,-9.774328231811523,1.3024457693099976,-0.0282151959836483,0.0039927163161337376,0.012510511092841625
18212796819787,-0.09935937076807022,-9.840168952941895,1.2737152576446533,-0.0354020856320858,0.0039927163161337376,0.01224433071911335
18212798057350,-0.13766659796237946,-9.81263542175293,1.259350061416626,-0.0327402763068676,0.0015970865497365594,0.01783413253724575
18212799294875,-0.14006079733371735,-9.841365814208984,1.3084312677383423,-0.02981228195130825,0.0031941730994731188,0.010114881210029125
18212800532425,-0.16639702022075653,-9.836577415466309,1.337161660194397,-0.02848137728869915,0.0077192517928779125,0.0090501569211483
18212801769950,-0.11013327538967133,-9.827000617980957,1.291671872138977,-0.0268842913210392,0.0005323622026480734,0.013042873702943325
18212803007487,-0.13407529890537262,-9.825803756713867,1.2844892740249634,-0.0319417305290699,0.0018632676219567657,0.01463996060192585
18212804245050,-0.13766659796237946,-9.817423820495605,1.2797008752822876,-0.0354020856320858,0.0002661811013240367,0.012776692397892475
18212805482587,-0.16759411990642548,-9.817423820495605,1.2856863737106323,-0.0346035435795784,0.0005323622026480734,0.014373779296875
18212806720137,-0.10295067727565765,-9.84376049041748,1.2976573705673218,-0.0367329902946949,0.0066545275039970875,0.00984870083630085
18212807957662,-0.1149216815829277,-9.817423820495605,1.3072341680526733,-0.0346035435795784,0.006122165359556675,0.012776692397892475
18212809195212,-0.1628057211637497,-9.835380554199219,1.2976573705673218,-0.0340711809694767,0.004791259765625,0.01117960549890995
18212810432750,-0.16160862147808075,-9.882067680358887,1.2737152576446533,-0.033272635191679,0.010647243820130825,0.00984870083630085
18212811670287,-0.10295067727565765,-9.837775230407715,1.238999366760254,-0.0388624407351017,0.008517795242369175,0.01224433071911335
18212812907837,-0.14245499670505524,-9.821015357971191,1.259350061416626,-0.0385962575674057,0.008517795242369175,0.007453070487827063
18212814145375,-0.14006079733371735,-9.86650562286377,1.2437877655029297,-0.0407257080078125,0.008251613937318325,0.0071868896484375
18212815382937,-0.14245499670505524,-9.862914085388184,1.2617442607879639,-0.0457831472158432,0.004791259765625,0.007453070487827063
18212816620475,-0.15322890877723694,-9.836577415466309,1.259350061416626,-0.0404595248401165,0.012510511092841625,0.010114881210029125
18212817858025,-0.15801730751991272,-9.836577415466309,1.2318167686462402,-0.0375315360724926,0.006122165359556675,0.010647243820130825
18212819095562,-0.09217676520347595,-9.829395294189453,1.2545616626739502,-0.0375315360724926,0.00452507846057415,0.010647243820130825
18212820333100,-0.11133038252592087,-9.873687744140625,1.2665326595306396,-0.038063894957304,0.012510511092841625,0.010114881210029125
18212821570650,-0.12689268589019775,-9.837775230407715,1.2557587623596191,-0.0399271659553051,0.00931633822619915,0.01357523538172245
18212822808187,-0.15562310814857483,-9.84615421295166,1.2689268589019775,-0.0433875173330307,0.00984870083630085,0.01357523538172245
18212824045725,-0.13407529890537262,-9.884461402893066,1.2461819648742676,-0.0439198799431324,0.013309055007994175,0.010114881210029125
18212825283262,-0.14245499670505524,-9.829395294189453,1.2449848651885986,-0.0449846051633358,0.01117960549890995,0.010114881210029125
18212826520812,-0.12689268589019775,-9.850942611694336,1.2473790645599365,-0.0420566126704216,0.0077192517928779125,0.010381062515079975
18212827758350,-0.14365209639072418,-9.803058624267578,1.237802267074585,-0.0412580706179142,0.0077192517928779125,0.014906140975654125
18212828995900,-0.14844051003456116,-9.792284965515137,1.2521674633026123,-0.0436537005007267,0.0077192517928779125,0.01756795309484005
18212830233425,-0.15442600846290588,-9.792284965515137,1.2210428714752197,-0.0449846051633358,0.007985432632267475,0.014373779296875
18212831470975,-0.1364694982767105,-9.835380554199219,1.2844892740249634,-0.0463155098259449,0.0114457868039608,0.0071868896484375
18212832708525,-0.1496376097202301,-9.835380554199219,1.2485761642456055,-0.0460493303835392,0.0077192517928779125,0.0090501569211483
18212833946062,-0.13168109953403473,-9.847352027893066,1.2868834733963013,-0.0396609827876091,0.00958251953125,0.0162370465695858
18212835183612,-0.16639702022075653,-9.794679641723633,1.260547161102295,-0.0465816929936409,0.010114881210029125,0.010913425125181675
18212836421150,-0.14604631066322327,-9.795876502990723,1.238999366760254,-0.0444522425532341,0.0063883461989462376,0.00958251953125
18212837658687,-0.14604631066322327,-9.794679641723633,1.2713210582733154,-0.0425889752805233,0.00452507846057415,0.0077192517928779125
18212838896250,-0.13527239859104156,-9.817423820495605,1.2473790645599365,-0.0495096817612648,0.01117960549890995,0.010114881210029125
18212840133787,-0.16160862147808075,-9.841365814208984,1.2629413604736328,-0.0465816929936409,0.010913425125181675,0.0077192517928779125
18212841371312,-0.15442600846290588,-9.807847023010254,1.2701239585876465,-0.0412580706179142,0.010381062515079975,0.01171196810901165
18212842608875,-0.1628057211637497,-9.84376049041748,1.2449848651885986,-0.0487111397087574,0.0138414166867733,0.014373779296875
18212843846412,-0.13527239859104156,-9.816226959228516,1.2270283699035645,-0.0487111397087574,0.0090501569211483,0.00958251953125
18212845083950,-0.1496376097202301,-9.831789016723633,1.2270283699035645,-0.0495096817612648,0.014373779296875,0.010114881210029125
18212846321500,-0.18315643072128296,-9.859322547912598,1.194706678390503,-0.0473802350461483,0.013042873702943325,0.012510511092841625
18212847559025,-0.1628057211637497,-9.825803756713867,1.2497732639312744,-0.0447184219956398,0.00984870083630085,0.010647243820130825
18212848796587,-0.1735796183347702,-9.818621635437012,1.2114660739898682,-0.0516391322016716,0.014906140975654125,0.0090501569211483
18212850034125,-0.1867477297782898,-9.823410034179688,1.2844892740249634,-0.047646414488554,0.01117960549890995,0.010647243820130825
18212851271675,-0.15921440720558167,-9.781511306762695,1.2641384601593018,-0.0473802350461483,0.010114881210029125,0.008251613937318325
18212852509200,-0.16879121959209442,-9.804256439208984,1.2090718746185303,-0.0489773228764534,0.013309055007994175,0.008251613937318325
18212853746750,-0.13048399984836578,-9.825803756713867,1.216254472732544,-0.0535023994743824,0.0181003138422966,0.0090501569211483
18212854984300,-0.152031809091568,-9.849745750427246,1.2186486721038818,-0.0543009415268898,0.0119781494140625,0.008251613937318325
18212856221837,-0.1412578970193863,-9.822212219238281,1.216254472732544,-0.0548333041369915,0.0077192517928779125,0.00984870083630085
18212857459362,-0.16879121959209442,-9.799468040466309,1.237802267074585,-0.0511067695915699,0.008251613937318325,0.0071868896484375
18212858696925,-0.19273324310779572,-9.813833236694336,1.215057373046875,-0.0500420443713665,0.01410759799182415,0.0029279920272529125
18212859934475,-0.12210428714752197,-9.816226959228516,1.193509578704834,-0.0535023994743824,0.0138414166867733,0.0
18212861172012,-0.11851298809051514,-9.78869342803955,1.1851298809051514,-0.0529700368642807,0.013309055007994175,-0.0015970865497365594
18212862409550,-0.11851298809051514,-9.783905029296875,1.2449848651885986,-0.0516391322016716,0.01836649514734745,0.005057440605014563
18212863647087,-0.1496376097202301,-9.77672290802002,1.1959037780761719,-0.0548333041369915,0.0204959437251091,0.0018632676219567657
18212864884625,-0.15322890877723694,-9.747992515563965,1.191115379333496,-0.0521714948117733,0.015172322280704975,-0.0002661811013240367
18212866122175,-0.18076223134994507,-9.799468040466309,1.2234370708465576,-0.0537685826420784,0.01463996060192585,0.0029279920272529125
18212867359725,-0.19033904373645782,-9.750386238098145,1.1982979774475098,-0.0569627545773983,0.0186326764523983,0.0042588976211845875
18212868597262,-0.18555063009262085,-9.763554573059082,1.215057373046875,-0.0550994873046875,0.01463996060192585,-0.0007985432748682797
18212869834800,-0.17956513166427612,-9.750386238098145,1.1839327812194824,-0.0556318499147892,0.012776692397892475,-0.005589802749454975
18212871072350,-0.14844051003456116,-9.768342971801758,1.1875240802764893,-0.0500420443713665,0.01597086526453495,-0.0023956298828125
18212872309900,-0.17956513166427612,-9.745597839355469,1.1971008777618408,-0.0505744069814682,0.0162370465695858,-0.0018632676219567657
18212873547425,-0.20709845423698425,-9.795876502990723,1.2342109680175781,-0.052437674254179,0.01943122036755085,-0.0018632676219567657
18212874784975,-0.181959331035614,-9.7420072555542,1.2066776752471924,-0.0529700368642807,0.01410759799182415,-0.0029279920272529125
18212876022525,-0.15322890877723694,-9.745597839355469,1.194706678390503,-0.0519053116440773,0.0181003138422966,0.0018632676219567657
18212877260075,-0.13287819921970367,-9.765949249267578,1.171961784362793,-0.0550994873046875,0.02022976242005825,-0.0007985432748682797
18212878497612,-0.15083470940589905,-9.804256439208984,1.1982979774475098,-0.0519053116440773,0.0268842913210392,-0.0053236219100654125
18212879735137,-0.14484921097755432,-9.780314445495605,1.2054805755615234,-0.0532362200319767,0.01996358297765255,-0.0037265352439135313
18212880972700,-0.14006079733371735,-9.769539833068848,1.194706678390503,-0.052437674254179,0.01783413253724575,-0.0066545275039970875
18212882210250,-0.1256955862045288,-9.733627319335938,1.1623849868774414,-0.0497758649289608,0.0173017717897892,-0.008251613937318325
18212883447775,-0.1364694982767105,-9.783905029296875,1.1887211799621582,-0.0457831472158432,0.01650322787463665,-0.010114881210029125
18212884685300,-0.12090718746185303,-9.716867446899414,1.1647791862487793,-0.0503082275390625,0.02262539230287075,-0.0071868896484375
18212885922862,-0.13407529890537262,-9.71926212310791,1.1743559837341309,-0.0519053116440773,0.02022976242005825,-0.0071868896484375
18212887160387,-0.15322890877723694,-9.737218856811523,1.2066776752471924,-0.0484449602663517,0.0167694091796875,-0.0037265352439135313
18212888397950,-0.1951274424791336,-9.733627319335938,1.1863269805908203,-0.0441860631108284,0.015172322280704975,-0.00692070834338665
18212889635487,-0.12449848651885986,-9.726444244384766,1.1767501831054688,-0.0420566126704216,0.02022976242005825,-0.006122165359556675
18212890873037,-0.152031809091568,-9.716867446899414,1.1599907875061035,-0.0423227921128273,0.0173017717897892,-0.010913425125181675
18212892110587,-0.15682020783424377,-9.700108528137207,1.1552022695541382,-0.0457831472158432,0.01996358297765255,-0.0138414166867733
18212893348112,-0.13527239859104156,-9.736021041870117,1.1971008777618408,-0.0495096817612648,0.0228915736079216,-0.013042873702943325
18212894585662,-0.10893617570400238,-9.725247383117676,1.1599907875061035,-0.0396609827876091,0.02076212503015995,-0.0119781494140625
18212895823187,-0.1496376097202301,-9.68813705444336,1.1204863786697388,-0.0372653529047966,0.0234239362180233,-0.01357523538172245
18212897060750,-0.13527239859104156,-9.712079048156738,1.170764684677124,-0.0409918874502182,0.02262539230287075,-0.007453070487827063
18212898298275,-0.15801730751991272,-9.716867446899414,1.092953085899353,-0.043121337890625,0.0252872034907341,-0.0090501569211483
18212899535825,-0.15083470940589905,-9.71926212310791,1.1180921792984009,-0.0396609827876091,0.02502102218568325,-0.0119781494140625
18212900773387,-0.13407529890537262,-9.703699111938477,1.1049240827560425,-0.0362006276845932,0.02262539230287075,-0.0138414166867733
18212902010912,-0.10175357013940811,-9.695320129394531,1.1456254720687866,-0.0340711809694767,0.0157046839594841,-0.01889885775744915
18212903248462,-0.13287819921970367,-9.670180320739746,1.171961784362793,-0.0354020856320858,0.01357523538172245,-0.01703559048473835
18212904486000,-0.13527239859104156,-9.694122314453125,1.1599907875061035,-0.0375315360724926,0.0191650390625,-0.015172322280704975
18212905723537,-0.1364694982767105,-9.68933391571045,1.1587936878204346,-0.0316755510866642,0.023956298828125,-0.0181003138422966
18212906961100,-0.18794482946395874,-9.646238327026367,1.2114660739898682,-0.0348697230219841,0.0263519287109375,-0.02076212503015995
18212908198625,-0.1628057211637497,-9.697713851928711,1.1635820865631104,-0.0319417305290699,0.02369011752307415,-0.0247548408806324
18212909436175,-0.16639702022075653,-9.676166534423828,1.169567584991455,-0.02981228195130825,0.0247548408806324,-0.02076212503015995
18212910673700,-0.17717093229293823,-9.6989107131958,1.1575965881347656,-0.0300784632563591,0.02369011752307415,-0.0210283063352108
18212911911250,-0.1412578970193863,-9.724050521850586,1.139639973640442,-0.0252872034907341,0.0228915736079216,-0.015438503585755825
18212913148812,-0.10773907601833344,-9.678560256958008,1.1240776777267456,-0.02315775491297245,0.02502102218568325,-0.0234239362180233
18212914386362,-0.1364694982767105,-9.697713851928711,1.194706678390503,-0.0252872034907341,0.02129448764026165,-0.0234239362180233
18212915623900,-0.14006079733371735,-9.72285270690918,1.1863269805908203,-0.0223592109978199,0.02555338479578495,-0.01996358297765255
18212916861437,-0.11611878126859665,-9.72165584564209,1.191115379333496,-0.02182685025036335,0.02608574740588665,-0.01943122036755085
18212918098987,-0.1173158809542656,-9.727641105651855,1.1755530834197998,-0.0220930315554142,0.02502102218568325,-0.0292799212038517
18212919336525,-0.11971008777618408,-9.7420072555542,1.1767501831054688,-0.02076212503015995,0.0271504707634449,-0.0306108258664608
18212920574062,-0.1149216815829277,-9.691728591918945,1.173158884048462,-0.0186326764523983,0.03034464456140995,-0.0311431884765625
18212921811612,-0.1472434103488922,-9.709685325622559,1.170764684677124,-0.0162370465695858,0.0292799212038517,-0.02661811001598835
18212923049150,-0.11372458189725876,-9.692925453186035,1.1671733856201172,-0.01996358297765255,0.0295461006462574,-0.02608574740588665
18212924286687,-0.13407529890537262,-9.736021041870117,1.1240776777267456,-0.014373779296875,0.0306108258664608,-0.02741665206849575
18212925524225,-0.10773907601833344,-9.765949249267578,1.173158884048462,-0.0138414166867733,0.033538818359375,-0.0364668108522892
18212926761775,-0.11133038252592087,-9.740809440612793,1.1659762859344482,-0.0181003138422966,0.0276828333735466,-0.0300784632563591
18212927999312,-0.13527239859104156,-9.744400978088379,1.194706678390503,-0.014373779296875,0.0306108258664608,-0.02608574740588665
18212929236900,-0.12210428714752197,-9.781511306762695,1.1611878871917725,-0.010913425125181675,0.0322079136967659,-0.02981228195130825
18212930474412,-0.12689268589019775,-9.774328231811523,1.1480196714401245,-0.00984870083630085,0.0311431884765625,-0.033538818359375
18212931711950,-0.12210428714752197,-9.761160850524902,1.1623849868774414,-0.010114881210029125,0.0314093679189682,-0.0314093679189682
18212932949500,-0.10534487664699554,-9.780314445495605,1.2018892765045166,-0.008251613937318325,0.0300784632563591,-0.0295461006462574
18212934187050,-0.1280897855758667,-9.736021041870117,1.1599907875061035,-0.01171196810901165,0.0295461006462574,-0.02874755859375
18212935424575,-0.13168109953403473,-9.734824180603027,1.1611878871917725,-0.007985432632267475,0.03034464456140995,-0.0351359061896801
18212936662137,-0.10773907601833344,-9.77552604675293,1.217451572418213,-0.0071868896484375,0.0338049978017807,-0.0369991734623909
18212937899675,-0.10055647045373917,-9.75397777557373,1.169567584991455,-0.0053236219100654125,0.0346035435795784,-0.033538818359375
18212939137200,-0.1280897855758667,-9.768342971801758,1.173158884048462,-0.0021294488105922937,0.0330064557492733,-0.033538818359375
18212940374750,-0.10055647045373917,-9.782708168029785,1.170764684677124,0.0005323622026480734,0.0319417305290699,-0.0322079136967659
18212941612287,-0.09696517139673233,-9.774328231811523,1.1647791862487793,-0.005057440605014563,0.0343373604118824,-0.0343373604118824
18212942849825,-0.090979665517807,-9.832986831665039,1.1659762859344482,-0.00452507846057415,0.0343373604118824,-0.033272635191679
18212944087375,-0.1412578970193863,-9.801861763000488,1.1492167711257935,-0.0015970865497365594,0.0338049978017807,-0.0348697230219841
18212945324925,-0.07541735470294952,-9.803058624267578,1.1504138708114624,0.0007985432748682797,0.033538818359375,-0.0385962575674057
18212946562462,-0.11133038252592087,-9.771934509277344,1.138442873954773,0.0013309054775163531,0.0316755510866642,-0.0343373604118824
18212947800000,-0.09217676520347595,-9.764751434326172,1.169567584991455,0.006122165359556675,0.0311431884765625,-0.0319417305290699
18212949037575,-0.1149216815829277,-9.761160850524902,1.1671733856201172,0.0037265352439135313,0.0377977155148983,-0.0324740931391716
18212950275087,-0.07062894850969315,-9.773131370544434,1.1611878871917725,0.005589802749454975,0.0377977155148983,-0.0314093679189682
18212951512625,-0.07541735470294952,-9.781511306762695,1.191115379333496,0.00452507846057415,0.0375315360724926,-0.0322079136967659
18212952750187,-0.1041477769613266,-9.81263542175293,1.1599907875061035,-0.0026618109550327063,0.0343373604118824,-0.0385962575674057
18212953987725,-0.08858546614646912,-9.787496566772461,1.1575965881347656,0.0037265352439135313,0.033538818359375,-0.0396609827876091
18212955225275,-0.10295067727565765,-9.791088104248047,1.113303780555725,0.0063883461989462376,0.0375315360724926,-0.0377977155148983
18212956462800,-0.09457096457481384,-9.827000617980957,1.1803414821624756,0.0042588976211845875,0.0377977155148983,-0.0377977155148983
18212957700350,-0.11611878126859665,-9.81024169921875,1.1803414821624756,0.0026618109550327063,0.0340711809694767,-0.0388624407351017
18212958937900,-0.03711012750864029,-9.805453300476074,1.115697979927063,0.0018632676219567657,0.0388624407351017,-0.0377977155148983
18212960175425,-0.08140286058187485,-9.818621635437012,1.1982979774475098,0.003460354171693325,0.0356682650744915,-0.0375315360724926
18212961412975,-0.08499415963888168,-9.824606895446777,1.1623849868774414,0.0071868896484375,0.0391286201775074,-0.0362006276845932
18212962650525,-0.0694318488240242,-9.81263542175293,1.1659762859344482,0.003460354171693325,0.0444522425532341,-0.0404595248401165
18212963888075,-0.12330138683319092,-9.807847023010254,1.1504138708114624,0.0053236219100654125,0.0369991734623909,-0.0362006276845932
18212965125600,-0.09217676520347595,-9.837775230407715,1.1683704853057861,0.003460354171693325,0.0391286201775074,-0.0372653529047966
18212966363137,-0.09576807171106339,-9.816226959228516,1.192312479019165,0.0005323622026480734,0.0399271659553051,-0.0369991734623909
18212967600700,-0.08978256583213806,-9.825803756713867,1.2078747749328613,0.005057440605014563,0.0391286201775074,-0.0388624407351017
18212968838250,-0.09696517139673233,-9.797073364257812,1.1767501831054688,0.0026618109550327063,0.0372653529047966,-0.0343373604118824
18212970075775,-0.0933738648891449,-9.841365814208984,1.1599907875061035,0.0031941730994731188,0.0375315360724926,-0.0338049978017807
18212971313350,-0.08140286058187485,-9.804256439208984,1.1563994884490967,0.0031941730994731188,0.0348697230219841,-0.0385962575674057
18212972550862,-0.11013327538967133,-9.86650562286377,1.170764684677124,-0.0002661811013240367,0.0425889752805233,-0.038330078125
18212973788412,-0.07062894850969315,-9.81024169921875,1.2042834758758545,-0.0005323622026480734,0.0385962575674057,-0.0340711809694767
18212975025950,-0.08259996026754379,-9.832986831665039,1.1516109704971313,0.0002661811013240367,0.0401933453977108,-0.038063894957304
18212976263512,-0.043095629662275314,-9.84495735168457,1.1863269805908203,0.006122165359556675,0.043121337890625,-0.0311431884765625
18212977501050,-0.06344634294509888,-9.837775230407715,1.1683704853057861,0.0018632676219567657,0.0391286201775074,-0.0324740931391716
18212978738600,-0.05985504388809204,-9.813833236694336,1.1432312726974487,-0.0005323622026480734,0.0372653529047966,-0.0364668108522892
18212979976112,-0.05506663769483566,-9.835380554199219,1.194706678390503,-0.0013309054775163531,0.0348697230219841,-0.0322079136967659
18212981213662,0.004788403399288654,-9.817423820495605,1.1815385818481445,0.0005323622026480734,0.0388624407351017,-0.0351359061896801
18212982451200,-0.10175357013940811,-9.871294021606445,1.1348515748977661,-0.0015970865497365594,0.0407257080078125,-0.0346035435795784
18212983688775,-0.0586579404771328,-9.837775230407715,1.1659762859344482,-0.0037265352439135313,0.0385962575674057,-0.0322079136967659
18212984926287,-0.05147533863782883,-9.860519409179688,1.1743559837341309,-0.0021294488105922937,0.033272635191679,-0.0271504707634449
18212986163837,-0.04908113554120064,-9.84495735168457,1.1504138708114624,-0.0037265352439135313,0.0359344482421875,-0.02794901467859745
18212987401387,-0.061052143573760986,-9.856928825378418,1.1408370733261108,-0.003460354171693325,0.0425889752805233,-0.03034464456140995
18212988638925,-0.0454898327589035,-9.872490882873535,1.1300631761550903,-0.0021294488105922937,0.038063894957304,-0.02369011752307415
18212989876462,-0.05626374110579491,-9.90241813659668,1.1097124814987183,-0.0031941730994731188,0.0364668108522892,-0.02315775491297245
18212991114025,-0.03232172504067421,-9.876082420349121,1.1528080701828003,-0.005057440605014563,0.0375315360724926,-0.02315775491297245
18212992351550,-0.033518824726343155,-9.824606895446777,1.1336544752120972,-0.0021294488105922937,0.0359344482421875,-0.02901373989880085
18212993589075,-0.02992752194404602,-9.84615421295166,1.1563994884490967,-0.006122165359556675,0.0356682650744915,-0.0220930315554142
18212994826637,-0.033518824726343155,-9.86650562286377,1.1097124814987183,-0.0053236219100654125,0.038063894957304,-0.02076212503015995
18212996064187,-0.04908113554120064,-9.834183692932129,1.1659762859344482,-0.0029279920272529125,0.0404595248401165,-0.023956298828125
18212997301725,-0.05506663769483566,-9.829395294189453,1.1994950771331787,-0.004791259765625,0.0367329902946949,-0.02502102218568325
18212998539287,-0.02513911761343479,-9.86889934539795,1.1779472827911377,-0.0066545275039970875,0.0356682650744915,-0.0223592109978199
18212999776812,0.019153613597154617,-9.859322547912598,1.1408370733261108,-0.0063883461989462376,0.0388624407351017,-0.01996358297765255
18213001014337,-0.0011971008498221636,-9.825803756713867,1.1839327812194824,-0.007453070487827063,0.0401933453977108,-0.0173017717897892
18213002251912,-0.05147533863782883,-9.847352027893066,1.137245774269104,-0.007985432632267475,0.0377977155148983,-0.01224433071911335
18213003489437,-0.0071826050989329815,-9.8784761428833,1.1575965881347656,-0.01117960549890995,0.0391286201775074,-0.015172322280704975
18213004727000,-0.04788403585553169,-9.830592155456543,1.1432312726974487,-0.00931633822619915,0.0330064557492733,-0.01410759799182415
18213005964525,-0.011971008963882923,-9.873687744140625,1.1192892789840698,-0.0119781494140625,0.0316755510866642,-0.015438503585755825
18213007202075,-0.023942017927765846,-9.84256362915039,1.1300631761550903,-0.01224433071911335,0.0377977155148983,-0.0119781494140625
18213008439625,-0.017956512048840523,-9.861717224121094,1.171961784362793,-0.015438503585755825,0.0327402763068676,-0.008783976547420025
18213009677150,0.004788403399288654,-9.840168952941895,1.1528080701828003,-0.01703559048473835,0.0322079136967659,-0.012776692397892475
18213010914700,-0.026336219161748886,-9.848548889160156,1.1575965881347656,-0.01836649514734745,0.0375315360724926,-0.014373779296875
18213012152237,-0.020350715145468712,-9.892841339111328,1.1049240827560425,-0.01650322787463665,0.0322079136967659,-0.0173017717897892
18213013389787,0.016759412363171577,-9.836577415466309,1.137245774269104,-0.01650322787463665,0.0300784632563591,-0.0167694091796875
18213014627337,-0.038307227194309235,-9.827000617980957,1.138442873954773,-0.0157046839594841,0.02848137728869915,-0.010647243820130825
18213015864862,-0.023942017927765846,-9.854534149169922,1.1180921792984009,-0.0167694091796875,0.0263519287109375,-0.0157046839594841
18213017102412,0.0059855044819414616,-9.855731010437012,1.1623849868774414,-0.01597086526453495,0.0316755510866642,-0.015438503585755825
18213018339962,-0.0059855044819414616,-9.795876502990723,1.1480196714401245,-0.0157046839594841,0.0340711809694767,-0.015172322280704975
18213019577500,-0.02992752194404602,-9.830592155456543,1.1264718770980835,-0.01357523538172245,0.0295461006462574,-0.008251613937318325
18213020815037,-0.019153613597154617,-9.769539833068848,1.116895079612732,-0.01783413253724575,0.02901373989880085,-0.00958251953125
18213022052600,0.004788403399288654,-9.81024169921875,1.1061211824417114,-0.0162370465695858,0.0316755510866642,-0.010114881210029125
18213023290137,-0.002394201699644327,-9.803058624267578,1.1623849868774414,-0.01836649514734745,0.033272635191679,-0.015438503585755825
18213024527662,-0.011971008963882923,-9.803058624267578,1.1552022695541382,-0.0228915736079216,0.0295461006462574,-0.0162370465695858
18213025765225,-0.0035913025494664907,-9.804256439208984,1.1587936878204346,-0.0196974016726017,0.02981228195130825,-0.01357523538172245
18213027002787,0.035913024097681046,-9.774328231811523,1.1683704853057861,-0.0186326764523983,0.0276828333735466,-0.014373779296875
18213028240300,0.004788403399288654,-9.764751434326172,1.1563994884490967,-0.01224433071911335,0.023956298828125,-0.01357523538172245
18213029477850,0.011971008963882923,-9.789891242980957,1.1528080701828003,-0.01597086526453495,0.02555338479578495,-0.015172322280704975
18213030715425,0.0059855044819414616,-9.77552604675293,1.1504138708114624,-0.01996358297765255,0.02794901467859745,-0.01357523538172245
18213031952937,0.031124621629714966,-9.795876502990723,1.1563994884490967,-0.0173017717897892,0.03034464456140995,-0.012776692397892475
18213033190500,-0.002394201699644327,-9.763554573059082,1.1252747774124146,-0.02129448764026165,0.0268842913210392,-0.0138414166867733
18213034428025,-0.013168109580874443,-9.769539833068848,1.2006921768188477,-0.0196974016726017,0.0223592109978199,-0.013042873702943325
18213035665575,0.015562310814857483,-9.77791976928711,1.1755530834197998,-0.0162370465695858,0.02741665206849575,-0.015438503585755825
18213036903112,0.0071826050989329815,-9.72285270690918,1.1456254720687866,-0.012776692397892475,0.02848137728869915,-0.013309055007994175
18213038140662,0.017956512048840523,-9.763554573059082,1.1504138708114624,-0.014373779296875,0.0234239362180233,-0.01597086526453495
18213039378200,0.04668693244457245,-9.728838920593262,1.1575965881347656,-0.0157046839594841,0.02608574740588665,-0.01783413253724575
18213040615750,0.010773907415568829,-9.756372451782227,1.1252747774124146,-0.014373779296875,0.02502102218568325,-0.01224433071911335
18213041853300,-0.016759412363171577,-9.732430458068848,1.1516109704971313,-0.01357523538172245,0.02608574740588665,-0.01224433071911335
18213043090825,0.013168109580874443,-9.72285270690918,1.1468225717544556,-0.012776692397892475,0.02555338479578495,-0.0114457868039608
18213044328375,-0.0011971008498221636,-9.733627319335938,1.1037269830703735,-0.008251613937318325,0.01836649514734745,-0.0090501569211483
18213045565925,-0.0071826050989329815,-9.712079048156738,1.1312602758407593,-0.010913425125181675,0.0228915736079216,-0.00984870083630085
18213046803462,0.026336219161748886,-9.712079048156738,1.1587936878204346,-0.00984870083630085,0.02262539230287075,-0.0119781494140625
18213048040987,-0.0454898327589035,-9.715670585632324,1.1779472827911377,-0.008783976547420025,0.02422248013317585,-0.0157046839594841
18213049278562,0.035913024097681046,-9.680954933166504,1.1623849868774414,-0.006122165359556675,0.02129448764026165,-0.014906140975654125
18213050516087,0.021547814831137657,-9.670180320739746,1.1504138708114624,-0.0063883461989462376,0.02022976242005825,-0.01171196810901165
18213051753637,0.033518824726343155,-9.637859344482422,1.1611878871917725,-0.00452507846057415,0.0173017717897892,-0.0138414166867733
18213052991187,0.035913024097681046,-9.66539192199707,1.139639973640442,0.0042588976211845875,0.0196974016726017,-0.008251613937318325
18213054228737,-0.0035913025494664907,-9.666589736938477,1.1348515748977661,-0.0007985432748682797,0.01943122036755085,-0.008783976547420025
18213055466262,0.02513911761343479,-9.678560256958008,1.173158884048462,-0.0002661811013240367,0.014906140975654125,-0.010647243820130825
18213056703812,-0.009576806798577309,-9.708487510681152,1.1480196714401245,-0.0007985432748682797,0.02022976242005825,-0.0114457868039608
18213057941362,0.009576806798577309,-9.658209800720215,1.1971008777618408,-0.0029279920272529125,0.0252872034907341,-0.015438503585755825
18213059178887,0.04429273307323456,-9.68933391571045,1.1683704853057861,0.006122165359556675,0.0157046839594841,-0.00984870083630085
18213060416450,0.020350715145468712,-9.673771858215332,1.1444283723831177,0.0063883461989462376,0.014373779296875,-0.005855984054505825
18213061653987,0.05267243832349777,-9.703699111938477,1.1863269805908203,0.0114457868039608,0.013042873702943325,-0.01463996060192585
18213062891550,0.03950432687997818,-9.682151794433594,1.170764684677124,0.010913425125181675,0.01410759799182415,-0.0090501569211483
18213064129075,-0.0011971008498221636,-9.68933391571045,1.1599907875061035,0.008251613937318325,0.01889885775744915,-0.0090501569211483
18213065366612,0.061052143573760986,-9.647436141967773,1.1204863786697388,0.013309055007994175,0.0191650390625,-0.007985432632267475
18213066604162,0.0059855044819414616,-9.678560256958008,1.116895079612732,0.01650322787463665,0.0173017717897892,-0.0029279920272529125
18213067841700,0.009576806798577309,-9.648633003234863,1.1516109704971313,0.012776692397892475,0.01410759799182415,-0.0029279920272529125
18213069079237,0.0,-9.639056205749512,1.1959037780761719,0.007985432632267475,0.01703559048473835,-0.006122165359556675
18213070316787,-0.011971008963882923,-9.68694019317627,1.1743559837341309,0.0167694091796875,0.01410759799182415,-0.0077192517928779125
18213071554337,0.0071826050989329815,-9.671378135681152,1.1073182821273804,0.0244886614382267,0.010647243820130825,-0.0042588976211845875
18213072791875,0.028730420395731926,-9.66539192199707,1.1552022695541382,0.0196974016726017,0.013309055007994175,-0.0037265352439135313
18213074029425,-0.033518824726343155,-9.649829864501953,1.138442873954773,0.0220930315554142,0.012510511092841625,-0.008251613937318325
18213075266962,0.0059855044819414616,-9.706093788146973,1.1468225717544556,0.02369011752307415,0.010381062515079975,-0.0042588976211845875
18213076504500,-0.0035913025494664907,-9.695320129394531,1.139639973640442,0.0258195661008358,0.008251613937318325,0.0
18213077742050,0.004788403399288654,-9.68574333190918,1.136048674583435,0.02262539230287075,0.010114881210029125,-0.005855984054505825
18213078979600,-0.043095629662275314,-9.697713851928711,1.1552022695541382,0.02502102218568325,0.008251613937318325,-0.005589802749454975
18213080217125,-0.0071826050989329815,-9.725247383117676,1.1540051698684692,0.02661811001598835,0.0157046839594841,-0.007453070487827063
18213081454675,-0.02513911761343479,-9.702502250671387,1.116895079612732,0.03087700717151165,0.013309055007994175,-0.0029279920272529125
18213082692225,0.004788403399288654,-9.71926212310791,1.1563994884490967,0.0311431884765625,0.010913425125181675,-0.0053236219100654125
18213083929775,-0.008379706181585789,-9.739612579345703,1.1528080701828003,0.0322079136967659,0.010647243820130825,-0.006122165359556675
18213085167312,0.0071826050989329815,-9.731232643127441,1.137245774269104,0.0340711809694767,0.010114881210029125,-0.0007985432748682797
18213086404862,0.02274491637945175,-9.787496566772461,1.1599907875061035,0.02794901467859745,0.014373779296875,-0.0018632676219567657
18213087642412,-0.004788403399288654,-9.771934509277344,1.1085153818130493,0.02901373989880085,0.00958251953125,-0.0077192517928779125
18213088879937,0.014365210197865963,-9.743204116821289,1.1540051698684692,0.0324740931391716,0.005589802749454975,-0.0039927163161337376
18213090117475,-0.020350715145468712,-9.767146110534668,1.193509578704834,0.0314093679189682,0.007985432632267475,-0.0010647244052961469
18213091355025,-0.0035913025494664907,-9.77552604675293,1.1767501831054688,0.0292799212038517,0.0114457868039608,-0.0114457868039608
18213092592562,-0.05147533863782883,-9.758766174316406,1.1444283723831177,0.0324740931391716,0.010114881210029125,-0.00984870083630085
18213093830112,-0.031124621629714966,-9.780314445495605,1.1635820865631104,0.0354020856320858,0.0077192517928779125,-0.007985432632267475
18213095067650,0.015562310814857483,-9.815030097961426,1.2078747749328613,0.0327402763068676,0.008517795242369175,-0.00692070834338665
18213096305200,-0.03950432687997818,-9.75158405303955,1.1432312726974487,0.033538818359375,0.0066545275039970875,-0.0031941730994731188
18213097542750,0.023942017927765846,-9.804256439208984,1.1492167711257935,0.0292799212038517,0.008783976547420025,-0.00931633822619915
18213098780275,0.031124621629714966,-9.77552604675293,1.1635820865631104,0.0327402763068676,0.007453070487827063,-0.005057440605014563
18213100017825,0.031124621629714966,-9.794679641723633,1.1204863786697388,0.0340711809694767,0.0031941730994731188,-0.005589802749454975
18213101255387,0.0071826050989329815,-9.797073364257812,1.192312479019165,0.0330064557492733,0.010647243820130825,-0.010381062515079975
18213102492912,0.02513911761343479,-9.758766174316406,1.1540051698684692,0.0322079136967659,0.010647243820130825,-0.0063883461989462376
18213103730462,0.020350715145468712,-9.803058624267578,1.2030863761901855,0.0356682650744915,0.0077192517928779125,-0.0090501569211483
18213104968000,0.0035913025494664907,-9.750386238098145,1.194706678390503,0.0327402763068676,0.00958251953125,-0.0114457868039608
18213106205537,0.009576806798577309,-9.740809440612793,1.169567584991455,0.033538818359375,0.010381062515079975,-0.0063883461989462376
18213107443075,0.020350715145468712,-9.75158405303955,1.2078747749328613,0.0322079136967659,0.0090501569211483,-0.008517795242369175
18213108680637,0.011971008963882923,-9.740809440612793,1.1803414821624756,0.0340711809694767,0.0026618109550327063,-0.010381062515079975
18213109918175,-0.0011971008498221636,-9.731232643127441,1.1767501831054688,0.0338049978017807,0.0013309054775163531,-0.008517795242369175
18213111155712,0.040701430290937424,-9.726444244384766,1.191115379333496,0.03087700717151165,0.008517795242369175,-0.00984870083630085
18213112393275,0.02992752194404602,-9.701305389404297,1.2102689743041992,0.0362006276845932,0.0063883461989462376,-0.0063883461989462376
18213113630825,0.016759412363171577,-9.703699111938477,1.2258312702178955,0.0377977155148983,0.0021294488105922937,-0.0066545275039970875
18213114868350,0.0059855044819414616,-9.706093788146973,1.2018892765045166,0.0412580706179142,0.0023956298828125,-0.00984870083630085
18213116105887,0.015562310814857483,-9.745597839355469,1.2258312702178955,0.0465816929936409,0.0063883461989462376,-0.01357523538172245
18213117343437,0.05386953800916672,-9.720458984375,1.2198457717895508,0.0375315360724926,0.003460354171693325,-0.01703559048473835
18213118580987,0.017956512048840523,-9.740809440612793,1.2006921768188477,0.0369991734623909,0.0013309054775163531,-0.010913425125181675
18213119818525,0.014365210197865963,-9.68694019317627,1.2413935661315918,0.0399271659553051,0.0010647244052961469,-0.01171196810901165
18213121056062,0.061052143573760986,-9.762357711791992,1.216254472732544,0.0420566126704216,-0.0021294488105922937,-0.010114881210029125
18213122293600,0.05147533863782883,-9.798270225524902,1.2306196689605713,0.042855154722929,-0.0039927163161337376,-0.010913425125181675
18213123531150,0.026336219161748886,-9.75158405303955,1.215057373046875,0.0404595248401165,0.00452507846057415,-0.00931633822619915
18213124768675,0.090979665517807,-9.743204116821289,1.2234370708465576,0.0441860631108284,0.0013309054775163531,-0.01357523538172245
18213126006225,0.07422025501728058,-9.7420072555542,1.2497732639312744,0.0420566126704216,-0.0007985432748682797,-0.012510511092841625
18213127243775,0.05147533863782883,-9.780314445495605,1.1959037780761719,0.0439198799431324,-0.0031941730994731188,-0.0119781494140625
18213128481350,0.0586579404771328,-9.75278091430664,1.2186486721038818,0.0468478724360466,-0.0090501569211483,-0.012510511092841625
18213129718875,0.014365210197865963,-9.757569313049316,1.2449848651885986,0.0401933453977108,-0.00452507846057415,-0.00958251953125
18213130956412,0.05746084079146385,-9.745597839355469,1.291671872138977,0.0441860631108284,-0.0018632676219567657,-0.014373779296875
18213132193962,0.04189852997660637,-9.732430458068848,1.2521674633026123,0.0439198799431324,-0.0031941730994731188,-0.01463996060192585
18213133431500,0.07661445438861847,-9.708487510681152,1.2808979749679565,0.0463155098259449,-0.0010647244052961469,-0.014373779296875
18213134669050,0.04788403585553169,-9.700108528137207,1.3180080652236938,0.0444522425532341,-0.0039927163161337376,-0.013309055007994175
18213135906600,0.08499415963888168,-9.708487510681152,1.256955862045288,0.0468478724360466,-0.0066545275039970875,-0.0167694091796875
18213137144150,0.06584054976701736,-9.703699111938477,1.291671872138977,0.0441860631108284,-0.0039927163161337376,-0.01463996060192585
18213138381700,0.03711012750864029,-9.68694019317627,1.3323732614517212,0.0481787770986557,-0.004791259765625,-0.015172322280704975
18213139619225,0.08499415963888168,-9.730035781860352,1.2761094570159912,0.0487111397087574,-0.00984870083630085,-0.0162370465695858
18213140856775,0.09576807171106339,-9.704896926879883,1.2425906658172607,0.052437674254179,-0.014373779296875,-0.01410759799182415
18213142094312,0.07302315533161163,-9.694122314453125,1.2557587623596191,0.0500420443713665,-0.00931633822619915,-0.012776692397892475
18213143331875,0.07900865375995636,-9.71926212310791,1.2330138683319092,0.0540347620844841,-0.01357523538172245,-0.00958251953125
18213144569412,0.05506663769483566,-9.708487510681152,1.2425906658172607,0.0535023994743824,-0.012776692397892475,-0.01463996060192585
18213145806937,0.09935937076807022,-9.732430458068848,1.2545616626739502,0.0585598424077034,-0.01357523538172245,-0.012776692397892475
18213147044487,0.08499415963888168,-9.72165584564209,1.2665326595306396,0.0604231096804142,-0.01703559048473835,-0.005855984054505825
18213148282012,0.08259996026754379,-9.769539833068848,1.2629413604736328,0.0582936592400074,-0.01463996060192585,-0.010647243820130825
18213149519575,0.05626374110579491,-9.792284965515137,1.2497732639312744,0.0612216517329216,-0.010381062515079975,-0.014373779296875
18213150757112,0.06224924325942993,-9.7791166305542,1.3048399686813354,0.0606892891228199,-0.0157046839594841,-0.014906140975654125
18213151994662,0.05746084079146385,-9.799468040466309,1.2868834733963013,0.0598907470703125,-0.01650322787463665,-0.010913425125181675
18213153232212,0.05506663769483566,-9.746795654296875,1.2677297592163086,0.0582936592400074,-0.0162370465695858,-0.014373779296875
18213154469762,0.008379706181585789,-9.80904483795166,1.2653355598449707,0.0545671246945858,-0.0173017717897892,-0.010647243820130825
18213155707287,0.0454898327589035,-9.795876502990723,1.2761094570159912,0.0590922012925148,-0.02076212503015995,-0.008783976547420025
18213156944837,-0.004788403399288654,-9.773131370544434,1.3263877630233765,0.0577612966299057,-0.0223592109978199,-0.006122165359556675
18213158182400,0.05985504388809204,-9.786299705505371,1.3275848627090454,0.0564303919672966,-0.0162370465695858,-0.0090501569211483
18213159419925,0.05626374110579491,-9.786299705505371,1.2808979749679565,0.0604231096804142,-0.0220930315554142,-0.0090501569211483
18213160657475,0.05985504388809204,-9.81143856048584,1.3012486696243286,0.0596245639026165,-0.0234239362180233,-0.00452507846057415
18213161895012,0.06823474913835526,-9.818621635437012,1.2701239585876465,0.0561642125248909,-0.0258195661008358,-0.008517795242369175
18213163132562,0.07541735470294952,-9.806650161743164,1.3000515699386597,0.0553656667470932,-0.02369011752307415,-0.01224433071911335
18213164370100,0.07900865375995636,-9.807847023010254,1.335964560508728,0.0532362200319767,-0.0220930315554142,-0.0090501569211483
18213165607650,0.08259996026754379,-9.821015357971191,1.3311761617660522,0.0529700368642807,-0.02422248013317585,-0.00931633822619915
18213166845175,0.03711012750864029,-9.794679641723633,1.2868834733963013,0.0569627545773983,-0.0263519287109375,-0.010381062515079975
18213168082737,0.04788403585553169,-9.827000617980957,1.2952631711959839,0.0569627545773983,-0.02874755859375,0.0
18213169320275,0.07541735470294952,-9.855731010437012,1.3311761617660522,0.057228934019804,-0.0268842913210392,-0.00452507846057415
18213170557812,0.07062894850969315,-9.9000244140625,1.3096283674240112,0.0543009415268898,-0.0258195661008358,-0.00692070834338665
18213171795375,0.020350715145468712,-9.837775230407715,1.3431471586227417,0.052703857421875,-0.0258195661008358,0.0007985432748682797
18213173032900,-0.021547814831137657,-9.853337287902832,1.3012486696243286,0.0537685826420784,-0.0319417305290699,-0.0029279920272529125
18213174270462,0.014365210197865963,-9.896432876586914,1.3215993642807007,0.0566965714097023,-0.0393948033452034,-0.0077192517928779125
18213175508000,0.0454898327589035,-9.897629737854004,1.3120225667953491,0.0516391322016716,-0.03087700717151165,-0.00931633822619915
18213176745537,0.04908113554120064,-9.874884605407715,1.3311761617660522,0.0447184219956398,-0.0319417305290699,-0.00958251953125
18213177983075,0.03950432687997818,-9.917980194091797,1.3108254671096802,0.0465816929936409,-0.0359344482421875,-0.010381062515079975
18213179220637,-0.035913024097681046,-9.919178009033203,1.3611036539077759,0.0516391322016716,-0.0327402763068676,-0.00931633822619915
18213180458187,0.010773907415568829,-9.951498985290527,1.3503297567367554,0.0484449602663517,-0.0300784632563591,-0.00452507846057415
18213181695725,0.020350715145468712,-9.897629737854004,1.2880805730819702,0.043121337890625,-0.0340711809694767,-0.005589802749454975
18213182933275,-0.026336219161748886,-9.897629737854004,1.3670891523361206,0.0425889752805233,-0.0324740931391716,-0.00692070834338665
18213184170812,-0.023942017927765846,-9.873687744140625,1.337161660194397,0.042855154722929,-0.0327402763068676,-0.0090501569211483
18213185408337,-0.02513911761343479,-9.906009674072266,1.357512354850769,0.0420566126704216,-0.0351359061896801,-0.00931633822619915
18213186645875,0.0071826050989329815,-9.914389610290527,1.334767460823059,0.0439198799431324,-0.0340711809694767,-0.01171196810901165
18213187883437,0.038307227194309235,-9.908403396606445,1.3048399686813354,0.0420566126704216,-0.0330064557492733,-0.00958251953125
18213189120987,0.014365210197865963,-9.882067680358887,1.3239935636520386,0.0420566126704216,-0.0369991734623909,-0.0077192517928779125
18213190358500,-0.03711012750864029,-9.921571731567383,1.315613865852356,0.0396609827876091,-0.0354020856320858,-0.00692070834338665
18213191596062,-0.015562310814857483,-9.886856079101562,1.3491326570510864,0.0401933453977108,-0.0324740931391716,-0.007985432632267475
18213192833625,-0.016759412363171577,-9.885659217834473,1.3646949529647827,0.0354020856320858,-0.0338049978017807,-0.007453070487827063
18213194071150,0.010773907415568829,-9.913191795349121,1.3299790620803833,0.0359344482421875,-0.038330078125,-0.0021294488105922937
18213195308712,-0.04908113554120064,-9.897629737854004,1.3742717504501343,0.0369991734623909,-0.0375315360724926,-0.0021294488105922937
18213196546237,-0.043095629662275314,-9.861717224121094,1.3263877630233765,0.0356682650744915,-0.0338049978017807,-0.0090501569211483
18213197783775,-0.017956512048840523,-9.86889934539795,1.3407529592514038,0.0314093679189682,-0.0354020856320858,-0.005057440605014563
18213199021325,-0.009576806798577309,-9.882067680358887,1.3443442583084106,0.0343373604118824,-0.0367329902946949,-0.0039927163161337376
18213200258875,-0.05506663769483566,-9.86889934539795,1.3467384576797485,0.0340711809694767,-0.0375315360724926,-0.0066545275039970875
18213201496412,-0.009576806798577309,-9.888052940368652,1.3611036539077759,0.0300784632563591,-0.0311431884765625,-0.006122165359556675
18213202733950,-0.02513911761343479,-9.897629737854004,1.3646949529647827,0.0311431884765625,-0.033272635191679,-0.004791259765625
18213203971525,-0.019153613597154617,-9.885659217834473,1.3527239561080933,0.033538818359375,-0.0314093679189682,-0.004791259765625
18213205209050,-0.05027823522686958,-9.853337287902832,1.3120225667953491,0.02741665206849575,-0.0354020856320858,0.0
18213206446587,-0.02992752194404602,-9.87967300415039,1.3431471586227417,0.0295461006462574,-0.0348697230219841,-0.0063883461989462376
18213207684137,0.0011971008498221636,-9.908403396606445,1.3311761617660522,0.0311431884765625,-0.0340711809694767,-0.0066545275039970875
18213208921687,-0.04429273307323456,-9.876082420349121,1.3611036539077759,0.0292799212038517,-0.0343373604118824,-0.0071868896484375
18213210159200,-0.04668693244457245,-9.864110946655273,1.381454348564148,0.02848137728869915,-0.0340711809694767,-0.0037265352439135313
18213211396762,-0.02274491637945175,-9.880870819091797,1.3443442583084106,0.02608574740588665,-0.0282151959836483,0.003460354171693325
18213212634325,-0.03232172504067421,-9.858125686645508,1.3527239561080933,0.0228915736079216,-0.02661811001598835,0.0010647244052961469
18213213871862,-0.04788403585553169,-9.883264541625977,1.3299790620803833,0.0295461006462574,-0.0369991734623909,-0.0002661811013240367
18213215109412,-0.014365210197865963,-9.856928825378418,1.3527239561080933,0.02848137728869915,-0.0351359061896801,-0.0005323622026480734
18213216346950,-0.03232172504067421,-9.886856079101562,1.3443442583084106,0.0244886614382267,-0.033538818359375,-0.0013309054775163531
18213217584487,-0.02513911761343479,-9.883264541625977,1.3287819623947144,0.02422248013317585,-0.0359344482421875,0.0
18213218822050,-0.017956512048840523,-9.821015357971191,1.3754688501358032,0.02262539230287075,-0.0351359061896801,-0.0002661811013240367
18213220059587,-0.03711012750864029,-9.856928825378418,1.3706804513931274,0.01943122036755085,-0.0314093679189682,-0.0010647244052961469
18213221297125,-0.06823474913835526,-9.816226959228516,1.3694833517074585,0.0223592109978199,-0.033272635191679,0.0010647244052961469
18213222534675,-0.013168109580874443,-9.81143856048584,1.3623007535934448,0.02022976242005825,-0.0314093679189682,0.0010647244052961469
18213223772200,-0.03232172504067421,-9.841365814208984,1.3730746507644653,0.0204959437251091,-0.02848137728869915,0.0029279920272529125
18213225009737,-0.05506663769483566,-9.825803756713867,1.3838485479354858,0.02129448764026165,-0.0282151959836483,0.008783976547420025
18213226247300,-0.015562310814857483,-9.84256362915039,1.3503297567367554,0.01783413253724575,-0.02608574740588665,0.003460354171693325
18213227484837,-0.04668693244457245,-9.817423820495605,1.3048399686813354,0.0181003138422966,-0.023956298828125,0.0010647244052961469
18213228722387,-0.038307227194309235,-9.822212219238281,1.3515268564224243,0.01996358297765255,-0.02901373989880085,0.004791259765625
18213229959937,-0.05746084079146385,-9.832986831665039,1.3718775510787964,0.015172322280704975,-0.03087700717151165,0.0005323622026480734
18213231197487,-0.04429273307323456,-9.840168952941895,1.3886369466781616,0.010381062515079975,-0.02661811001598835,0.0
18213232435025,-0.04908113554120064,-9.823410034179688,1.3778630495071411,0.01889885775744915,-0.0223592109978199,0.0029279920272529125
18213233672575,0.033518824726343155,-9.799468040466309,1.3634978532791138,0.01783413253724575,-0.0215606689453125,0.005057440605014563
18213234910100,-0.03711012750864029,-9.840168952941895,1.3694833517074585,0.014906140975654125,-0.0220930315554142,0.008251613937318325
18213236147650,-0.05267243832349777,-9.836577415466309,1.3838485479354858,0.014373779296875,-0.0223592109978199,0.0037265352439135313
18213237385200,-0.0454898327589035,-9.855731010437012,1.338358759880066,0.01117960549890995,-0.0268842913210392,0.005589802749454975
18213238622725,-0.06224924325942993,-9.86650562286377,1.3742717504501343,0.0173017717897892,-0.0204959437251091,0.005589802749454975
18213239860300,-0.07302315533161163,-9.840168952941895,1.359906554222107,0.01783413253724575,-0.0234239362180233,0.0007985432748682797
18213241097837,-0.090979665517807,-9.836577415466309,1.3527239561080933,0.012776692397892475,-0.02369011752307415,0.0002661811013240367
18213242335362,-0.0694318488240242,-9.885659217834473,1.3694833517074585,0.01597086526453495,-0.0173017717897892,0.00452507846057415
18213243572937,-0.06464345008134842,-9.854534149169922,1.3623007535934448,0.01597086526453495,-0.01836649514734745,0.0063883461989462376
18213244810462,-0.07661445438861847,-9.889249801635742,1.4173674583435059,0.010913425125181675,-0.014906140975654125,0.004791259765625
18213246048000,-0.06464345008134842,-9.853337287902832,1.3694833517074585,0.01117960549890995,-0.015438503585755825,0.005855984054505825
18213247285562,-0.06464345008134842,-9.821015357971191,1.3611036539077759,0.008251613937318325,-0.0167694091796875,0.00931633822619915
18213248523100,-0.08140286058187485,-9.84495735168457,1.3503297567367554,0.00958251953125,-0.01943122036755085,0.005589802749454975
18213249760637,-0.08738835901021957,-9.850942611694336,1.3419500589370728,0.013042873702943325,-0.01756795309484005,0.007453070487827063
18213250998187,-0.07661445438861847,-9.824606895446777,1.3503297567367554,0.00958251953125,-0.014906140975654125,0.0053236219100654125
18213252235712,-0.0802057608962059,-9.834183692932129,1.3239935636520386,0.0077192517928779125,-0.0162370465695858,0.0015970865497365594
18213253473275,-0.08379705995321274,-9.838972091674805,1.3634978532791138,0.0023956298828125,-0.01410759799182415,0.007453070487827063
18213254710837,-0.06344634294509888,-9.876082420349121,1.357512354850769,0.007453070487827063,-0.00931633822619915,0.0021294488105922937
18213255948362,-0.04668693244457245,-9.830592155456543,1.3323732614517212,0.01117960549890995,-0.008251613937318325,-0.0013309054775163531
18213257185937,-0.07182604819536209,-9.804256439208984,1.3850456476211548,0.01171196810901165,-0.0066545275039970875,0.0066545275039970875
18213258423450,-0.05746084079146385,-9.853337287902832,1.3431471586227417,0.008517795242369175,-0.01224433071911335,0.00931633822619915
18213259660987,-0.06823474913835526,-9.841365814208984,1.3742717504501343,0.0037265352439135313,-0.012776692397892475,0.00931633822619915
18213260898537,-0.10773907601833344,-9.804256439208984,1.3778630495071411,0.005855984054505825,-0.012776692397892475,0.00692070834338665
18213262136075,-0.05027823522686958,-9.840168952941895,1.4041993618011475,0.007453070487827063,-0.010647243820130825,0.007453070487827063
18213263373650,-0.07900865375995636,-9.852140426635742,1.3694833517074585,0.010647243820130825,-0.010913425125181675,0.0066545275039970875
18213264611162,-0.07900865375995636,-9.799468040466309,1.3718775510787964,0.010913425125181675,-0.008251613937318325,0.010647243820130825
18213265848712,-0.05027823522686958,-9.830592155456543,1.3754688501358032,0.0063883461989462376,-0.007453070487827063,0.0138414166867733
18213267086275,-0.07062894850969315,-9.874884605407715,1.3670891523361206,0.0018632676219567657,-0.0039927163161337376,0.010381062515079975
18213268323800,-0.04788403585553169,-9.853337287902832,1.359906554222107,0.0037265352439135313,-0.0039927163161337376,0.008251613937318325
18213269561337,-0.0011971008498221636,-9.838972091674805,1.338358759880066,0.01117960549890995,-0.00452507846057415,0.005855984054505825
18213270798900,-0.06703764945268631,-9.827000617980957,1.3611036539077759,0.00692070834338665,-0.007453070487827063,0.0037265352439135313
18213272036425,-0.08619125932455063,-9.871294021606445,1.3694833517074585,0.0007985432748682797,-0.0015970865497365594,0.010381062515079975
18213273273987,-0.04668693244457245,-9.84615421295166,1.3982137441635132,0.004791259765625,-0.0021294488105922937,0.01410759799182415
18213274511500,-0.026336219161748886,-9.823410034179688,1.3838485479354858,0.0037265352439135313,-0.0042588976211845875,0.007453070487827063
18213275749062,-0.05746084079146385,-9.87967300415039,1.3455413579940796,0.0039927163161337376,-0.0029279920272529125,0.008517795242369175
18213276986612,-0.04908113554120064,-9.849745750427246,1.3718775510787964,0.0013309054775163531,-0.0021294488105922937,0.010647243820130825
18213278224162,-0.014365210197865963,-9.852140426635742,1.3670891523361206,-0.0010647244052961469,-0.0037265352439135313,0.00931633822619915
18213279461700,-0.020350715145468712,-9.813833236694336,1.4018051624298096,-0.0018632676219567657,-0.0053236219100654125,0.012510511092841625
18213280699250,-0.03711012750864029,-9.850942611694336,1.416170358657837,-0.0002661811013240367,-0.0053236219100654125,0.010913425125181675
18213281936787,-0.05626374110579491,-9.838972091674805,1.3754688501358032,0.0007985432748682797,-0.0007985432748682797,0.003460354171693325
18213283174337,-0.03950432687997818,-9.837775230407715,1.3551181554794312,-0.0002661811013240367,0.0002661811013240367,0.0090501569211483
18213284411875,-0.07541735470294952,-9.816226959228516,1.3934253454208374,-0.0010647244052961469,-0.0007985432748682797,0.00984870083630085
18213285649425,-0.043095629662275314,-9.825803756713867,1.3850456476211548,-0.0015970865497365594,-0.0007985432748682797,0.008783976547420025
18213286886975,-0.038307227194309235,-9.816226959228516,1.4197616577148438,-0.0026618109550327063,0.004791259765625,0.005057440605014563
18213288124512,-0.019153613597154617,-9.799468040466309,1.3527239561080933,-0.0007985432748682797,0.0021294488105922937,0.00692070834338665
18213289362062,-0.05506663769483566,-9.801861763000488,1.3682862520217896,0.0,0.0015970865497365594,0.008251613937318325
18213290599612,0.016759412363171577,-9.80904483795166,1.338358759880066,0.004791259765625,0.0007985432748682797,0.008517795242369175
18213291837137,-0.016759412363171577,-9.797073364257812,1.3503297567367554,-0.0026618109550327063,-0.0007985432748682797,0.01117960549890995
18213293074687,-0.05746084079146385,-9.800664901733398,1.359906554222107,-0.00452507846057415,0.005057440605014563,0.010381062515079975
18213294312250,-0.04788403585553169,-9.804256439208984,1.3515268564224243,-0.0023956298828125,0.0071868896484375,0.0114457868039608
18213295549762,-0.026336219161748886,-9.805453300476074,1.3503297567367554,-0.0007985432748682797,0.0037265352439135313,0.013042873702943325
18213296787325,-0.03950432687997818,-9.800664901733398,1.338358759880066,-0.0037265352439135313,-0.0013309054775163531,0.01756795309484005
18213298024862,-0.004788403399288654,-9.838972091674805,1.3419500589370728,-0.005057440605014563,0.0021294488105922937,0.015438503585755825
18213299262425,0.019153613597154617,-9.84615421295166,1.3527239561080933,-0.00692070834338665,0.0037265352439135313,0.012510511092841625
18213300499962,-0.05267243832349777,-9.807847023010254,1.357512354850769,-0.0031941730994731188,0.005589802749454975,0.00931633822619915
18213301737500,-0.004788403399288654,-9.801861763000488,1.359906554222107,-0.004791259765625,-0.0002661811013240367,0.00984870083630085
18213302975037,-0.023942017927765846,-9.81024169921875,1.3323732614517212,-0.004791259765625,0.0021294488105922937,0.012510511092841625
18213304212587,-0.015562310814857483,-9.823410034179688,1.3730746507644653,-0.007453070487827063,0.0026618109550327063,0.01224433071911335
18213305450125,-0.05985504388809204,-9.821015357971191,1.3718775510787964,-0.0053236219100654125,-0.0010647244052961469,0.010381062515079975
18213306687687,-0.031124621629714966,-9.831789016723633,1.3311761617660522,-0.007985432632267475,0.0029279920272529125,0.01463996060192585
18213307925225,-0.021547814831137657,-9.798270225524902,1.3455413579940796,-0.0063883461989462376,0.0026618109550327063,0.01650322787463665
18213309162762,-0.0347159244120121,-9.807847023010254,1.3299790620803833,-0.008251613937318325,0.0010647244052961469,0.01597086526453495
18213310400300,-0.040701430290937424,-9.78869342803955,1.3706804513931274,-0.0066545275039970875,0.0013309054775163531,0.01783413253724575
18213311637850,-0.0035913025494664907,-9.825803756713867,1.334767460823059,-0.0077192517928779125,0.0053236219100654125,0.01357523538172245
18213312875400,0.015562310814857483,-9.805453300476074,1.3239935636520386,-0.010114881210029125,0.0002661811013240367,0.01410759799182415
18213314112950,-0.009576806798577309,-9.800664901733398,1.3742717504501343,-0.00692070834338665,0.0042588976211845875,0.015172322280704975
18213315350487,-0.013168109580874443,-9.848548889160156,1.3419500589370728,-0.0039927163161337376,0.0013309054775163531,0.01889885775744915
18213316588025,0.028730420395731926,-9.832986831665039,1.3263877630233765,-0.0066545275039970875,0.0021294488105922937,0.0191650390625
18213317825575,-0.0035913025494664907,-9.861717224121094,1.2964602708816528,-0.007453070487827063,0.0010647244052961469,0.0186326764523983
18213319063112,-0.0059855044819414616,-9.848548889160156,1.3024457693099976,-0.008517795242369175,0.0015970865497365594,0.01650322787463665
18213320300675,-0.026336219161748886,-9.793481826782227,1.3323732614517212,-0.01357523538172245,0.0005323622026480734,0.0114457868039608
18213321538212,-0.002394201699644327,-9.801861763000488,1.3467384576797485,-0.012510511092841625,0.0005323622026480734,0.014906140975654125
18213322775750,0.0059855044819414616,-9.838972091674805,1.2880805730819702,-0.010913425125181675,0.012776692397892475,0.0114457868039608
18213324013300,-0.019153613597154617,-9.828198432922363,1.3263877630233765,-0.0114457868039608,-0.0007985432748682797,0.01410759799182415
18213325250825,-0.040701430290937424,-9.824606895446777,1.3060370683670044,-0.008783976547420025,-0.0063883461989462376,0.0210283063352108
18213326488375,-0.026336219161748886,-9.824606895446777,1.3251906633377075,-0.0114457868039608,-0.0002661811013240367,0.0181003138422966
18213327725925,-0.02274491637945175,-9.804256439208984,1.2892776727676392,-0.012776692397892475,-0.0021294488105922937,0.01756795309484005
18213328963462,0.0011971008498221636,-9.84256362915039,1.314416766166687,-0.013042873702943325,-0.0010647244052961469,0.01410759799182415
18213330201025,-0.0347159244120121,-9.823410034179688,1.3611036539077759,-0.00984870083630085,-0.0026618109550327063,0.0186326764523983
18213331438562,-0.033518824726343155,-9.765949249267578,1.3611036539077759,-0.012510511092841625,0.0007985432748682797,0.02076212503015995
18213332676100,-0.009576806798577309,-9.7791166305542,1.3407529592514038,-0.013309055007994175,0.0023956298828125,0.02182685025036335
18213333913650,0.017956512048840523,-9.747992515563965,1.3551181554794312,-0.010381062515079975,0.0010647244052961469,0.0186326764523983
18213335151187,0.019153613597154617,-9.764751434326172,1.3263877630233765,-0.014373779296875,0.0002661811013240367,0.0191650390625
18213336388737,0.02274491637945175,-9.795876502990723,1.315613865852356,-0.0114457868039608,0.0021294488105922937,0.0191650390625
18213337626275,-0.0059855044819414616,-9.770737648010254,1.291671872138977,-0.01171196810901165,-0.003460354171693325,0.0210283063352108
18213338863837,0.015562310814857483,-9.792284965515137,1.2976573705673218,-0.00984870083630085,-0.0037265352439135313,0.01943122036755085
18213340101362,0.014365210197865963,-9.728838920593262,1.3539210557937622,-0.0063883461989462376,-0.0031941730994731188,0.01703559048473835
18213341338925,0.0011971008498221636,-9.75278091430664,1.3263877630233765,-0.01117960549890995,-0.0021294488105922937,0.01357523538172245
18213342576450,0.031124621629714966,-9.740809440612793,1.3467384576797485,-0.008783976547420025,-0.003460354171693325,0.0215606689453125
18213343814012,0.02753331884741783,-9.72165584564209,1.3503297567367554,-0.0029279920272529125,-0.005855984054505825,0.0191650390625
18213345051550,-0.016759412363171577,-9.774328231811523,1.3215993642807007,-0.008251613937318325,-0.0077192517928779125,0.02262539230287075
18213346289087,-0.002394201699644327,-9.739612579345703,1.3251906633377075,-0.0090501569211483,-0.00692070834338665,0.0244886614382267
18213347526637,-0.023942017927765846,-9.767146110534668,1.3204022645950317,-0.006122165359556675,-0.0090501569211483,0.0173017717897892
18213348764187,0.013168109580874443,-9.759963035583496,1.3287819623947144,-0.0015970865497365594,-0.005057440605014563,0.02422248013317585
18213350001712,0.010773907415568829,-9.730035781860352,1.3239935636520386,0.0037265352439135313,-0.00452507846057415,0.0223592109978199
18213351239275,-0.019153613597154617,-9.743204116821289,1.3012486696243286,-0.0010647244052961469,-0.005057440605014563,0.0215606689453125
18213352476812,-0.004788403399288654,-9.746795654296875,1.358709454536438,-0.0042588976211845875,-0.005589802749454975,0.0223592109978199
18213353714362,0.038307227194309235,-9.75278091430664,1.2880805730819702,-0.0037265352439135313,-0.0090501569211483,0.0210283063352108
18213354951900,0.031124621629714966,-9.690531730651855,1.3251906633377075,-0.004791259765625,-0.007453070487827063,0.0220930315554142
18213356189450,-0.002394201699644327,-9.715670585632324,1.314416766166687,-0.0026618109550327063,-0.008251613937318325,0.0186326764523983
18213357427000,0.020350715145468712,-9.727641105651855,1.3503297567367554,0.0026618109550327063,-0.012510511092841625,0.01836649514734745
18213358664550,0.038307227194309235,-9.731232643127441,1.3563152551651,0.00452507846057415,-0.010913425125181675,0.02262539230287075
18213359902062,0.0011971008498221636,-9.71926212310791,1.3299790620803833,0.005589802749454975,-0.010913425125181675,0.0268842913210392
18213361139650,-0.002394201699644327,-9.725247383117676,1.316810965538025,0.0053236219100654125,-0.010913425125181675,0.0282151959836483
18213362377175,0.03232172504067421,-9.694122314453125,1.3407529592514038,0.0010647244052961469,-0.0071868896484375,0.023956298828125
18213363614712,0.0071826050989329815,-9.68813705444336,1.3192051649093628,-0.0018632676219567657,-0.0066545275039970875,0.01996358297765255
18213364852262,0.03232172504067421,-9.727641105651855,1.3192051649093628,-0.0007985432748682797,-0.010647243820130825,0.01996358297765255
18213366089812,-0.0035913025494664907,-9.714473724365234,1.3096283674240112,0.0029279920272529125,-0.008251613937318325,0.01836649514734745
18213367327337,-0.0059855044819414616,-9.708487510681152,1.337161660194397,0.00958251953125,-0.00984870083630085,0.0196974016726017
18213368564887,0.0035913025494664907,-9.695320129394531,1.3670891523361206,0.008783976547420025,-0.01597086526453495,0.02129448764026165
18213369802437,0.004788403399288654,-9.678560256958008,1.358709454536438,-0.0005323622026480734,-0.012776692397892475,0.02422248013317585
18213371039975,-0.011971008963882923,-9.715670585632324,1.292868971824646,0.0010647244052961469,-0.0077192517928779125,0.0292799212038517
18213372277537,-0.02753331884741783,-9.734824180603027,1.313219666481018,0.0090501569211483,-0.015438503585755825,0.02022976242005825
18213373515075,-0.016759412363171577,-9.738415718078613,1.292868971824646,0.010913425125181675,-0.015172322280704975,0.01996358297765255
18213374752612,-0.017956512048840523,-9.765949249267578,1.3275848627090454,0.0114457868039608,-0.014373779296875,0.01889885775744915
18213375990162,-0.015562310814857483,-9.762357711791992,1.313219666481018,0.010114881210029125,-0.0167694091796875,0.01943122036755085
18213377227725,0.009576806798577309,-9.75278091430664,1.2832921743392944,0.013042873702943325,-0.01597086526453495,0.01889885775744915
18213378465250,0.023942017927765846,-9.702502250671387,1.335964560508728,0.013042873702943325,-0.015172322280704975,0.01889885775744915
18213379702775,0.0011971008498221636,-9.785102844238281,1.3431471586227417,0.0114457868039608,-0.01756795309484005,0.0181003138422966
18213380940325,-0.014365210197865963,-9.817423820495605,1.3096283674240112,0.013042873702943325,-0.0173017717897892,0.02022976242005825
18213382177887,0.016759412363171577,-9.7420072555542,1.3431471586227417,0.01357523538172245,-0.01650322787463665,0.0167694091796875
18213383415437,-0.0011971008498221636,-9.762357711791992,1.3299790620803833,0.00958251953125,-0.00958251953125,0.013042873702943325
18213384652975,0.0035913025494664907,-9.793481826782227,1.3120225667953491,0.012776692397892475,-0.01224433071911335,0.012510511092841625
18213385890512,-0.02513911761343479,-9.799468040466309,1.3443442583084106,0.01463996060192585,-0.0167694091796875,0.0119781494140625
18213387128062,-0.0059855044819414616,-9.781511306762695,1.338358759880066,0.007453070487827063,-0.0138414166867733,0.0157046839594841
18213388365625,-0.017956512048840523,-9.767146110534668,1.3623007535934448,0.008783976547420025,-0.01703559048473835,0.0186326764523983
18213389603162,-0.021547814831137657,-9.813833236694336,1.3515268564224243,0.010647243820130825,-0.0191650390625,0.01117960549890995
18213390840700,0.013168109580874443,-9.781511306762695,1.3275848627090454,0.010913425125181675,-0.0157046839594841,0.014373779296875
18213392078250,-0.0059855044819414616,-9.792284965515137,1.3251906633377075,0.01171196810901165,-0.0162370465695858,0.0181003138422966
18213393315787,0.013168109580874443,-9.78869342803955,1.3323732614517212,0.010114881210029125,-0.01756795309484005,0.015172322280704975
18213394553325,-0.011971008963882923,-9.783905029296875,1.334767460823059,0.0090501569211483,-0.013042873702943325,0.01463996060192585
18213395790887,-0.02753331884741783,-9.829395294189453,1.3539210557937622,0.010381062515079975,-0.0204959437251091,0.0181003138422966
18213397028437,-0.0059855044819414616,-9.803058624267578,1.3455413579940796,0.0119781494140625,-0.02262539230287075,0.0167694091796875
18213398265962,-0.016759412363171577,-9.827000617980957,1.2844892740249634,0.008251613937318325,-0.0186326764523983,0.01463996060192585
18213399503512,-0.03950432687997818,-9.860519409179688,1.3515268564224243,0.00931633822619915,-0.01996358297765255,0.01463996060192585
18213400741062,-0.004788403399288654,-9.859322547912598,1.3563152551651,0.00958251953125,-0.01943122036755085,0.012510511092841625
18213401978612,-0.008379706181585789,-9.836577415466309,1.3766659498214722,0.010381062515079975,-0.0173017717897892,0.014373779296875
18213403216125,-0.040701430290937424,-9.848548889160156,1.313219666481018,0.008251613937318325,-0.02076212503015995,0.0157046839594841
18213404453687,-0.02513911761343479,-9.852140426635742,1.3335703611373901,0.008783976547420025,-0.01996358297765255,0.01597086526453495
18213405691237,-0.03711012750864029,-9.862914085388184,1.3395558595657349,0.0077192517928779125,-0.0186326764523983,0.01463996060192585
18213406928787,-0.0011971008498221636,-9.848548889160156,1.3299790620803833,0.0090501569211483,-0.0247548408806324,0.012510511092841625
18213408166312,-0.033518824726343155,-9.847352027893066,1.338358759880066,0.01171196810901165,-0.02502102218568325,0.013042873702943325
18213409403850,0.028730420395731926,-9.792284965515137,1.3395558595657349,0.0119781494140625,-0.02422248013317585,0.0138414166867733
