timestamp_ns,accel_x,accel_y,accel_z,gyro_x,gyro_y,gyro_z
2202390012525,0.12330138683319092,-9.837775230407715,0.7924807667732239,-0.1163211390376091,0.0031941730994731188,0.0798543319106102
2202391249887,0.090979665517807,-9.873687744140625,0.8104372620582581,-0.1173858642578125,0.0013309054775163531,0.0793219655752182
2202392487250,0.10175357013940811,-9.849745750427246,0.8032546639442444,-0.1187167689204216,0.0013309054775163531,0.0843794047832489
2202393724612,0.12928690016269684,-9.892841339111328,0.812831461429596,-0.1184505894780159,-0.005057440605014563,0.0843794047832489
2202394962000,0.10773907601833344,-9.892841339111328,0.7469909191131592,-0.1189829483628273,-0.0015970865497365594,0.081451416015625
2202396199350,0.1149216815829277,-9.84256362915039,0.7721300721168518,-0.1152564138174057,0.005057440605014563,0.0878397598862648
2202397436725,0.1256955862045288,-9.891644477844238,0.7649474740028381,-0.1187167689204216,0.0066545275039970875,0.0822499617934227
2202398674100,0.08858546614646912,-9.911994934082031,0.7661445736885071,-0.1189829483628273,0.0013309054775163531,0.0787896066904068
2202399911462,0.10654197633266449,-9.891644477844238,0.7996633648872375,-0.1205800324678421,-0.0007985432748682797,0.0886383056640625
2202401148837,0.10654197633266449,-9.929951667785645,0.811634361743927,-0.1187167689204216,-0.0039927163161337376,0.0854441300034523
2202402386200,0.11013327538967133,-9.967061996459961,0.7218518257141113,-0.1179182231426239,0.00452507846057415,0.0849117711186409
2202403623575,0.031124621629714966,-9.986215591430664,0.751779317855835,-0.1227094829082489,0.005057440605014563,0.0873074010014534
2202404860912,0.05027823522686958,-10.02691650390625,0.7374141216278076,-0.1224433034658432,0.005589802749454975,0.0870412141084671
2202406098300,0.02992752194404602,-9.998186111450195,0.7469909191131592,-0.1251051127910614,0.005589802749454975,0.0859764963388443
2202407335662,0.019153613597154617,-10.042479515075684,0.7469909191131592,-0.1306949108839035,0.01117960549890995,0.085710309445858
2202408573025,0.0071826050989329815,-10.073603630065918,0.6991068720817566,-0.1309611052274704,0.010913425125181675,0.0920986607670784
2202409810412,-0.009576806798577309,-10.067618370056152,0.6967126727104187,-0.12457275390625,0.008251613937318325,0.0920986607670784
2202411047762,0.017956512048840523,-10.092757225036621,0.7266402244567871,-0.1272345632314682,0.008251613937318325,0.0958251953125
2202412285137,0.015562310814857483,-10.103530883789062,0.7170634269714355,-0.1325581818819046,0.007453070487827063,0.0979546457529068
2202413522500,-0.02753331884741783,-10.093954086303711,0.7553706169128418,-0.1365509033203125,0.01410759799182415,0.1024797186255455
2202414759875,0.015562310814857483,-10.127472877502441,0.6991068720817566,-0.138946533203125,0.010114881210029125,0.1091342493891716
2202415997250,-0.035913024097681046,-10.164583206176758,0.6871358752250671,-0.1402774304151535,0.007985432632267475,0.1107313334941864
2202417234600,0.004788403399288654,-10.162189483642578,0.7422025203704834,-0.1397450715303421,0.015438503585755825,0.1136593297123909
2202418471975,0.040701430290937424,-10.129867553710938,0.6979097723960876,-0.1469319611787796,0.008783976547420025,0.1157887727022171
2202419709337,0.02274491637945175,-10.08437728881836,0.7134721279144287,-0.1543850302696228,0.014373779296875,0.1168534979224205
2202420946700,0.05147533863782883,-10.121487617492676,0.6943184733390808,-0.1546512097120285,0.0114457868039608,0.1203138530254364
2202422184075,0.1280897855758667,-10.096348762512207,0.6919242739677429,-0.1533203125,0.0138414166867733,0.1221771240234375
2202423421450,0.1173158809542656,-10.095151901245117,0.7386112213134766,-0.1519894003868103,0.0167694091796875,0.1288316547870636
2202424658825,0.14006079733371735,-10.104728698730469,0.6631938815116882,-0.1610395610332489,0.01357523538172245,0.1322920024394989
2202425896175,0.10654197633266449,-10.035296440124512,0.6584054827690125,-0.1652984619140625,0.01943122036755085,0.1272345632314682
2202427133550,0.11851298809051514,-10.04726791381836,0.6488286852836609,-0.1682264506816864,0.0210283063352108,0.1312272846698761
2202428370912,0.08619125932455063,-10.040084838867188,0.7050924301147461,-0.1719529926776886,0.01783413253724575,0.1400112509727478
2202429608275,0.08499415963888168,-10.054450035095215,0.7206547260284424,-0.1732838898897171,0.012510511092841625,0.1456010639667511
2202430845662,0.09696517139673233,-10.038887977600098,0.730231523513794,-0.1767442524433136,0.012776692397892475,0.1432054340839386
2202432083000,0.10534487664699554,-9.99100399017334,0.7206547260284424,-0.1751471608877182,0.013309055007994175,0.1440039724111557
2202433320387,0.07541735470294952,-9.967061996459961,0.751779317855835,-0.1807369589805603,0.012510511092841625,0.1456010639667511
2202434557762,0.08978256583213806,-9.964667320251465,0.7314286231994629,-0.1844635009765625,0.012510511092841625,0.1509246826171875
2202435795125,0.090979665517807,-9.977835655212402,0.7362170219421387,-0.1823340505361557,0.00692070834338665,0.1538526713848114
2202437032487,0.1149216815829277,-9.941922187805176,0.7182605266571045,-0.1852620393037796,0.010381062515079975,0.1525217741727829
2202438269862,0.12210428714752197,-9.940725326538086,0.7182605266571045,-0.1839311420917511,0.01117960549890995,0.1509246826171875
2202439507225,0.11133038252592087,-9.932345390319824,0.7469909191131592,-0.1849958598613739,0.0119781494140625,0.1575792133808136
2202440744600,0.152031809091568,-9.93593692779541,0.7134721279144287,-0.1863267719745636,0.015172322280704975,0.1549174040555954
2202441981950,0.0802057608962059,-9.917980194091797,0.6847416758537292,-0.1897871196269989,0.010913425125181675,0.158111572265625
2202443219325,0.08619125932455063,-9.93593692779541,0.7182605266571045,-0.1924489289522171,0.0114457868039608,0.16290283203125
2202444456700,0.1173158809542656,-9.917980194091797,0.7003040313720703,-0.1932474672794342,0.010647243820130825,0.1623704731464386
2202445694050,0.08619125932455063,-9.964667320251465,0.6572083830833435,-0.1903194785118103,0.006122165359556675,0.1621042937040329
2202446931425,0.08738835901021957,-9.910798072814941,0.7134721279144287,-0.1919165700674057,0.0042588976211845875,0.1663631796836853
2202448168800,0.05267243832349777,-9.938331604003906,0.706289529800415,-0.1969740092754364,0.01410759799182415,0.1698235422372818
2202449406162,0.09696517139673233,-9.939528465270996,0.7410054206848145,-0.1943121999502182,0.0157046839594841,0.1684926301240921
2202450643525,0.08259996026754379,-9.93474006652832,0.7422025203704834,-0.1951107382774353,0.01410759799182415,0.1684926301240921
2202451880900,0.12689268589019775,-9.973047256469727,0.7445967197418213,-0.2036285400390625,0.012510511092841625,0.1743486225605011
2202453118262,0.09217676520347595,-9.944316864013672,0.7158663272857666,-0.2009667307138443,0.010647243820130825,0.171420618891716
2202454355637,0.12090718746185303,-9.938331604003906,0.7182605266571045,-0.1999019980430603,0.01463996060192585,0.1660970002412796
2202455593012,0.10893617570400238,-9.926360130310059,0.729034423828125,-0.2030961811542511,0.012510511092841625,0.1644999235868454
2202456830375,0.12330138683319092,-9.940725326538086,0.7242460250854492,-0.2052256166934967,0.01224433071911335,0.1690249890089035
2202458067762,0.15083470940589905,-9.955090522766113,0.6751648783683777,-0.2022976279258728,0.010381062515079975,0.176211878657341
2202459305112,0.09816227108240128,-9.919178009033203,0.7182605266571045,-0.2062903493642807,0.0114457868039608,0.1722191721200943
2202460542462,0.12090718746185303,-9.941922187805176,0.7194576263427734,-0.2076212465763092,0.0090501569211483,0.1759456992149353
2202461779837,0.0933738648891449,-9.862914085388184,0.7206547260284424,-0.2086859792470932,0.01171196810901165,0.1743486225605011
2202463017225,0.1412578970193863,-9.90361499786377,0.6823474764823914,-0.2108154296875,0.012510511092841625,0.1764780580997467
2202464254562,0.08738835901021957,-9.904812812805176,0.6883329749107361,-0.2118801474571228,0.0090501569211483,0.1802046000957489
2202465491937,0.06464345008134842,-9.911994934082031,0.7254431247711182,-0.2068227082490921,0.00452507846057415,0.18206787109375
2202466729287,0.12928690016269684,-9.870096206665039,0.730231523513794,-0.2054918110370636,0.008251613937318325,0.1767442524433136
2202467966687,0.10654197633266449,-9.854534149169922,0.7122750282287598,-0.2068227082490921,0.0090501569211483,0.1764780580997467
2202469204050,0.09457096457481384,-9.897629737854004,0.729034423828125,-0.2121463268995285,0.005589802749454975,0.1826002299785614
2202470441412,0.09816227108240128,-9.891644477844238,0.689530074596405,-0.2132110595703125,0.01171196810901165,0.1748809814453125
2202471678775,0.11372458189725876,-9.852140426635742,0.7050924301147461,-0.2084197998046875,0.007453070487827063,0.1722191721200943
2202472916162,0.13407529890537262,-9.84495735168457,0.7230489253997803,-0.204959437251091,0.003460354171693325,0.1802046000957489
2202474153500,0.11851298809051514,-9.831789016723633,0.690727174282074,-0.2102830708026886,0.012510511092841625,0.1764780580997467
2202475390875,0.11133038252592087,-9.849745750427246,0.707486629486084,-0.2086859792470932,0.00958251953125,0.1786075085401535
2202476628262,0.1256955862045288,-9.830592155456543,0.727837324142456,-0.2102830708026886,0.0039927163161337376,0.1796722412109375
2202477865612,0.12090718746185303,-9.829395294189453,0.6631938815116882,-0.2084197998046875,0.0053236219100654125,0.1759456992149353
2202479102987,0.11013327538967133,-9.830592155456543,0.6835445761680603,-0.2081536203622818,0.0066545275039970875,0.1748809814453125
2202480340362,0.08978256583213806,-9.81143856048584,0.6871358752250671,-0.2102830708026886,0.00452507846057415,0.176211878657341
2202481577712,0.05027823522686958,-9.819818496704102,0.6631938815116882,-0.204959437251091,0.0031941730994731188,0.1740824282169342
2202482815075,0.11971008777618408,-9.80904483795166,0.6619967818260193,-0.2038947194814682,-0.0002661811013240367,0.1722191721200943
2202484052450,0.12689268589019775,-9.80904483795166,0.6619967818260193,-0.204959437251091,0.0042588976211845875,0.171420618891716
2202485289812,0.1041477769613266,-9.800664901733398,0.6667851805686951,-0.2022976279258728,0.0029279920272529125,0.1719529926776886
2202486527187,0.11013327538967133,-9.803058624267578,0.6093243360519409,-0.2044270783662796,0.0002661811013240367,0.1682264506816864
2202487764550,0.10534487664699554,-9.789891242980957,0.7086837291717529,-0.2033623605966568,0.005589802749454975,0.166629359126091
2202489001912,0.11372458189725876,-9.805453300476074,0.7026982307434082,-0.2007005512714386,0.0029279920272529125,0.1679602712392807
2202490239262,0.08619125932455063,-9.765949249267578,0.6775590777397156,-0.1983049213886261,0.0002661811013240367,0.1743486225605011
2202491476650,0.13168109953403473,-9.770737648010254,0.7050924301147461,-0.1972401887178421,0.0005323622026480734,0.1663631796836853
2202492714025,0.15322890877723694,-9.757569313049316,0.6488286852836609,-0.1932474672794342,-0.004791259765625,0.1626366525888443
2202493951400,0.14604631066322327,-9.746795654296875,0.6703764796257019,-0.1977725476026535,0.0015970865497365594,0.1621042937040329
2202495188762,0.08978256583213806,-9.771934509277344,0.667982280254364,-0.1879238486289978,-0.0002661811013240367,0.1615719199180603
2202496426125,0.07302315533161163,-9.785102844238281,0.7242460250854492,-0.1921827495098114,-0.0029279920272529125,0.1591762900352478
2202497663500,0.08379705995321274,-9.831789016723633,0.6428431868553162,-0.1903194785118103,-0.0042588976211845875,0.1610395610332489
2202498900850,0.10055647045373917,-9.774328231811523,0.6500257849693298,-0.1903194785118103,0.0002661811013240367,0.1607733815908432
2202500138237,0.10654197633266449,-9.726444244384766,0.628477931022644,-0.1865929514169693,-0.006122165359556675,0.1575792133808136
2202501375587,0.090979665517807,-9.7420072555542,0.6117185354232788,-0.1873914897441864,-0.007985432632267475,0.1535864919424057
2202502612975,0.1149216815829277,-9.737218856811523,0.6524199843406677,-0.1871253103017807,-0.005855984054505825,0.1551835834980011
2202503850312,0.09457096457481384,-9.77552604675293,0.6991068720817566,-0.1802046000957489,-0.006122165359556675,0.1527879536151886
2202505087700,0.06823474913835526,-9.747992515563965,0.6344634294509888,-0.1823340505361557,-0.0114457868039608,0.1458672434091568
2202506325062,0.09457096457481384,-9.750386238098145,0.6548141837120056,-0.185794398188591,-0.0053236219100654125,0.1471981406211853
2202507562425,0.05267243832349777,-9.714473724365234,0.6224924325942993,-0.1839311420917511,-0.0013309054775163531,0.1463996022939682
2202508799800,0.0586579404771328,-9.72165584564209,0.6524199843406677,-0.1783413290977478,-0.010381062515079975,0.1466657817363739
2202510037150,0.035913024097681046,-9.692925453186035,0.6787561774253845,-0.1756795197725296,-0.008251613937318325,0.1442701518535614
2202511274525,0.02992752194404602,-9.668983459472656,0.6536170840263367,-0.1743486225605011,-0.00452507846057415,0.1416083425283432
2202512511900,0.020350715145468712,-9.68694019317627,0.6356605291366577,-0.1743486225605011,-0.007985432632267475,0.1421407014131546
2202513749262,0.06703764945268631,-9.643844604492188,0.6021417379379272,-0.1711544394493103,-0.0077192517928779125,0.1357523649930954
2202514986625,0.05506663769483566,-9.702502250671387,0.5985504388809204,-0.1650322824716568,-0.0077192517928779125,0.1373494416475296
2202516224000,-0.0071826050989329815,-9.68813705444336,0.6165069341659546,-0.1631690114736557,-0.008783976547420025,0.1370832622051239
2202517461375,-0.02753331884741783,-9.672574996948242,0.6488286852836609,-0.1626366525888443,-0.0007985432748682797,0.1301625519990921
2202518698737,-0.017956512048840523,-9.702502250671387,0.6033388376235962,-0.1549174040555954,-0.0071868896484375,0.1317596435546875
2202519936100,-0.011971008963882923,-9.726444244384766,0.6117185354232788,-0.157046839594841,-0.00931633822619915,0.1325581818819046
2202521173475,0.016759412363171577,-9.695320129394531,0.608127236366272,-0.1562483012676239,-0.012510511092841625,0.1317596435546875
2202522410850,-0.019153613597154617,-9.704896926879883,0.5997475385665894,-0.1559821218252182,-0.01171196810901165,0.1248389333486557
2202523648212,0.0059855044819414616,-9.680954933166504,0.6165069341659546,-0.152255579829216,-0.0114457868039608,0.1216447576880455
2202524885575,-0.009576806798577309,-9.609128952026367,0.6380547285079956,-0.1530541330575943,-0.008517795242369175,0.1261698454618454
2202526122962,-0.020350715145468712,-9.65222454071045,0.5901707410812378,-0.1493275910615921,-0.0119781494140625,0.1243065744638443
2202527360300,-0.0454898327589035,-9.673771858215332,0.5961562395095825,-0.1416083425283432,-0.01117960549890995,0.1200476735830307
2202528597687,-0.0011971008498221636,-9.649829864501953,0.5997475385665894,-0.14373779296875,-0.0066545275039970875,0.1187167689204216
2202529835037,-0.04429273307323456,-9.651026725769043,0.6440402865409851,-0.1434716135263443,-0.010114881210029125,0.1168534979224205
2202531072412,-0.019153613597154617,-9.66539192199707,0.5829881429672241,-0.1392127126455307,-0.012510511092841625,0.1181844025850296
2202532309787,0.02274491637945175,-9.72165584564209,0.5410895943641663,-0.1376156210899353,-0.008517795242369175,0.1163211390376091
2202533547150,0.002394201699644327,-9.660603523254395,0.5159504413604736,-0.1354861706495285,-0.008517795242369175,0.1133931428194046
2202534784512,-0.009576806798577309,-9.670180320739746,0.5650315880775452,-0.1352199912071228,-0.007985432632267475,0.1099327951669693
2202536021887,-0.0347159244120121,-9.694122314453125,0.4944026470184326,-0.1317596435546875,-0.00984870083630085,0.1163211390376091
2202537259250,-0.0454898327589035,-9.651026725769043,0.4991910457611084,-0.1322920024394989,-0.01117960549890995,0.1115298792719841
2202538496600,0.013168109580874443,-9.6618013381958,0.5602431893348694,-0.133090540766716,-0.013309055007994175,0.1056738942861557
2202539733987,-0.019153613597154617,-9.651026725769043,0.5315127968788147,-0.129364013671875,-0.007453070487827063,0.1067386195063591
2202540971350,-0.090979665517807,-9.66419506072998,0.5183447003364563,-0.1290978342294693,-0.0026618109550327063,0.10540771484375
2202542208712,-0.0694318488240242,-9.690531730651855,0.5015852451324463,-0.1216447576880455,-0.00692070834338665,0.1032782644033432
2202543446075,-0.05626374110579491,-9.673771858215332,0.5063736438751221,-0.1224433034658432,-0.0071868896484375,0.0942281037569046
2202544683450,-0.05147533863782883,-9.708487510681152,0.5662286877632141,-0.1139255091547966,-0.010114881210029125,0.0990193635225296
2202545920825,-0.05746084079146385,-9.712079048156738,0.5518634915351868,-0.1152564138174057,-0.006122165359556675,0.0966237336397171
2202547158187,-0.09935937076807022,-9.714473724365234,0.4812345504760742,-0.1187167689204216,-0.005589802749454975,0.0984870046377182
2202548395562,-0.023942017927765846,-9.700108528137207,0.569819986820221,-0.1152564138174057,-0.010913425125181675,0.0990193635225296
2202549632937,-0.06344634294509888,-9.730035781860352,0.5219359993934631,-0.1115298792719841,-0.0114457868039608,0.0865088552236557
2202550870300,-0.07900865375995636,-9.75517463684082,0.5015852451324463,-0.1094004288315773,-0.010647243820130825,0.0886383056640625
2202552107650,-0.09696517139673233,-9.703699111938477,0.5351040959358215,-0.1067386195063591,-0.010114881210029125,0.0936957448720932
2202553345012,-0.05386953800916672,-9.75517463684082,0.5123591423034668,-0.1094004288315773,-0.010913425125181675,0.0894368439912796
2202554582400,-0.1280897855758667,-9.757569313049316,0.5279214978218079,-0.1117960587143898,-0.0010647244052961469,0.0838470458984375
2202555819762,-0.10654197633266449,-9.734824180603027,0.5746083855628967,-0.1051415354013443,0.0010647244052961469,0.0819837749004364
2202557057125,-0.1364694982767105,-9.734824180603027,0.5494692921638489,-0.1038106232881546,-0.0039927163161337376,0.0785234197974205
2202558294500,-0.12928690016269684,-9.732430458068848,0.524330198764801,-0.1059400737285614,-0.008251613937318325,0.081451416015625
2202559531875,-0.14245499670505524,-9.72285270690918,0.5231330990791321,-0.1046091690659523,-0.0031941730994731188,0.0782572403550148
2202560769237,-0.09696517139673233,-9.771934509277344,0.4704606235027313,-0.0995517298579216,-0.0005323622026480734,0.071336530148983
2202562006587,-0.13287819921970367,-9.757569313049316,0.49559974670410156,-0.1016811802983284,-0.0023956298828125,0.0769263356924057
2202563243962,-0.14006079733371735,-9.692925453186035,0.43095630407333374,-0.0992855504155159,-0.0018632676219567657,0.0782572403550148
2202564481337,-0.12689268589019775,-9.7420072555542,0.47644615173339844,-0.0979546457529068,-0.0031941730994731188,0.071868896484375
2202565718712,-0.152031809091568,-9.75517463684082,0.4752490520477295,-0.095292828977108,-0.0007985432748682797,0.0686747208237648
2202566956075,-0.1364694982767105,-9.757569313049316,0.4776432514190674,-0.0974222794175148,0.0007985432748682797,0.0657467320561409
2202568193437,-0.13766659796237946,-9.720458984375,0.47644615173339844,-0.095292828977108,-0.004791259765625,0.0676099956035614
2202569430812,-0.14844051003456116,-9.701305389404297,0.4297592043876648,-0.0936957448720932,-0.0013309054775163531,0.06707763671875
2202570668175,-0.16998831927776337,-9.770737648010254,0.47884035110473633,-0.0942281037569046,0.0002661811013240367,0.062286376953125
2202571905512,-0.1735796183347702,-9.737218856811523,0.4537012279033661,-0.0902353897690773,-0.0015970865497365594,0.0588260218501091
2202573142912,-0.15682020783424377,-9.724050521850586,0.4668693244457245,-0.0902353897690773,0.0026618109550327063,0.0598907470703125
2202574380275,-0.16519992053508759,-9.6989107131958,0.4692635238170624,-0.0870412141084671,0.0029279920272529125,0.0617540143430233
2202575617662,-0.152031809091568,-9.718064308166504,0.48722004890441895,-0.0846455842256546,0.0021294488105922937,0.0580274797976017
2202576855025,-0.1496376097202301,-9.724050521850586,0.48482584953308105,-0.0827823206782341,0.005855984054505825,0.0521714948117733
2202578092400,-0.1364694982767105,-9.680954933166504,0.44771572947502136,-0.0833146795630455,0.0013309054775163531,0.0532362200319767
2202579329750,-0.1975216418504715,-9.715670585632324,0.4465186297893524,-0.0819837749004364,0.005589802749454975,0.0463155098259449
2202580567125,-0.19273324310779572,-9.707290649414062,0.43335050344467163,-0.0803866907954216,0.010114881210029125,0.0513729527592659
2202581804462,-0.18555063009262085,-9.718064308166504,0.4668693244457245,-0.0787896066904068,0.010647243820130825,0.0457831472158432
2202583041850,-0.20111294090747833,-9.68813705444336,0.47644615173339844,-0.076127789914608,0.00958251953125,0.0487111397087574
2202584279225,-0.20470423996448517,-9.733627319335938,0.4908113479614258,-0.0731998011469841,0.0071868896484375,0.04791259765625
2202585516575,-0.16879121959209442,-9.757569313049316,0.4812345504760742,-0.0729336217045784,0.00958251953125,0.0425889752805233
2202586753962,-0.1951274424791336,-9.767146110534668,0.43933600187301636,-0.0724012553691864,0.01357523538172245,0.0401933453977108
2202587991325,-0.20949265360832214,-9.725247383117676,0.4812345504760742,-0.071868896484375,0.01171196810901165,0.0441860631108284
2202589228700,-0.20709845423698425,-9.757569313049316,0.4752490520477295,-0.0694732666015625,0.010381062515079975,0.0409918874502182
2202590466050,-0.20470423996448517,-9.75278091430664,0.45848962664604187,-0.0700056254863739,0.0138414166867733,0.0377977155148983
2202591703425,-0.17477671802043915,-9.75517463684082,0.4225766062736511,-0.0716027170419693,0.015172322280704975,0.0399271659553051
2202592940800,-0.19871874153614044,-9.797073364257812,0.4429273307323456,-0.0692070871591568,0.014906140975654125,0.0372653529047966
2202594178175,-0.1999158412218094,-9.769539833068848,0.37828385829925537,-0.0641496405005455,0.01597086526453495,0.0369991734623909
2202595415500,-0.20470423996448517,-9.782708168029785,0.47405195236206055,-0.0641496405005455,0.01943122036755085,0.0343373604118824
2202596652900,-0.181959331035614,-9.75278091430664,0.39624038338661194,-0.0662790909409523,0.0196974016726017,0.0354020856320858
2202597890250,-0.20709845423698425,-9.736021041870117,0.395043283700943,-0.0644158273935318,0.0173017717897892,0.033538818359375
2202599127625,-0.18555063009262085,-9.692925453186035,0.45010992884635925,-0.0609554722905159,0.02315775491297245,0.033272635191679
2202600364987,-0.16400282084941864,-9.726444244384766,0.38905778527259827,-0.0593583844602108,0.0210283063352108,0.0306108258664608
2202601602362,-0.18555063009262085,-9.75517463684082,0.4381389021873474,-0.0646820068359375,0.02369011752307415,0.0271504707634449
2202602839750,-0.21547815203666687,-9.7420072555542,0.46327802538871765,-0.0596245639026165,0.02502102218568325,0.0271504707634449
2202604077100,-0.1999158412218094,-9.709685325622559,0.42377370595932007,-0.0577612966299057,0.0263519287109375,0.02741665206849575
2202605314475,-0.2059013545513153,-9.737218856811523,0.4225766062736511,-0.0561642125248909,0.0324740931391716,0.02741665206849575
2202606551837,-0.18315643072128296,-9.703699111938477,0.4429273307323456,-0.0545671246945858,0.02848137728869915,0.02555338479578495
2202607789212,-0.1975216418504715,-9.703699111938477,0.4189853072166443,-0.0492435023188591,0.02741665206849575,0.0252872034907341
2202609026575,-0.1999158412218094,-9.701305389404297,0.4118027091026306,-0.0484449602663517,0.03034464456140995,0.0295461006462574
2202610263937,-0.23582887649536133,-9.674968719482422,0.4465186297893524,-0.0457831472158432,0.02741665206849575,0.0271504707634449
2202611501300,-0.2059013545513153,-9.671378135681152,0.3794809579849243,-0.0412580706179142,0.0343373604118824,0.02369011752307415
2202612738700,-0.18914192914962769,-9.653421401977539,0.37828385829925537,-0.0457831472158432,0.0346035435795784,0.02022976242005825
2202613976037,-0.19871874153614044,-9.671378135681152,0.39624038338661194,-0.0444522425532341,0.0401933453977108,0.01756795309484005
2202615213412,-0.20709845423698425,-9.68933391571045,0.4381389021873474,-0.0393948033452034,0.0362006276845932,0.0196974016726017
2202616450800,-0.2513911724090576,-9.728838920593262,0.456095427274704,-0.043121337890625,0.0324740931391716,0.0167694091796875
2202617688150,-0.20709845423698425,-9.7420072555542,0.4405331015586853,-0.0452507846057415,0.0367329902946949,0.0157046839594841
2202618925525,-0.18555063009262085,-9.672574996948242,0.41539400815963745,-0.0391286201775074,0.0425889752805233,0.0181003138422966
2202620162887,-0.2621650993824005,-9.695320129394531,0.4441244304180145,-0.0375315360724926,0.0436537005007267,0.01357523538172245
2202621400237,-0.21547815203666687,-9.706093788146973,0.4620809257030487,-0.0316755510866642,0.0407257080078125,0.01943122036755085
2202622637625,-0.25737667083740234,-9.704896926879883,0.3902548849582672,-0.03034464456140995,0.0447184219956398,0.0162370465695858
2202623874987,-0.23822307586669922,-9.732430458068848,0.4034229815006256,-0.033272635191679,0.0489773228764534,0.01357523538172245
2202625112350,-0.18076223134994507,-9.746795654296875,0.3842693865299225,-0.03034464456140995,0.0457831472158432,0.010114881210029125
2202626349725,-0.2406172752380371,-9.738415718078613,0.4082113802433014,-0.033272635191679,0.0439198799431324,0.007453070487827063
2202627587075,-0.2454056739807129,-9.731232643127441,0.3818751871585846,-0.02901373989880085,0.0505744069814682,0.00984870083630085
2202628824462,-0.2561795711517334,-9.709685325622559,0.40222588181495667,-0.0244886614382267,0.0508405901491642,0.010647243820130825
2202630061837,-0.2406172752380371,-9.733627319335938,0.4082113802433014,-0.02608574740588665,0.0564303919672966,0.00958251953125
2202631299175,-0.29807811975479126,-9.707290649414062,0.4189853072166443,-0.02661811001598835,0.0590922012925148,0.008783976547420025
2202632536550,-0.21667525172233582,-9.745597839355469,0.37229835987091064,-0.02315775491297245,0.0596245639026165,0.0013309054775163531
2202633773925,-0.24420857429504395,-9.714473724365234,0.4082113802433014,-0.02182685025036335,0.0609554722905159,0.0021294488105922937
2202635011300,-0.23702597618103027,-9.697713851928711,0.38905778527259827,-0.02182685025036335,0.0633511021733284,0.0
2202636248662,-0.21787235140800476,-9.700108528137207,0.4489128291606903,-0.0204959437251091,0.0617540143430233,-0.0037265352439135313
2202637486037,-0.2621650993824005,-9.72285270690918,0.3878606855869293,-0.0223592109978199,0.066545270383358,-0.0037265352439135313
2202638723400,-0.27653029561042786,-9.701305389404297,0.41060560941696167,-0.0186326764523983,0.0700056254863739,-0.0042588976211845875
2202639960762,-0.24420857429504395,-9.708487510681152,0.4381389021873474,-0.01410759799182415,0.0689409002661705,-0.0039927163161337376
2202641198137,-0.27054479718208313,-9.739612579345703,0.38067808747291565,-0.0157046839594841,0.0644158273935318,-0.0063883461989462376
2202642435500,-0.29209262132644653,-9.738415718078613,0.35913026332855225,-0.015438503585755825,0.0705379918217659,-0.00931633822619915
2202643672887,-0.2908955216407776,-9.714473724365234,0.3663128614425659,-0.013309055007994175,0.0755954310297966,-0.012776692397892475
2202644910225,-0.27892449498176575,-9.759963035583496,0.3818751871585846,-0.0138414166867733,0.0777248814702034,-0.010381062515079975
2202646147600,-0.2944868206977844,-9.714473724365234,0.35434186458587646,-0.010381062515079975,0.0753292515873909,-0.0138414166867733
2202647384975,-0.35673606395721436,-9.733627319335938,0.365115761756897,-0.00692070834338665,0.0811852365732193,-0.01943122036755085
2202648622337,-0.3687070608139038,-9.740809440612793,0.39624038338661194,-0.00452507846057415,0.0838470458984375,-0.01410759799182415
2202649859712,-0.31124621629714966,-9.768342971801758,0.38067808747291565,-0.005057440605014563,0.081451416015625,-0.0162370465695858
2202651097087,-0.363918662071228,-9.771934509277344,0.35434186458587646,-0.0018632676219567657,0.0894368439912796,-0.0215606689453125
2202652334450,-0.3280056416988373,-9.764751434326172,0.41299980878829956,-0.0002661811013240367,0.0873074010014534,-0.02076212503015995
2202653571825,-0.30047231912612915,-9.77791976928711,0.3663128614425659,-0.0013309054775163531,0.0899692103266716,-0.0247548408806324
2202654809175,-0.3315969407558441,-9.774328231811523,0.3770867586135864,-0.0021294488105922937,0.0936957448720932,-0.03087700717151165
2202656046537,-0.3423708379268646,-9.781511306762695,0.3902548849582672,-0.0031941730994731188,0.0934295654296875,-0.02608574740588665
2202657283937,-0.33039984107017517,-9.758766174316406,0.3687070608139038,-0.0037265352439135313,0.0984870046377182,-0.0324740931391716
2202658521287,-0.2992752194404602,-9.761160850524902,0.4118027091026306,-0.0023956298828125,0.1080695241689682,-0.0385962575674057
2202659758650,-0.31603461503982544,-9.780314445495605,0.36152446269989014,0.0002661811013240367,0.1083357036113739,-0.0327402763068676
2202660996025,-0.3148375153541565,-9.757569313049316,0.3387795388698578,-0.0005323622026480734,0.1117960587143898,-0.0359344482421875
2202662233375,-0.33279404044151306,-9.81143856048584,0.35075056552886963,0.0029279920272529125,0.1107313334941864,-0.0407257080078125
2202663470762,-0.36990416049957275,-9.786299705505371,0.31842881441116333,0.0037265352439135313,0.1141916885972023,-0.0375315360724926
2202664708125,-0.3711012601852417,-9.785102844238281,0.3208230435848236,0.0018632676219567657,0.1141916885972023,-0.0425889752805233
2202665945500,-0.4010287821292877,-9.785102844238281,0.36750996112823486,0.005855984054505825,0.1181844025850296,-0.0447184219956398
2202667182862,-0.3998316824436188,-9.782708168029785,0.363918662071228,0.00931633822619915,0.1216447576880455,-0.0471140518784523
2202668420225,-0.36990416049957275,-9.758766174316406,0.34356793761253357,0.0114457868039608,0.1280331015586853,-0.0465816929936409
2202669657600,-0.39863458275794983,-9.75397777557373,0.3555389642715454,0.0066545275039970875,0.1290978342294693,-0.0468478724360466
2202670894962,-0.44532153010368347,-9.81263542175293,0.33518823981285095,0.010381062515079975,0.1290978342294693,-0.0447184219956398
2202672132337,-0.40222588181495667,-9.81263542175293,0.35434186458587646,0.01171196810901165,0.1349538117647171,-0.0543009415268898
2202673369712,-0.43335050344467163,-9.785102844238281,0.3363853394985199,0.01357523538172245,0.1381479948759079,-0.0564303919672966
2202674607075,-0.42018240690231323,-9.7791166305542,0.3555389642715454,0.01357523538172245,0.137881800532341,-0.0495096817612648
2202675844450,-0.4441244304180145,-9.806650161743164,0.31842881441116333,0.013309055007994175,0.1432054340839386,-0.0500420443713665
2202677081825,-0.45010992884635925,-9.818621635437012,0.31124621629714966,0.00958251953125,0.1456010639667511,-0.0529700368642807
2202678319175,-0.42616790533065796,-9.831789016723633,0.3687070608139038,0.010913425125181675,0.1503923237323761,-0.0556318499147892
2202679556550,-0.5135562419891357,-9.824606895446777,0.3411737382411957,0.0157046839594841,0.1567806601524353,-0.0558980293571949
2202680793925,-0.4884171485900879,-9.81263542175293,0.38067808747291565,0.0119781494140625,0.1637013703584671,-0.0537685826420784
2202682031287,-0.545877993106842,-9.830592155456543,0.41299980878829956,0.0138414166867733,0.1682264506816864,-0.0564303919672966
2202683268662,-0.5638344883918762,-9.830592155456543,0.3902548849582672,0.0119781494140625,0.1716867983341217,-0.0529700368642807
2202684506012,-0.6368576288223267,-9.818621635437012,0.3579331636428833,0.0119781494140625,0.1794060617685318,-0.0556318499147892
2202685743387,-0.6811503767967224,-9.840168952941895,0.3818751871585846,0.014373779296875,0.1826002299785614,-0.04791259765625
2202686980762,-0.6991068720817566,-9.86650562286377,0.3208230435848236,0.010647243820130825,0.1919165700674057,-0.0508405901491642
2202688218125,-0.7410054206848145,-9.913191795349121,0.30885201692581177,0.0071868896484375,0.1972401887178421,-0.0511067695915699
2202689455500,-0.8080430626869202,-9.891644477844238,0.2968810200691223,0.010381062515079975,0.2070888876914978,-0.0460493303835392
2202690692862,-0.8547300100326538,-9.891644477844238,0.3292027413845062,0.01117960549890995,0.2140095978975296,-0.0481787770986557
2202691930237,-0.8966285586357117,-9.920374870300293,0.28969842195510864,0.00958251953125,0.2219950258731842,-0.0441860631108284
2202693167587,-0.9588778018951416,-9.925163269042969,0.34596213698387146,0.006122165359556675,0.2326422780752182,-0.0423227921128273
2202694404962,-1.0247182846069336,-9.90361499786377,0.3076549172401428,0.0,0.2414262592792511,-0.0449846051633358
2202695642337,-1.048660397529602,-9.874884605407715,0.30286651849746704,0.0023956298828125,0.2507425844669342,-0.0393948033452034
2202696879700,-1.0438719987869263,-9.864110946655273,0.30885201692581177,0.0026618109550327063,0.263519287109375,-0.0423227921128273
2202698117062,-1.0414777994155884,-9.827000617980957,0.30286651849746704,-0.0010647244052961469,0.2768283486366272,-0.0423227921128273
2202699354437,-1.0881646871566772,-9.791088104248047,0.3256114423274994,0.0015970865497365594,0.2829504907131195,-0.0372653529047966
2202700591800,-1.0869675874710083,-9.72165584564209,0.3519476652145386,0.0,0.2973242700099945,-0.0330064557492733
2202701829162,-1.1085153818130493,-9.768342971801758,0.32441434264183044,0.0002661811013240367,0.3082377016544342,-0.0324740931391716
2202703066550,-1.1408370733261108,-9.700108528137207,0.3208230435848236,0.0015970865497365594,0.3231438398361206,-0.0322079136967659
2202704303900,-1.1264718770980835,-9.677363395690918,0.34356793761253357,0.0037265352439135313,0.3343234658241272,-0.0327402763068676
2202705541262,-1.1456254720687866,-9.673771858215332,0.35673606395721436,0.0071868896484375,0.3436397910118103,-0.0300784632563591
2202706778675,-1.1540051698684692,-9.65222454071045,0.3447650372982025,0.008517795242369175,0.3574812114238739,-0.0252872034907341
2202708016012,-1.169567584991455,-9.610325813293457,0.40701428055763245,0.008251613937318325,0.3745167851448059,-0.02555338479578495
2202709253387,-1.191115379333496,-9.583989143371582,0.3818751871585846,0.013042873702943325,0.3843654990196228,-0.014373779296875
2202710490737,-1.1552022695541382,-9.606734275817871,0.41778820753097534,0.0162370465695858,0.3936818242073059,-0.015438503585755825
2202711728125,-1.1444283723831177,-9.622296333312988,0.3902548849582672,0.01703559048473835,0.4077894389629364,-0.01224433071911335
2202712965487,-1.1516109704971313,-9.637859344482422,0.4034229815006256,0.01836649514734745,0.419501394033432,-0.008783976547420025
2202714202850,-1.169567584991455,-9.653421401977539,0.36152446269989014,0.02555338479578495,0.4320119023323059,-0.00692070834338665
2202715440237,-1.116895079612732,-9.676166534423828,0.3902548849582672,0.0292799212038517,0.4426591694355011,-0.008251613937318325
2202716677575,-1.116895079612732,-9.72165584564209,0.39145198464393616,0.02981228195130825,0.4559682011604309,-0.0010647244052961469
2202717914962,-1.1420341730117798,-9.77791976928711,0.3387795388698578,0.0319417305290699,0.4671478271484375,0.0
2202719152325,-1.0594342947006226,-9.783905029296875,0.3256114423274994,0.0327402763068676,0.4777950644493103,-0.0002661811013240367
2202720389700,-1.0546458959579468,-9.819818496704102,0.3471592366695404,0.0399271659553051,0.4974924623966217,0.0007985432748682797
2202721627050,-1.0103530883789062,-9.911994934082031,0.38546648621559143,0.0369991734623909,0.5073411464691162,0.0039927163161337376
2202722864437,-0.99479079246521,-9.96825885772705,0.3758896589279175,0.0348697230219841,0.5174560546875,0.005855984054505825
2202724101800,-0.9756371974945068,-10.007762908935547,0.38905778527259827,0.038063894957304,0.5249091386795044,0.0063883461989462376
2202725339162,-0.9624691009521484,-9.99100399017334,0.4058171808719635,0.0338049978017807,0.5382182002067566,0.0071868896484375
2202726576537,-0.888248860836029,-9.985018730163574,0.4010287821292877,0.0348697230219841,0.5446065068244934,0.0119781494140625
2202727813912,-0.849941611289978,-10.012551307678223,0.42856210470199585,0.0354020856320858,0.5565846562385559,0.010114881210029125
2202729051262,-0.8020575642585754,-10.054450035095215,0.40940847992897034,0.0319417305290699,0.5704261064529419,0.008783976547420025
2202730288637,-0.7805097699165344,-10.074800491333008,0.3603273630142212,0.0292799212038517,0.5722893476486206,0.01117960549890995
2202731526025,-0.7709329724311829,-10.04846477508545,0.33279404044151306,0.0271504707634449,0.5770806074142456,0.008517795242369175
2202732763387,-0.730231523513794,-10.02571964263916,0.36152446269989014,0.0244886614382267,0.5869293212890625,0.0063883461989462376
2202734000750,-0.6943184733390808,-10.010157585144043,0.3579331636428833,0.02661811001598835,0.598907470703125,0.0063883461989462376
2202735238112,-0.6320692300796509,-9.979032516479492,0.4118027091026306,0.0220930315554142,0.608489990234375,0.004791259765625
2202736475500,-0.6093243360519409,-9.949105262756348,0.41778820753097534,0.02022976242005825,0.6148783564567566,0.005057440605014563
2202737712850,-0.569819986820221,-9.952696800231934,0.4297592043876648,0.0204959437251091,0.6212666630744934,0.00984870083630085
2202738950225,-0.5422866940498352,-9.921571731567383,0.4908113479614258,0.01756795309484005,0.627655029296875,0.010647243820130825
2202740187587,-0.5063736438751221,-9.920374870300293,0.4692635238170624,0.0181003138422966,0.6356404423713684,0.0063883461989462376
2202741424950,-0.47405195236206055,-9.876082420349121,0.5027823448181152,0.0196974016726017,0.6380360722541809,0.0077192517928779125
2202742662312,-0.5422866940498352,-9.847352027893066,0.4704606235027313,0.02422248013317585,0.6414964199066162,0.0037265352439135313
2202743899700,-0.456095427274704,-9.84495735168457,0.42377370595932007,0.01996358297765255,0.6470862627029419,0.0013309054775163531
2202745137075,-0.395043283700943,-9.824606895446777,0.4381389021873474,0.012776692397892475,0.6526760458946228,0.00984870083630085
2202746374437,-0.3866635859012604,-9.807847023010254,0.4620809257030487,0.0162370465695858,0.6577335000038147,0.0053236219100654125
2202747611800,-0.395043283700943,-9.77791976928711,0.4812345504760742,0.0196974016726017,0.656402587890625,0.0015970865497365594
2202748849175,-0.3794809579849243,-9.769539833068848,0.44532153010368347,0.01943122036755085,0.6619923710823059,0.0
2202750086537,-0.36750996112823486,-9.763554573059082,0.4908113479614258,0.01996358297765255,0.6702439785003662,0.00452507846057415
2202751323912,-0.36152446269989014,-9.716867446899414,0.5734112858772278,0.02369011752307415,0.671308696269989,0.0007985432748682797
2202752561287,-0.38307228684425354,-9.737218856811523,0.5231330990791321,0.02262539230287075,0.6745029091835022,-0.0042588976211845875
2202753798637,-0.31842881441116333,-9.758766174316406,0.47165775299072266,0.0228915736079216,0.6774308681488037,-0.00452507846057415
2202755036037,-0.3172317147254944,-9.750386238098145,0.4800374507904053,0.0186326764523983,0.6819559335708618,-0.0037265352439135313
2202756273387,-0.2801215946674347,-9.756372451782227,0.4920084476470947,0.02369011752307415,0.6848839521408081,-0.0037265352439135313
2202757510762,-0.2537853717803955,-9.761160850524902,0.5147533416748047,0.0271504707634449,0.6854163408279419,-0.013042873702943325
2202758748125,-0.23343466222286224,-9.800664901733398,0.4572925269603729,0.0234239362180233,0.6880781054496765,-0.0173017717897892
2202759985487,-0.22744916379451752,-9.786299705505371,0.4884171485900879,0.02555338479578495,0.6923370361328125,-0.01117960549890995
2202761222837,-0.18914192914962769,-9.757569313049316,0.4692635238170624,0.02661811001598835,0.6902076005935669,-0.015172322280704975
2202762460237,-0.2106897532939911,-9.794679641723633,0.48961424827575684,0.0292799212038517,0.6957973837852478,-0.01597086526453495
2202763697600,-0.16759411990642548,-9.773131370544434,0.4704606235027313,0.0271504707634449,0.6963297128677368,-0.0204959437251091
2202764934962,-0.16759411990642548,-9.773131370544434,0.5147533416748047,0.02874755859375,0.6915384531021118,-0.0215606689453125
2202766172337,-0.13287819921970367,-9.81024169921875,0.49320554733276367,0.0311431884765625,0.6883442997932434,-0.02022976242005825
2202767409687,-0.08259996026754379,-9.781511306762695,0.4644751250743866,0.02874755859375,0.6918046474456787,-0.0220930315554142
2202768647062,-0.07422025501728058,-9.781511306762695,0.524330198764801,0.0300784632563591,0.6942002773284912,-0.03087700717151165
2202769884462,-0.06823474913835526,-9.793481826782227,0.507570743560791,0.03087700717151165,0.6939340829849243,-0.02848137728869915
2202771121812,-0.05506663769483566,-9.827000617980957,0.5063736438751221,0.023956298828125,0.6923370361328125,-0.0306108258664608
2202772359175,-0.026336219161748886,-9.758766174316406,0.524330198764801,0.03087700717151165,0.68994140625,-0.0292799212038517
2202773596525,-0.020350715145468712,-9.787496566772461,0.43095630407333374,0.0319417305290699,0.6888766884803772,-0.0327402763068676
2202774833900,-0.02274491637945175,-9.800664901733398,0.4321534037590027,0.02874755859375,0.6872795820236206,-0.033538818359375
2202776071275,0.028730420395731926,-9.781511306762695,0.4537012279033661,0.033538818359375,0.6886104941368103,-0.0356682650744915
2202777308650,0.0586579404771328,-9.783905029296875,0.41299980878829956,0.0343373604118824,0.6840854287147522,-0.0346035435795784
2202778546012,0.10773907601833344,-9.847352027893066,0.49320554733276367,0.033272635191679,0.6827545166015625,-0.0396609827876091
2202779783400,0.13287819921970367,-9.780314445495605,0.47405195236206055,0.0327402763068676,0.6846177577972412,-0.042855154722929
2202781020737,0.09935937076807022,-9.774328231811523,0.47644615173339844,0.0354020856320858,0.6822221279144287,-0.0425889752805233
2202782258112,0.17238251864910126,-9.774328231811523,0.47405195236206055,0.0327402763068676,0.6745029091835022,-0.0449846051633358
2202783495500,0.12928690016269684,-9.783905029296875,0.47884035110473633,0.0356682650744915,0.6707763671875,-0.0505744069814682
2202784732875,0.1975216418504715,-9.770737648010254,0.4776432514190674,0.033272635191679,0.6699777841567993,-0.0495096817612648
2202785970225,0.2106897532939911,-9.805453300476074,0.50876784324646,0.0359344482421875,0.6683807373046875,-0.0521714948117733
2202787207587,0.2082955539226532,-9.785102844238281,0.45489832758903503,0.0396609827876091,0.6593305468559265,-0.0487111397087574
2202788444962,0.2190694510936737,-9.75397777557373,0.49799394607543945,0.0369991734623909,0.6534745693206787,-0.0500420443713665
2202789682325,0.23822307586669922,-9.798270225524902,0.48602294921875,0.0375315360724926,0.6510789394378662,-0.0588260218501091
2202790919712,0.27413609623908997,-9.7791166305542,0.4441244304180145,0.0399271659553051,0.6505466103553772,-0.062020193785429
2202792157087,0.1951274424791336,-9.780314445495605,0.4944026470184326,0.0436537005007267,0.6518775224685669,-0.0614878311753273
2202793394450,0.32680854201316833,-9.768342971801758,0.424970805644989,0.0449846051633358,0.6404317021369934,-0.0569627545773983
2202794631800,0.33758243918418884,-9.762357711791992,0.4644751250743866,0.0468478724360466,0.6340433955192566,-0.0588260218501091
2202795869175,0.2861070930957794,-9.781511306762695,0.456095427274704,0.0484449602663517,0.627655029296875,-0.06707763671875
2202797106562,0.28730419278144836,-9.77672290802002,0.42856210470199585,0.0487111397087574,0.6271226406097412,-0.0697394460439682
2202798343912,0.3148375153541565,-9.789891242980957,0.49320554733276367,0.0460493303835392,0.6255255937576294,-0.0705379918217659
2202799581287,0.35434186458587646,-9.806650161743164,0.48722004890441895,0.0449846051633358,0.6143459677696228,-0.0697394460439682
2202800818662,0.2944868206977844,-9.804256439208984,0.4884171485900879,0.0495096817612648,0.609022319316864,-0.0747968852519989
2202802056025,0.3172317147254944,-9.804256439208984,0.46806642413139343,0.0489773228764534,0.6066266894340515,-0.071336530148983
2202803293387,0.34356793761253357,-9.797073364257812,0.47405195236206055,0.0508405901491642,0.6013031005859375,-0.066545270383358
2202804530762,0.3663128614425659,-9.786299705505371,0.4752490520477295,0.0543009415268898,0.5927852988243103,-0.0753292515873909
2202805768125,0.36750996112823486,-9.799468040466309,0.43694180250167847,0.0505744069814682,0.5914543867111206,-0.0731998011469841
2202807005512,0.3711012601852417,-9.824606895446777,0.424970805644989,0.0492435023188591,0.5818718671798706,-0.0803866907954216
2202808242850,0.35075056552886963,-9.817423820495605,0.4225766062736511,0.0481787770986557,0.5781453251838684,-0.0827823206782341
2202809480237,0.3758896589279175,-9.854534149169922,0.45250412821769714,0.0505744069814682,0.5712246298789978,-0.0806528702378273
2202810717600,0.3495534360408783,-9.813833236694336,0.46088382601737976,0.0535023994743824,0.5698937177658081,-0.0867750346660614
2202811954962,0.4225766062736511,-9.803058624267578,0.40940847992897034,0.0511067695915699,0.5651024580001831,-0.0875735804438591
2202813192312,0.41778820753097534,-9.84495735168457,0.4321534037590027,0.0497758649289608,0.5589802861213684,-0.0878397598862648
2202814429700,0.42377370595932007,-9.872490882873535,0.48722004890441895,0.0540347620844841,0.54620361328125,-0.0889044851064682
2202815667075,0.4225766062736511,-9.880870819091797,0.4429273307323456,0.0481787770986557,0.5406138300895691,-0.0926310196518898
2202816904450,0.4213795065879822,-9.865307807922363,0.4010287821292877,0.0489773228764534,0.5400814414024353,-0.091033935546875
2202818141812,0.4297592043876648,-9.897629737854004,0.42856210470199585,0.0516391322016716,0.5307651162147522,-0.0899692103266716
2202819379175,0.4225766062736511,-9.872490882873535,0.4321534037590027,0.0521714948117733,0.5265061855316162,-0.0934295654296875
2202820616550,0.45489832758903503,-9.858125686645508,0.40462008118629456,0.0489773228764534,0.5206502079963684,-0.0947604700922966
2202821853925,0.4752490520477295,-9.86650562286377,0.40701428055763245,0.0511067695915699,0.5139957070350647,-0.0939619243144989
2202823091287,0.46088382601737976,-9.884461402893066,0.4489128291606903,0.047646414488554,0.5081397294998169,-0.0976884588599205
2202824328637,0.4537012279033661,-9.838972091674805,0.44173023104667664,0.04791259765625,0.5054779052734375,-0.0968899205327034
2202825566025,0.4752490520477295,-9.813833236694336,0.42616790533065796,0.043121337890625,0.5017513632774353,-0.1046091690659523
2202826803387,0.4668693244457245,-9.858125686645508,0.3902548849582672,0.0439198799431324,0.4892408549785614,-0.1043429896235466
2202828040762,0.4513070285320282,-9.861717224121094,0.46088382601737976,0.0463155098259449,0.4860466718673706,-0.0998179093003273
2202829278125,0.4225766062736511,-9.853337287902832,0.43933600187301636,0.0423227921128273,0.4783274233341217,-0.1040768101811409
2202830515500,0.40701428055763245,-9.860519409179688,0.4082113802433014,0.0444522425532341,0.4690110981464386,-0.1032782644033432
2202831752850,0.40462008118629456,-9.882067680358887,0.39863458275794983,0.0468478724360466,0.46954345703125,-0.1056738942861557
2202832990237,0.3842693865299225,-9.855731010437012,0.4273650050163269,0.0460493303835392,0.464752197265625,-0.1059400737285614
2202834227612,0.43933600187301636,-9.838972091674805,0.42856210470199585,0.0481787770986557,0.457831472158432,-0.1083357036113739
2202835464975,0.4357447028160095,-9.886856079101562,0.3627215623855591,0.0492435023188591,0.448248952627182,-0.1083357036113739
2202836702350,0.41778820753097534,-9.895236015319824,0.41539400815963745,0.0463155098259449,0.4450547993183136,-0.1043429896235466
2202837939700,0.41539400815963745,-9.896432876586914,0.40222588181495667,0.0409918874502182,0.4413282573223114,-0.1022135391831398
2202839177087,0.40462008118629456,-9.911994934082031,0.3902548849582672,0.0417904332280159,0.4333428144454956,-0.1062062531709671
2202840414437,0.37229835987091064,-9.873687744140625,0.36990416049957275,0.0447184219956398,0.4306810200214386,-0.1070047989487648
2202841651800,0.41539400815963745,-9.906009674072266,0.37229835987091064,0.038063894957304,0.4226955771446228,-0.110198974609375
2202842889175,0.39145198464393616,-9.877279281616211,0.4213795065879822,0.0433875173330307,0.4157748818397522,-0.1123284250497818
2202844126550,0.3878606855869293,-9.890447616577148,0.39624038338661194,0.0415242500603199,0.414710134267807,-0.1051415354013443
2202845363900,0.3734954595565796,-9.87967300415039,0.34356793761253357,0.0372653529047966,0.4115159809589386,-0.1059400737285614
2202846601300,0.37229835987091064,-9.882067680358887,0.3902548849582672,0.0423227921128273,0.4024658203125,-0.1062062531709671
2202847838650,0.38067808747291565,-9.874884605407715,0.38546648621559143,0.038063894957304,0.3990054726600647,-0.1062062531709671
2202849076025,0.3579331636428833,-9.8784761428833,0.3902548849582672,0.038063894957304,0.3947465717792511,-0.1024797186255455
2202850313387,0.34835633635520935,-9.889249801635742,0.37828385829925537,0.0407257080078125,0.3902214765548706,-0.1035444438457489
2202851550762,0.3411737382411957,-9.885659217834473,0.3926490843296051,0.0425889752805233,0.385962575674057,-0.100616455078125
2202852788150,0.3770867586135864,-9.855731010437012,0.36990416049957275,0.0423227921128273,0.3814375102519989,-0.100616455078125
2202854025512,0.333991140127182,-9.823410034179688,0.3687070608139038,0.0407257080078125,0.3726535439491272,-0.0974222794175148
2202855262887,0.34356793761253357,-9.840168952941895,0.3818751871585846,0.0369991734623909,0.3742506206035614,-0.0984870046377182
2202856500250,0.2932897210121155,-9.783905029296875,0.4405331015586853,0.0351359061896801,0.3750491738319397,-0.1016811802983284
2202857737612,0.27413609623908997,-9.805453300476074,0.3926490843296051,0.0407257080078125,0.3678622841835022,-0.0950266495347023
2202858974975,0.3172317147254944,-9.77672290802002,0.3471592366695404,0.0447184219956398,0.3641357421875,-0.0974222794175148
2202860212362,0.29568392038345337,-9.795876502990723,0.38546648621559143,0.038330078125,0.3582797646522522,-0.0966237336397171
2202861449725,0.2825157940387726,-9.75517463684082,0.3579331636428833,0.0362006276845932,0.359344482421875,-0.0958251953125
2202862687075,0.2849099934101105,-9.764751434326172,0.3974374830722809,0.0393948033452034,0.3542870283126831,-0.0942281037569046
2202863924462,0.23942017555236816,-9.782708168029785,0.3734954595565796,0.0433875173330307,0.347632497549057,-0.0920986607670784
2202865161812,0.19871874153614044,-9.750386238098145,0.3603273630142212,0.0468478724360466,0.349761962890625,-0.0878397598862648
2202866399187,0.2322375625371933,-9.763554573059082,0.36750996112823486,0.043121337890625,0.3478986918926239,-0.0928971990942955
2202867636575,0.20231004059314728,-9.789891242980957,0.3998316824436188,0.0385962575674057,0.3457692265510559,-0.0958251953125
2202868873937,0.23343466222286224,-9.81263542175293,0.39384618401527405,0.047646414488554,0.3417765200138092,-0.0854441300034523
2202870111300,0.21787235140800476,-9.798270225524902,0.35913026332855225,0.0489773228764534,0.3420427143573761,-0.0838470458984375
2202871348675,0.23942017555236816,-9.756372451782227,0.395043283700943,0.04791259765625,0.340179443359375,-0.0774587020277977
2202872586050,0.22505496442317963,-9.801861763000488,0.40222588181495667,0.0449846051633358,0.3361867070198059,-0.0793219655752182
2202873823412,0.20709845423698425,-9.81263542175293,0.36990416049957275,0.0484449602663517,0.3343234658241272,-0.0803866907954216
2202875060775,0.19153614342212677,-9.795876502990723,0.363918662071228,0.0463155098259449,0.3321940004825592,-0.0777248814702034
2202876298150,0.19033904373645782,-9.822212219238281,0.31364041566848755,0.0471140518784523,0.3287336528301239,-0.0731998011469841
2202877535512,0.2298433631658554,-9.77672290802002,0.39145198464393616,0.0511067695915699,0.3319278359413147,-0.0753292515873909
2202878772887,0.19273324310779572,-9.782708168029785,0.3531447649002075,0.0537685826420784,0.3255394697189331,-0.0734659805893898
2202880010262,0.16879121959209442,-9.806650161743164,0.42856210470199585,0.0556318499147892,0.3255394697189331,-0.0689409002661705
2202881247612,0.1867477297782898,-9.818621635437012,0.40701428055763245,0.0511067695915699,0.3268703818321228,-0.06707763671875
2202882484987,0.2214636653661728,-9.77552604675293,0.39863458275794983,0.0516391322016716,0.3258056640625,-0.0684085413813591
2202883722362,0.2082955539226532,-9.783905029296875,0.41778820753097534,0.0529700368642807,0.3234100341796875,-0.0641496405005455
2202884959712,0.16519992053508759,-9.78869342803955,0.3878606855869293,0.0558980293571949,0.321014404296875,-0.0612216517329216
2202886197100,0.16998831927776337,-9.81024169921875,0.3818751871585846,0.0598907470703125,0.3231438398361206,-0.0543009415268898
2202887434462,0.1280897855758667,-9.794679641723633,0.38905778527259827,0.0532362200319767,0.3247409462928772,-0.0601569265127182
2202888671837,0.1149216815829277,-9.861717224121094,0.4034229815006256,0.0564303919672966,0.3204820454120636,-0.057228934019804
2202889909175,0.1173158809542656,-9.860519409179688,0.39384618401527405,0.0561642125248909,0.3180864155292511,-0.0505744069814682
2202891146587,0.12928690016269684,-9.836577415466309,0.4381389021873474,0.057228934019804,0.3164893090724945,-0.0540347620844841
2202892383950,0.13766659796237946,-9.785102844238281,0.395043283700943,0.0606892891228199,0.3151584267616272,-0.0495096817612648
2202893621312,0.152031809091568,-9.794679641723633,0.4225766062736511,0.0577612966299057,0.3212805688381195,-0.0457831472158432
2202894858687,0.12330138683319092,-9.78869342803955,0.37828385829925537,0.0614878311753273,0.3124966025352478,-0.0391286201775074
2202896096062,0.09457096457481384,-9.794679641723633,0.3974374830722809,0.0617540143430233,0.3178202211856842,-0.0391286201775074
2202897333412,0.1041477769613266,-9.850942611694336,0.39863458275794983,0.0606892891228199,0.3178202211856842,-0.0364668108522892
2202898570787,0.10175357013940811,-9.80904483795166,0.38905778527259827,0.062020193785429,0.3130289614200592,-0.038063894957304
2202899808162,0.04788403585553169,-9.813833236694336,0.41060560941696167,0.0606892891228199,0.3151584267616272,-0.0324740931391716
2202901045512,0.0802057608962059,-9.84615421295166,0.3926490843296051,0.0617540143430233,0.3175540566444397,-0.0282151959836483
2202902282887,0.09935937076807022,-9.849745750427246,0.3627215623855591,0.0628187358379364,0.3167555034160614,-0.0306108258664608
2202903520262,0.07781155407428741,-9.84376049041748,0.40222588181495667,0.0660129114985466,0.3172878623008728,-0.02608574740588665
2202904757637,0.07900865375995636,-9.807847023010254,0.4405331015586853,0.062286376953125,0.314093679189682,-0.0210283063352108
2202905995012,0.06224924325942993,-9.856928825378418,0.4082113802433014,0.0644158273935318,0.3138275146484375,-0.02182685025036335
2202907232375,0.0802057608962059,-9.84495735168457,0.41060560941696167,0.06707763671875,0.321014404296875,-0.0244886614382267
2202908469725,0.09217676520347595,-9.829395294189453,0.4357447028160095,0.0673438161611557,0.3202158510684967,-0.0204959437251091
2202909707112,0.08499415963888168,-9.835380554199219,0.3531447649002075,0.0585598424077034,0.318884938955307,-0.01597086526453495
2202910944487,0.06823474913835526,-9.830592155456543,0.43694180250167847,0.0660129114985466,0.3154245913028717,-0.015438503585755825
2202912181837,0.04908113554120064,-9.805453300476074,0.36152446269989014,0.0678761824965477,0.3154245913028717,-0.010913425125181675
2202913419212,0.04788403585553169,-9.816226959228516,0.3902548849582672,0.0641496405005455,0.3154245913028717,-0.0114457868039608
2202914656562,0.061052143573760986,-9.835380554199219,0.42018240690231323,0.0644158273935318,0.3180864155292511,-0.010913425125181675
2202915893937,0.04788403585553169,-9.840168952941895,0.39863458275794983,0.0686747208237648,0.3154245913028717,-0.007985432632267475
2202917131312,0.05147533863782883,-9.800664901733398,0.4082113802433014,0.06707763671875,0.3159569501876831,-0.008251613937318325
2202918368700,0.0454898327589035,-9.860519409179688,0.4141969084739685,0.0644158273935318,0.31622314453125,-0.0029279920272529125
2202919606050,0.04429273307323456,-9.831789016723633,0.40462008118629456,0.0654805526137352,0.3151584267616272,0.0013309054775163531
2202920843437,0.033518824726343155,-9.837775230407715,0.4405331015586853,0.0678761824965477,0.3143598735332489,0.0010647244052961469
2202922080787,0.0454898327589035,-9.77552604675293,0.40462008118629456,0.0697394460439682,0.3122304379940033,0.0026618109550327063
2202923318175,0.06823474913835526,-9.781511306762695,0.41539400815963745,0.071868896484375,0.3135613203048706,0.007985432632267475
2202924555525,0.0454898327589035,-9.822212219238281,0.44173023104667664,0.0737321600317955,0.3159569501876831,0.0090501569211483
2202925792912,0.04189852997660637,-9.870096206665039,0.4357447028160095,0.0694732666015625,0.3172878623008728,0.010381062515079975
2202927030262,0.04668693244457245,-9.783905029296875,0.4596867263317108,0.0716027170419693,0.3180864155292511,0.01463996060192585
2202928267625,0.02992752194404602,-9.806650161743164,0.46088382601737976,0.0745307058095932,0.3178202211856842,0.01783413253724575
2202929504987,0.07302315533161163,-9.817423820495605,0.456095427274704,0.0739983469247818,0.3151584267616272,0.01703559048473835
2202930742362,0.035913024097681046,-9.80904483795166,0.4836287498474121,0.0729336217045784,0.3156907856464386,0.0252872034907341
2202931979750,0.035913024097681046,-9.824606895446777,0.4537012279033661,0.0721350759267807,0.3146260678768158,0.0276828333735466
2202933217112,0.05506663769483566,-9.818621635437012,0.44771572947502136,0.0793219655752182,0.3130289614200592,0.02608574740588665
2202934454487,-0.02513911761343479,-9.80904483795166,0.4513070285320282,0.0758616104722023,0.3191511332988739,0.02608574740588665
2202935691837,0.011971008963882923,-9.813833236694336,0.44532153010368347,0.0790557861328125,0.3191511332988739,0.03034464456140995
2202936929225,0.05027823522686958,-9.795876502990723,0.46567222476005554,0.0785234197974205,0.3106333315372467,0.0343373604118824
2202938166575,0.02753331884741783,-9.849745750427246,0.4620809257030487,0.07666015625,0.3199496865272522,0.0369991734623909
2202939403950,-0.0071826050989329815,-9.804256439208984,0.4572925269603729,0.080919049680233,0.31622314453125,0.0375315360724926
2202940641325,0.023942017927765846,-9.84376049041748,0.43933600187301636,0.0803866907954216,0.3164893090724945,0.0369991734623909
2202941878700,-0.004788403399288654,-9.831789016723633,0.4596867263317108,0.081451416015625,0.3172878623008728,0.0455169677734375
2202943116050,-0.0059855044819414616,-9.81143856048584,0.43694180250167847,0.0838470458984375,0.3178202211856842,0.0439198799431324
2202944353437,-0.07661445438861847,-9.832986831665039,0.39863458275794983,0.0835808664560318,0.3196834921836853,0.0457831472158432
2202945590800,-0.03232172504067421,-9.84256362915039,0.42377370595932007,0.0851779505610466,0.3196834921836853,0.0457831472158432
2202946828162,-0.03232172504067421,-9.890447616577148,0.4321534037590027,0.0843794047832489,0.3207482099533081,0.0415242500603199
2202948065537,-0.028730420395731926,-9.861717224121094,0.4812345504760742,0.0811852365732193,0.3271365761756897,0.0444522425532341
2202949302900,-0.021547814831137657,-9.847352027893066,0.5135562419891357,0.0851779505610466,0.3234100341796875,0.0471140518784523
2202950540275,-0.05746084079146385,-9.873687744140625,0.44173023104667664,0.0822499617934227,0.3244747519493103,0.0521714948117733
2202951777637,-0.07900865375995636,-9.883264541625977,0.4704606235027313,0.0830485001206398,0.3250071108341217,0.0444522425532341
2202953015025,-0.05027823522686958,-9.830592155456543,0.4692635238170624,0.0817175954580307,0.3271365761756897,0.0484449602663517
2202954252375,-0.05746084079146385,-9.885659217834473,0.4884171485900879,0.0803866907954216,0.3295322060585022,0.052437674254179
2202955489750,-0.05386953800916672,-9.909601211547852,0.47884035110473633,0.0897030308842659,0.3308630883693695,0.0535023994743824
2202956727112,-0.038307227194309235,-9.897629737854004,0.4465186297893524,0.0843794047832489,0.3292660117149353,0.0564303919672966
2202957964475,-0.05027823522686958,-9.920374870300293,0.4800374507904053,0.0819837749004364,0.3337910771369934,0.0585598424077034
2202959201875,-0.0802057608962059,-9.904812812805176,0.5147533416748047,0.0838470458984375,0.3321940004825592,0.0564303919672966
2202960439212,-0.07900865375995636,-9.928754806518555,0.4441244304180145,0.0859764963388443,0.3335249125957489,0.0580274797976017
2202961676600,-0.05147533863782883,-9.909601211547852,0.45848962664604187,0.0870412141084671,0.3396470844745636,0.0550994873046875
2202962913950,-0.028730420395731926,-9.884461402893066,0.4991910457611084,0.0803866907954216,0.3369852602481842,0.0566965714097023
2202964151325,-0.0347159244120121,-9.852140426635742,0.47165775299072266,0.0841132253408432,0.340179443359375,0.0636172816157341
2202965388712,-0.04908113554120064,-9.885659217834473,0.49799394607543945,0.0795881450176239,0.3375176191329956,0.0590922012925148
2202966626062,-0.06823474913835526,-9.871294021606445,0.47644615173339844,0.0777248814702034,0.338049978017807,0.0601569265127182
2202967863425,-0.04788403585553169,-9.897629737854004,0.4812345504760742,0.0806528702378273,0.3423088788986206,0.0652143657207489
2202969100812,-0.03711012750864029,-9.890447616577148,0.4644751250743866,0.0841132253408432,0.3404456079006195,0.062020193785429
2202970338175,-0.04788403585553169,-9.86770248413086,0.45250412821769714,0.0854441300034523,0.3444383442401886,0.0628187358379364
2202971575550,-0.0035913025494664907,-9.858125686645508,0.5494692921638489,0.085710309445858,0.3409779667854309,0.0641496405005455
2202972812912,-0.017956512048840523,-9.853337287902832,0.5315127968788147,0.0747968852519989,0.3441721498966217,0.0612216517329216
2202974050287,0.020350715145468712,-9.837775230407715,0.5267243981361389,0.0777248814702034,0.3439059853553772,0.0633511021733284
2202975287637,-0.0059855044819414616,-9.855731010437012,0.5063736438751221,0.0841132253408432,0.3425750732421875,0.0654805526137352
2202976525012,-0.017956512048840523,-9.837775230407715,0.5183447003364563,0.0827823206782341,0.3420427143573761,0.06707763671875
2202977762375,-0.06344634294509888,-9.819818496704102,0.48482584953308105,0.0827823206782341,0.3468339741230011,0.0641496405005455
2202978999750,-0.06703764945268631,-9.84376049041748,0.5566518902778625,0.0811852365732193,0.3471001386642456,0.0654805526137352
2202980237125,-0.05506663769483566,-9.799468040466309,0.5195418000221252,0.081451416015625,0.342841237783432,0.0686747208237648
2202981474487,-0.05985504388809204,-9.792284965515137,0.5327098965644836,0.0822499617934227,0.3423088788986206,0.0662790909409523
2202982711850,-0.04668693244457245,-9.821015357971191,0.47644615173339844,0.0817175954580307,0.3481648564338684,0.0636172816157341
2202983949237,-0.05506663769483566,-9.807847023010254,0.5171476006507874,0.0894368439912796,0.3460354208946228,0.0654805526137352
2202985186600,-0.04908113554120064,-9.782708168029785,0.5410895943641663,0.0854441300034523,0.3492296040058136,0.0676099956035614
2202986423962,-0.05386953800916672,-9.768342971801758,0.4920084476470947,0.0835808664560318,0.3457692265510559,0.0689409002661705
2202987661325,-0.04908113554120064,-9.795876502990723,0.4944026470184326,0.0897030308842659,0.3455030620098114,0.0638834610581398
2202988898700,-0.026336219161748886,-9.767146110534668,0.5171476006507874,0.0913001149892807,0.3452368676662445,0.0630849227309227
2202990136062,-0.043095629662275314,-9.77552604675293,0.52552729845047,0.0878397598862648,0.3460354208946228,0.0646820068359375
2202991373437,-0.06464345008134842,-9.800664901733398,0.5710170865058899,0.0881059393286705,0.3492296040058136,0.0649481862783432
2202992610812,-0.11013327538967133,-9.837775230407715,0.5351040959358215,0.0902353897690773,0.3468339741230011,0.0612216517329216
2202993848175,-0.09217676520347595,-9.781511306762695,0.52552729845047,0.0913001149892807,0.344970703125,0.0657467320561409
2202995085525,-0.08858546614646912,-9.84256362915039,0.5159504413604736,0.0873074010014534,0.3409779667854309,0.0638834610581398
2202996322900,-0.05626374110579491,-9.838972091674805,0.5315127968788147,0.0865088552236557,0.3415103554725647,0.0662790909409523
2202997560275,-0.08858546614646912,-9.794679641723633,0.5542576909065247,0.0926310196518898,0.3478986918926239,0.0668114572763443
2202998797650,-0.08140286058187485,-9.815030097961426,0.5710170865058899,0.0918324738740921,0.3502943217754364,0.0633511021733284
2203000035012,-0.04189852997660637,-9.837775230407715,0.5279214978218079,0.0942281037569046,0.3455030620098114,0.0625525563955307
2203001272400,-0.10055647045373917,-9.837775230407715,0.5279214978218079,0.0936957448720932,0.3494957685470581,0.0609554722905159
2203002509762,-0.08140286058187485,-9.838972091674805,0.5746083855628967,0.0918324738740921,0.3481648564338684,0.0585598424077034
2203003747112,-0.06224924325942993,-9.832986831665039,0.5363011956214905,0.0942281037569046,0.3505604863166809,0.0558980293571949
2203004984500,-0.09696517139673233,-9.798270225524902,0.5997475385665894,0.0928971990942955,0.3473663330078125,0.0540347620844841
2203006221875,-0.10175357013940811,-9.837775230407715,0.5901707410812378,0.0966237336397171,0.3457692265510559,0.0550994873046875
2203007459212,-0.12449848651885986,-9.855731010437012,0.5638344883918762,0.0897030308842659,0.3489634096622467,0.0513729527592659
2203008696600,-0.0802057608962059,-9.828198432922363,0.6093243360519409,0.0934295654296875,0.3486972451210022,0.0566965714097023
2203009933975,-0.06823474913835526,-9.799468040466309,0.5793968439102173,0.095292828977108,0.3502943217754364,0.057228934019804
2203011171337,-0.09696517139673233,-9.828198432922363,0.5985504388809204,0.0966237336397171,0.3540208637714386,0.0543009415268898
2203012408675,-0.12210428714752197,-9.873687744140625,0.5542576909065247,0.0974222794175148,0.3508266806602478,0.0553656667470932
2203013646075,-0.08858546614646912,-9.859322547912598,0.5997475385665894,0.0998179093003273,0.3510928750038147,0.0540347620844841
2203014883450,-0.07900865375995636,-9.84495735168457,0.6212953329086304,0.0950266495347023,0.3526899516582489,0.052437674254179
2203016120800,-0.07422025501728058,-9.874884605407715,0.6117185354232788,0.0928971990942955,0.3553517460823059,0.04791259765625
2203017358175,-0.09457096457481384,-9.855731010437012,0.6045359373092651,0.0963575541973114,0.3577473759651184,0.0425889752805233
2203018595537,-0.10893617570400238,-9.848548889160156,0.6488286852836609,0.0950266495347023,0.3518913984298706,0.0425889752805233
2203019832900,-0.0802057608962059,-9.928754806518555,0.6763619780540466,0.095292828977108,0.349761962890625,0.0511067695915699
2203021070275,-0.09576807171106339,-9.892841339111328,0.6703764796257019,0.0971560999751091,0.3516252338886261,0.0487111397087574
2203022307662,-0.07781155407428741,-9.874884605407715,0.6548141837120056,0.0984870046377182,0.3534885048866272,0.0441860631108284
2203023545025,-0.09576807171106339,-9.9000244140625,0.5973533391952515,0.0976884588599205,0.3508266806602478,0.0404595248401165
2203024782400,-0.05506663769483566,-9.885659217834473,0.629675030708313,0.0976884588599205,0.3542870283126831,0.0372653529047966
2203026019762,-0.08978256583213806,-9.862914085388184,0.5770025849342346,0.0979546457529068,0.3553517460823059,0.038063894957304
2203027257100,-0.07781155407428741,-9.906009674072266,0.5925649404525757,0.0987531840801239,0.3561502993106842,0.0401933453977108
2203028494487,-0.04908113554120064,-9.907206535339355,0.6596025824546814,0.0950266495347023,0.3622724711894989,0.0340711809694767
2203029731850,-0.07062894850969315,-9.853337287902832,0.6823474764823914,0.0974222794175148,0.3585459291934967,0.0359344482421875
2203030969237,-0.08499415963888168,-9.90241813659668,0.6021417379379272,0.0968899205327034,0.3566826581954956,0.0351359061896801
2203032206612,-0.0586579404771328,-9.889249801635742,0.6332663297653198,0.0974222794175148,0.357215017080307,0.0306108258664608
2203033443987,-0.08259996026754379,-9.896432876586914,0.6224924325942993,0.0859764963388443,0.3596106469631195,0.02502102218568325
2203034681337,-0.07781155407428741,-9.90122127532959,0.6476315855979919,0.0913001149892807,0.3558841347694397,0.0223592109978199
2203035918725,-0.090979665517807,-9.888052940368652,0.6536170840263367,0.0950266495347023,0.3577473759651184,0.0244886614382267
2203037156075,-0.05147533863782883,-9.890447616577148,0.5626373887062073,0.0944942906498909,0.3566826581954956,0.02315775491297245
2203038393450,-0.07900865375995636,-9.885659217834473,0.569819986820221,0.0928971990942955,0.3609415590763092,0.01996358297765255
2203039630812,-0.10893617570400238,-9.9000244140625,0.586579442024231,0.0902353897690773,0.3585459291934967,0.0181003138422966
2203040868162,-0.05386953800916672,-9.910798072814941,0.628477931022644,0.0928971990942955,0.3548193871974945,0.01410759799182415
2203042105537,-0.04429273307323456,-9.892841339111328,0.6308721303939819,0.0939619243144989,0.3553517460823059,0.012776692397892475
2203043342925,-0.06464345008134842,-9.920374870300293,0.629675030708313,0.0947604700922966,0.3561502993106842,0.010381062515079975
2203044580287,-0.040701430290937424,-9.922768592834473,0.6392518877983093,0.0931633859872818,0.3566826581954956,0.0090501569211483
2203045817650,-0.08858546614646912,-9.927556991577148,0.6631938815116882,0.0920986607670784,0.3574812114238739,0.0077192517928779125
2203047055025,-0.0694318488240242,-9.941922187805176,0.6787561774253845,0.091033935546875,0.359344482421875,0.00692070834338665
2203048292387,-0.07781155407428741,-9.915586471557617,0.5985504388809204,0.0944942906498909,0.3540208637714386,0.0026618109550327063
2203049529775,-0.04908113554120064,-9.944316864013672,0.6033388376235962,0.0915662944316864,0.3561502993106842,0.0005323622026480734
2203050767125,-0.05386953800916672,-9.97065258026123,0.5841852426528931,0.0830485001206398,0.3609415590763092,-0.0039927163161337376
2203052004500,-0.09696517139673233,-9.956287384033203,0.6536170840263367,0.0865088552236557,0.3609415590763092,-0.0026618109550327063
2203053241862,-0.06584054976701736,-9.977835655212402,0.6165069341659546,0.0854441300034523,0.3606753945350647,-0.00692070834338665
2203054479250,-0.07541735470294952,-9.980230331420898,0.6739677786827087,0.0843794047832489,0.3598768413066864,-0.0063883461989462376
2203055716637,-0.07422025501728058,-9.961075782775879,0.6057330369949341,0.0843794047832489,0.3561502993106842,-0.007453070487827063
2203056953975,-0.05267243832349777,-10.008960723876953,0.6619967818260193,0.0825161412358284,0.3622724711894989,-0.010647243820130825
2203058191350,-0.08259996026754379,-9.976638793945312,0.6560112833976746,0.07666015625,0.3630710244178772,-0.01357523538172245
2203059428725,-0.043095629662275314,-9.947908401489258,0.6260837316513062,0.0769263356924057,0.3598768413066864,-0.010647243820130825
2203060666100,-0.023942017927765846,-9.926360130310059,0.6177040338516235,0.0758616104722023,0.3534885048866272,-0.010913425125181675
2203061903450,0.0,-9.98980712890625,0.6404489874839783,0.0774587020277977,0.3516252338886261,-0.01650322787463665
2203063140825,0.015562310814857483,-9.96825885772705,0.6596025824546814,0.0755954310297966,0.3550855815410614,-0.01943122036755085
2203064378200,-0.02753331884741783,-9.96825885772705,0.6763619780540466,0.071868896484375,0.3574812114238739,-0.01943122036755085
2203065615575,-0.05985504388809204,-9.994595527648926,0.6572083830833435,0.0716027170419693,0.3558841347694397,-0.02129448764026165
2203066852950,-0.02513911761343479,-9.979032516479492,0.6667851805686951,0.0758616104722023,0.3569488525390625,-0.0223592109978199
2203068090287,-0.010773907415568829,-9.961075782775879,0.6596025824546814,0.0708041712641716,0.3510928750038147,-0.0276828333735466
2203069327675,0.009576806798577309,-9.932345390319824,0.6512228846549988,0.0686747208237648,0.3553517460823059,-0.02555338479578495
2203070565050,-0.017956512048840523,-9.956287384033203,0.6596025824546814,0.0676099956035614,0.3529561161994934,-0.02262539230287075
2203071802400,-0.011971008963882923,-9.928754806518555,0.6572083830833435,0.0649481862783432,0.3540208637714386,-0.02502102218568325
2203073039787,-0.009576806798577309,-9.9000244140625,0.6428431868553162,0.0662790909409523,0.3508266806602478,-0.0300784632563591
2203074277162,0.02753331884741783,-9.93593692779541,0.6572083830833435,0.0630849227309227,0.3510928750038147,-0.0324740931391716
2203075514512,0.035913024097681046,-9.932345390319824,0.6200982332229614,0.062020193785429,0.3492296040058136,-0.0306108258664608
2203076751900,-0.0071826050989329815,-9.938331604003906,0.628477931022644,0.0593583844602108,0.3532223105430603,-0.0327402763068676
2203077989262,-0.002394201699644327,-9.928754806518555,0.606930136680603,0.0630849227309227,0.3492296040058136,-0.0330064557492733
2203079226612,0.020350715145468712,-9.945513725280762,0.5937620401382446,0.062286376953125,0.3465677797794342,-0.0327402763068676
2203080464000,0.05267243832349777,-9.9000244140625,0.6727706789970398,0.0577612966299057,0.3468339741230011,-0.0351359061896801
2203081701362,-0.015562310814857483,-9.927556991577148,0.6033388376235962,0.0617540143430233,0.3388485312461853,-0.0340711809694767
2203082938737,-0.004788403399288654,-9.93354320526123,0.6643909811973572,0.0593583844602108,0.3478986918926239,-0.0359344482421875
2203084176112,0.008379706181585789,-9.898826599121094,0.6428431868553162,0.0537685826420784,0.3481648564338684,-0.0364668108522892
2203085413475,-0.026336219161748886,-9.907206535339355,0.5889736413955688,0.0537685826420784,0.3396470844745636,-0.0354020856320858
2203086650837,0.021547814831137657,-9.907206535339355,0.628477931022644,0.0545671246945858,0.3388485312461853,-0.0372653529047966
2203087888212,0.011971008963882923,-9.921571731567383,0.6536170840263367,0.0558980293571949,0.3425750732421875,-0.0340711809694767
2203089125587,-0.013168109580874443,-9.921571731567383,0.6332663297653198,0.052703857421875,0.3425750732421875,-0.0351359061896801
2203090362962,-0.0059855044819414616,-9.917980194091797,0.6177040338516235,0.0503082275390625,0.3359205424785614,-0.0367329902946949
2203091600312,-0.0071826050989329815,-9.892841339111328,0.6117185354232788,0.0521714948117733,0.3375176191329956,-0.0399271659553051
2203092837675,0.014365210197865963,-9.908403396606445,0.6117185354232788,0.0543009415268898,0.3391147255897522,-0.0425889752805233
2203094075037,0.016759412363171577,-9.940725326538086,0.6380547285079956,0.0508405901491642,0.3367190957069397,-0.0391286201775074
2203095312425,-0.02513911761343479,-9.910798072814941,0.6440402865409851,0.0487111397087574,0.3343234658241272,-0.0447184219956398
2203096549787,-0.004788403399288654,-9.896432876586914,0.6272808313369751,0.052437674254179,0.3361867070198059,-0.0425889752805233
2203097787150,-0.008379706181585789,-9.910798072814941,0.6607996821403503,0.0508405901491642,0.3340572714805603,-0.0409918874502182
2203099024537,-0.009576806798577309,-9.889249801635742,0.6141127347946167,0.0505744069814682,0.3327263593673706,-0.0356682650744915
2203100261900,0.023942017927765846,-9.9371337890625,0.6033388376235962,0.0508405901491642,0.3345896303653717,-0.0399271659553051
2203101499275,-0.028730420395731926,-9.906009674072266,0.608127236366272,0.047646414488554,0.333258718252182,-0.038063894957304
2203102736637,-0.038307227194309235,-9.96825885772705,0.6272808313369751,0.0455169677734375,0.3260718286037445,-0.0356682650744915
2203103974000,0.031124621629714966,-9.93593692779541,0.6308721303939819,0.0449846051633358,0.3274027407169342,-0.0463155098259449
2203105211362,0.043095629662275314,-9.93593692779541,0.6847416758537292,0.0487111397087574,0.3292660117149353,-0.0444522425532341
2203106448737,0.03232172504067421,-9.932345390319824,0.5841852426528931,0.0457831472158432,0.3239423930644989,-0.0375315360724926
2203107686100,0.09816227108240128,-9.93474006652832,0.629675030708313,0.043121337890625,0.3215467631816864,-0.0391286201775074
2203108923475,0.031124621629714966,-9.90361499786377,0.6416460871696472,0.0423227921128273,0.3207482099533081,-0.0399271659553051
2203110160850,0.026336219161748886,-9.885659217834473,0.6057330369949341,0.0452507846057415,0.3135613203048706,-0.0391286201775074
2203111398212,0.0694318488240242,-9.913191795349121,0.6380547285079956,0.0433875173330307,0.3130289614200592,-0.0407257080078125
2203112635587,0.05386953800916672,-9.922768592834473,0.5985504388809204,0.0425889752805233,0.3127627968788147,-0.0409918874502182
2203113872975,0.07182604819536209,-9.915586471557617,0.6775590777397156,0.0415242500603199,0.3138275146484375,-0.0364668108522892
2203115110337,0.05985504388809204,-9.907206535339355,0.6715735793113708,0.0343373604118824,0.3124966025352478,-0.0372653529047966
2203116347687,0.08140286058187485,-9.909601211547852,0.6392518877983093,0.0396609827876091,0.3111656904220581,-0.0425889752805233
2203117585062,0.07422025501728058,-9.90361499786377,0.606930136680603,0.0457831472158432,0.3077053427696228,-0.038330078125
2203118822437,0.05985504388809204,-9.947908401489258,0.6440402865409851,0.0417904332280159,0.3090362548828125,-0.0433875173330307
2203120059812,0.05027823522686958,-9.917980194091797,0.6380547285079956,0.0377977155148983,0.3085038959980011,-0.038063894957304
2203121297187,0.0347159244120121,-9.904812812805176,0.5626373887062073,0.038063894957304,0.3023817241191864,-0.0407257080078125
2203122534537,0.03711012750864029,-9.914389610290527,0.5973533391952515,0.0346035435795784,0.3031802773475647,-0.043121337890625
2203123771912,0.05746084079146385,-9.896432876586914,0.6141127347946167,0.0367329902946949,0.3039788007736206,-0.0407257080078125
2203125009287,0.03950432687997818,-9.890447616577148,0.5949591398239136,0.0375315360724926,0.2981228232383728,-0.0375315360724926
2203126246662,0.03711012750864029,-9.849745750427246,0.6057330369949341,0.038063894957304,0.2989213764667511,-0.043121337890625
2203127484025,0.03950432687997818,-9.84615421295166,0.645237386226654,0.0338049978017807,0.2991875410079956,-0.0420566126704216
2203128721387,0.07541735470294952,-9.9000244140625,0.6416460871696472,0.033272635191679,0.294928640127182,-0.0407257080078125
2203129958750,0.05506663769483566,-9.874884605407715,0.6643909811973572,0.0322079136967659,0.2925330102443695,-0.0495096817612648
2203131196125,0.03232172504067421,-9.860519409179688,0.6260837316513062,0.02981228195130825,0.2909359335899353,-0.042855154722929
2203132433500,0.05147533863782883,-9.831789016723633,0.5973533391952515,0.02901373989880085,0.2904035747051239,-0.0404595248401165
2203133670862,0.04668693244457245,-9.90361499786377,0.6596025824546814,0.0271504707634449,0.2896050214767456,-0.043121337890625
2203134908225,0.06584054976701736,-9.861717224121094,0.6308721303939819,0.02661811001598835,0.2816196084022522,-0.043121337890625
2203136145600,0.05027823522686958,-9.87967300415039,0.6512228846549988,0.0311431884765625,0.27789306640625,-0.0460493303835392
2203137382962,0.07541735470294952,-9.884461402893066,0.608127236366272,0.0311431884765625,0.2792239785194397,-0.0433875173330307
2203138620337,0.12090718746185303,-9.9000244140625,0.6332663297653198,0.02981228195130825,0.2754974365234375,-0.0420566126704216
2203139857712,0.09217676520347595,-9.895236015319824,0.7026982307434082,0.0271504707634449,0.2749650776386261,-0.0391286201775074
2203141095087,0.07182604819536209,-9.853337287902832,0.6356605291366577,0.0263519287109375,0.2725694477558136,-0.0415242500603199
2203142332450,0.04788403585553169,-9.886856079101562,0.6643909811973572,0.02981228195130825,0.2768283486366272,-0.0452507846057415
2203143569825,0.09457096457481384,-9.852140426635742,0.6308721303939819,0.02741665206849575,0.2739003598690033,-0.0417904332280159
2203144807175,0.06224924325942993,-9.925163269042969,0.629675030708313,0.02369011752307415,0.2723032534122467,-0.0407257080078125
2203146044550,0.0586579404771328,-9.884461402893066,0.6404489874839783,0.0173017717897892,0.2680443525314331,-0.0375315360724926
2203147281912,0.06224924325942993,-9.904812812805176,0.6416460871696472,0.01996358297765255,0.2659149169921875,-0.0385962575674057
2203148519300,0.09696517139673233,-9.891644477844238,0.6392518877983093,0.02369011752307415,0.2693752646446228,-0.0407257080078125
2203149756650,0.07781155407428741,-9.889249801635742,0.6440402865409851,0.02502102218568325,0.2640516459941864,-0.0407257080078125
2203150994037,0.07900865375995636,-9.917980194091797,0.6380547285079956,0.02076212503015995,0.2611236572265625,-0.0444522425532341
2203152231400,0.11252748221158981,-9.892841339111328,0.6404489874839783,0.02422248013317585,0.2547353208065033,-0.0377977155148983
2203153468775,0.08259996026754379,-9.93354320526123,0.606930136680603,0.023956298828125,0.2510087788105011,-0.0388624407351017
2203154706137,0.11133038252592087,-9.862914085388184,0.6560112833976746,0.01836649514734745,0.2558000385761261,-0.0351359061896801
2203155943500,0.10654197633266449,-9.865307807922363,0.606930136680603,0.01889885775744915,0.2550014853477478,-0.0327402763068676
2203157180887,0.09576807171106339,-9.872490882873535,0.608127236366272,0.02315775491297245,0.2542029321193695,-0.0364668108522892
2203158418262,0.043095629662275314,-9.892841339111328,0.6189011335372925,0.0220930315554142,0.2534044086933136,-0.0385962575674057
2203159655612,0.035913024097681046,-9.897629737854004,0.5650315880775452,0.0173017717897892,0.2472822368144989,-0.0404595248401165
2203160893012,0.035913024097681046,-9.896432876586914,0.6057330369949341,0.0157046839594841,0.2459513247013092,-0.0364668108522892
2203162130362,-0.0059855044819414616,-9.897629737854004,0.6045359373092651,0.01117960549890995,0.2467498779296875,-0.0393948033452034
2203163367725,-0.011971008963882923,-9.885659217834473,0.606930136680603,0.01703559048473835,0.244354248046875,-0.0327402763068676
2203164605100,-0.013168109580874443,-9.938331604003906,0.6272808313369751,0.01756795309484005,0.2451527863740921,-0.03087700717151165
2203165842450,-0.043095629662275314,-9.947908401489258,0.5758054852485657,0.01703559048473835,0.2430233359336853,-0.0319417305290699
2203167079837,-0.011971008963882923,-9.965864181518555,0.568622887134552,0.015438503585755825,0.2376997172832489,-0.02794901467859745
2203168317187,-0.035913024097681046,-9.908403396606445,0.5530605912208557,0.0119781494140625,0.2371673583984375,-0.02794901467859745
2203169554575,-0.04908113554120064,-9.889249801635742,0.5770025849342346,0.010647243820130825,0.2414262592792511,-0.0268842913210392
2203170791937,-0.02992752194404602,-9.928754806518555,0.5913678407669067,0.010381062515079975,0.2416924387216568,-0.0295461006462574
2203172029325,-0.08738835901021957,-9.928754806518555,0.6200982332229614,0.015172322280704975,0.2403615266084671,-0.03034464456140995
2203173266687,-0.05267243832349777,-9.940725326538086,0.5793968439102173,0.01117960549890995,0.238498255610466,-0.0300784632563591
2203174504050,-0.07182604819536209,-9.907206535339355,0.5781997442245483,0.0042588976211845875,0.2369011789560318,-0.0276828333735466
2203175741412,-0.05985504388809204,-9.890447616577148,0.628477931022644,0.005589802749454975,0.2387644350528717,-0.0338049978017807
2203176978800,-0.07062894850969315,-9.894038200378418,0.6404489874839783,0.0077192517928779125,0.2358364462852478,-0.02901373989880085
2203178216150,-0.020350715145468712,-9.907206535339355,0.6033388376235962,0.0039927163161337376,0.2398291677236557,-0.0324740931391716
2203179453512,-0.05626374110579491,-9.885659217834473,0.5746083855628967,0.0042588976211845875,0.2323760986328125,-0.02874755859375
2203180690900,-0.0586579404771328,-9.865307807922363,0.6141127347946167,0.005855984054505825,0.2379658967256546,-0.0324740931391716
2203181928262,-0.07661445438861847,-9.840168952941895,0.6153098344802856,0.0042588976211845875,0.2387644350528717,-0.0268842913210392
2203183165637,-0.04788403585553169,-9.837775230407715,0.6200982332229614,0.00452507846057415,0.2350379079580307,-0.02608574740588665
2203184403012,-0.08738835901021957,-9.825803756713867,0.5746083855628967,0.0010647244052961469,0.2406277060508728,-0.0300784632563591
2203185640375,-0.090979665517807,-9.882067680358887,0.6009446382522583,0.0021294488105922937,0.2403615266084671,-0.0263519287109375
2203186877737,-0.09696517139673233,-9.84495735168457,0.5949591398239136,0.00452507846057415,0.238498255610466,-0.0319417305290699
2203188115100,-0.12449848651885986,-9.870096206665039,0.6093243360519409,0.010913425125181675,0.2387644350528717,-0.0322079136967659
2203189352475,-0.14604631066322327,-9.886856079101562,0.6236895322799683,0.00692070834338665,0.2376997172832489,-0.0247548408806324
2203190589837,-0.10295067727565765,-9.883264541625977,0.5817910432815552,0.0007985432748682797,0.2398291677236557,-0.0306108258664608
2203191827212,-0.1041477769613266,-9.904812812805176,0.5662286877632141,0.0039927163161337376,0.2411600649356842,-0.0319417305290699
2203193064612,-0.08259996026754379,-9.882067680358887,0.6248866319656372,0.004791259765625,0.2382320761680603,-0.0258195661008358
2203194301962,-0.0933738648891449,-9.911994934082031,0.5889736413955688,0.0015970865497365594,0.2427571564912796,-0.0191650390625
2203195539337,-0.09816227108240128,-9.897629737854004,0.5758054852485657,0.005057440605014563,0.2440880686044693,-0.0247548408806324
2203196776700,-0.13527239859104156,-9.951498985290527,0.5913678407669067,0.005855984054505825,0.2464836984872818,-0.0258195661008358
2203198014075,-0.13527239859104156,-9.888052940368652,0.6476315855979919,0.0005323622026480734,0.2451527863740921,-0.02741665206849575
2203199251450,-0.11133038252592087,-9.925163269042969,0.629675030708313,0.00452507846057415,0.2456851452589035,-0.0268842913210392
2203200488800,-0.11252748221158981,-9.874884605407715,0.6368576288223267,0.003460354171693325,0.2462175190448761,-0.02794901467859745
2203201726175,-0.10295067727565765,-9.815030097961426,0.6212953329086304,-0.0021294488105922937,0.2456851452589035,-0.02901373989880085
2203202963550,-0.12689268589019775,-9.797073364257812,0.6117185354232788,-0.0013309054775163531,0.2507425844669342,-0.0311431884765625
2203204200912,-0.12928690016269684,-9.858125686645508,0.6320692300796509,-0.0005323622026480734,0.251807302236557,-0.0295461006462574
2203205438287,-0.11611878126859665,-9.86889934539795,0.6260837316513062,-0.0018632676219567657,0.2459513247013092,-0.0228915736079216
2203206675662,-0.11611878126859665,-9.84256362915039,0.6057330369949341,0.0,0.2496778666973114,-0.0215606689453125
2203207913037,-0.09217676520347595,-9.835380554199219,0.5781997442245483,-0.0007985432748682797,0.2568647563457489,-0.0196974016726017
2203209150387,-0.12210428714752197,-9.841365814208984,0.5925649404525757,-0.0018632676219567657,0.2531382143497467,-0.02369011752307415
2203210387775,-0.12090718746185303,-9.821015357971191,0.6057330369949341,-0.0015970865497365594,0.2510087788105011,-0.0268842913210392
2203211625125,-0.1256955862045288,-9.799468040466309,0.6380547285079956,-0.0021294488105922937,0.2510087788105011,-0.0215606689453125
2203212862500,-0.1412578970193863,-9.876082420349121,0.5829881429672241,0.0005323622026480734,0.2544691264629364,-0.0220930315554142
2203214099850,-0.12090718746185303,-9.829395294189453,0.5973533391952515,0.0039927163161337376,0.2536705732345581,-0.0191650390625
2203215337237,-0.10654197633266449,-9.81143856048584,0.629675030708313,0.0,0.2534044086933136,-0.01996358297765255
2203216574612,-0.14365209639072418,-9.838972091674805,0.5937620401382446,-0.0023956298828125,0.2542029321193695,-0.0210283063352108
2203217812000,-0.1256955862045288,-9.848548889160156,0.6129156351089478,-0.0026618109550327063,0.25872802734375,-0.02076212503015995
2203219049337,-0.12090718746185303,-9.806650161743164,0.6607996821403503,0.0013309054775163531,0.261389821767807,-0.02022976242005825
2203220286712,-0.11013327538967133,-9.853337287902832,0.6392518877983093,0.005589802749454975,0.2592603862285614,-0.01996358297765255
2203221524100,-0.13048399984836578,-9.852140426635742,0.6404489874839783,0.0042588976211845875,0.261389821767807,-0.015438503585755825
2203222761450,-0.10654197633266449,-9.859322547912598,0.6153098344802856,0.0015970865497365594,0.2632530927658081,-0.01410759799182415
2203223998837,-0.11611878126859665,-9.853337287902832,0.6045359373092651,0.0013309054775163531,0.2621883749961853,-0.01463996060192585
2203225236225,-0.13407529890537262,-9.861717224121094,0.5925649404525757,0.0037265352439135313,0.2568647563457489,-0.01703559048473835
2203226473550,-0.15322890877723694,-9.895236015319824,0.6236895322799683,-0.0018632676219567657,0.2619222104549408,-0.0181003138422966
2203227710937,-0.18076223134994507,-9.876082420349121,0.6703764796257019,-0.003460354171693325,0.2675119936466217,-0.0186326764523983
2203228948312,-0.16160862147808075,-9.859322547912598,0.6248866319656372,0.0021294488105922937,0.2659149169921875,-0.0167694091796875
2203230185662,-0.13766659796237946,-9.87967300415039,0.6643909811973572,0.0039927163161337376,0.2659149169921875,-0.013309055007994175
2203231423037,-0.18315643072128296,-9.825803756713867,0.6440402865409851,0.003460354171693325,0.2715047299861908,-0.0162370465695858
2203232660412,-0.1280897855758667,-9.813833236694336,0.6560112833976746,0.0018632676219567657,0.2704399824142456,-0.013309055007994175
2203233897775,-0.16400282084941864,-9.84376049041748,0.6500257849693298,0.0021294488105922937,0.2675119936466217,-0.0114457868039608
2203235135162,-0.1149216815829277,-9.873687744140625,0.5781997442245483,0.006122165359556675,0.270972341299057,-0.01463996060192585
2203236372512,-0.12928690016269684,-9.850942611694336,0.5710170865058899,0.0013309054775163531,0.2728356122970581,-0.0220930315554142
2203237609887,-0.1149216815829277,-9.840168952941895,0.5925649404525757,0.0029279920272529125,0.2746988832950592,-0.01357523538172245
2203238847262,-0.10295067727565765,-9.873687744140625,0.6512228846549988,0.0015970865497365594,0.2754974365234375,-0.01117960549890995
2203240084637,-0.15562310814857483,-9.823410034179688,0.5746083855628967,-0.0023956298828125,0.2744327187538147,-0.013309055007994175
2203241322012,-0.16759411990642548,-9.84256362915039,0.6045359373092651,0.0005323622026480734,0.2728356122970581,-0.01357523538172245
2203242559362,-0.14245499670505524,-9.830592155456543,0.5937620401382446,0.0029279920272529125,0.2800225019454956,-0.0119781494140625
2203243796750,-0.15921440720558167,-9.849745750427246,0.5889736413955688,0.0023956298828125,0.2792239785194397,-0.012510511092841625
2203245034100,-0.1388636976480484,-9.847352027893066,0.645237386226654,0.0029279920272529125,0.2797563374042511,-0.015172322280704975
2203246271487,-0.11133038252592087,-9.783905029296875,0.608127236366272,0.0013309054775163531,0.2829504907131195,-0.0181003138422966
2203247508850,-0.15442600846290588,-9.886856079101562,0.606930136680603,0.0015970865497365594,0.2829504907131195,-0.01836649514734745
2203248746212,-0.18076223134994507,-9.865307807922363,0.6500257849693298,0.00452507846057415,0.2837490439414978,-0.01171196810901165
2203249983587,-0.1843535304069519,-9.855731010437012,0.6141127347946167,0.0066545275039970875,0.2898712158203125,-0.0119781494140625
2203251220975,-0.12689268589019775,-9.838972091674805,0.5901707410812378,0.008783976547420025,0.2920006513595581,-0.0162370465695858
2203252458312,-0.12330138683319092,-9.828198432922363,0.5997475385665894,0.00958251953125,0.2927992045879364,-0.0173017717897892
2203253695687,-0.13048399984836578,-9.835380554199219,0.6248866319656372,0.0077192517928779125,0.2914682924747467,-0.01224433071911335
2203254933050,-0.1628057211637497,-9.84615421295166,0.5985504388809204,0.005589802749454975,0.2983890175819397,-0.0191650390625
2203256170437,-0.11372458189725876,-9.855731010437012,0.646434485912323,0.0071868896484375,0.2957271933555603,-0.01996358297765255
2203257407800,-0.1149216815829277,-9.87967300415039,0.6177040338516235,0.012510511092841625,0.2951948344707489,-0.014906140975654125
2203258645162,-0.12090718746185303,-9.835380554199219,0.6093243360519409,0.012510511092841625,0.2951948344707489,-0.01357523538172245
2203259882550,-0.08858546614646912,-9.834183692932129,0.5805939435958862,0.005589802749454975,0.299719899892807,-0.0167694091796875
2203261119925,-0.11971008777618408,-9.838972091674805,0.5973533391952515,0.00931633822619915,0.3015831708908081,-0.023956298828125
2203262357300,-0.11013327538967133,-9.786299705505371,0.6165069341659546,0.006122165359556675,0.2981228232383728,-0.015438503585755825
2203263594662,-0.08978256583213806,-9.838972091674805,0.6536170840263367,0.004791259765625,0.2991875410079956,-0.01597086526453495
2203264832037,-0.13766659796237946,-9.791088104248047,0.5997475385665894,0.0071868896484375,0.3034464418888092,-0.0196974016726017
2203266069375,-0.090979665517807,-9.787496566772461,0.6117185354232788,0.008517795242369175,0.3039788007736206,-0.01463996060192585
2203267306775,-0.11013327538967133,-9.815030097961426,0.6655880808830261,0.005855984054505825,0.3034464418888092,-0.01224433071911335
2203268544137,-0.06823474913835526,-9.77791976928711,0.6009446382522583,0.005589802749454975,0.3063744306564331,-0.01650322787463665
2203269781500,-0.09935937076807022,-9.795876502990723,0.690727174282074,0.004791259765625,0.3053097128868103,-0.0228915736079216
2203271018875,-0.07182604819536209,-9.75397777557373,0.6177040338516235,0.010647243820130825,0.3090362548828125,-0.013309055007994175
2203272256225,-0.10773907601833344,-9.764751434326172,0.6440402865409851,0.0114457868039608,0.3103671669960022,-0.013309055007994175
2203273493600,-0.11133038252592087,-9.780314445495605,0.6260837316513062,0.013309055007994175,0.3087700605392456,-0.014373779296875
2203274730962,-0.11851298809051514,-9.807847023010254,0.6440402865409851,0.01224433071911335,0.3071729838848114,-0.014373779296875
2203275968350,-0.1604115217924118,-9.829395294189453,0.6141127347946167,0.01117960549890995,0.3122304379940033,-0.01117960549890995
2203277205725,-0.14604631066322327,-9.803058624267578,0.6212953329086304,0.015438503585755825,0.3135613203048706,-0.0119781494140625
2203278443087,-0.12928690016269684,-9.800664901733398,0.629675030708313,0.01996358297765255,0.3119642436504364,-0.015172322280704975
2203279680462,-0.15801730751991272,-9.813833236694336,0.5901707410812378,0.015172322280704975,0.3063744306564331,-0.010381062515079975
2203280917837,-0.13168109953403473,-9.831789016723633,0.6200982332229614,0.0090501569211483,0.3106333315372467,-0.0071868896484375
2203282155187,-0.11851298809051514,-9.813833236694336,0.6536170840263367,0.015172322280704975,0.3151584267616272,-0.01410759799182415
2203283392550,-0.11252748221158981,-9.831789016723633,0.6260837316513062,0.01756795309484005,0.31622314453125,-0.012510511092841625
2203284629937,-0.11013327538967133,-9.862914085388184,0.646434485912323,0.01650322787463665,0.318884938955307,-0.00692070834338665
2203285867312,-0.08499415963888168,-9.858125686645508,0.6045359373092651,0.02369011752307415,0.3186187744140625,-0.010913425125181675
2203287104675,-0.08858546614646912,-9.830592155456543,0.5901707410812378,0.0196974016726017,0.3151584267616272,-0.010647243820130825
2203288342037,-0.0802057608962059,-9.816226959228516,0.6248866319656372,0.01756795309484005,0.3156907856464386,-0.0039927163161337376
2203289579412,-0.07900865375995636,-9.838972091674805,0.6428431868553162,0.0157046839594841,0.3202158510684967,-0.0037265352439135313
2203290816775,-0.061052143573760986,-9.828198432922363,0.629675030708313,0.0157046839594841,0.3263380229473114,-0.006122165359556675
2203292054150,-0.05147533863782883,-9.832986831665039,0.6105214357376099,0.0181003138422966,0.3279350996017456,-0.005057440605014563
2203293291537,-0.05027823522686958,-9.803058624267578,0.6512228846549988,0.0186326764523983,0.3167555034160614,-0.005589802749454975
2203294528900,-0.035913024097681046,-9.840168952941895,0.6129156351089478,0.02129448764026165,0.3175540566444397,-0.008251613937318325
2203295766275,-0.08140286058187485,-9.803058624267578,0.6117185354232788,0.01783413253724575,0.3186187744140625,-0.00692070834338665
2203297003625,-0.08738835901021957,-9.7791166305542,0.6021417379379272,0.0167694091796875,0.3170216977596283,-0.007985432632267475
2203298241000,-0.07302315533161163,-9.804256439208984,0.586579442024231,0.02182685025036335,0.3228776752948761,-0.007453070487827063
2203299478387,-0.0586579404771328,-9.834183692932129,0.608127236366272,0.0210283063352108,0.3252733051776886,-0.01117960549890995
2203300715737,-0.05027823522686958,-9.795876502990723,0.5793968439102173,0.01783413253724575,0.323676198720932,-0.01117960549890995
2203301953125,-0.043095629662275314,-9.838972091674805,0.5889736413955688,0.01836649514734745,0.3252733051776886,-0.005855984054505825
2203303190487,-0.0454898327589035,-9.773131370544434,0.5973533391952515,0.01703559048473835,0.3239423930644989,-0.006122165359556675
2203304427837,-0.08858546614646912,-9.805453300476074,0.5638344883918762,0.0210283063352108,0.323676198720932,-0.010114881210029125
2203305665212,-0.10295067727565765,-9.835380554199219,0.5901707410812378,0.01889885775744915,0.3202158510684967,-0.00984870083630085
2203306902587,-0.11611878126859665,-9.834183692932129,0.6189011335372925,0.01783413253724575,0.3228776752948761,-0.0037265352439135313
2203308139950,-0.1041477769613266,-9.86889934539795,0.5889736413955688,0.0210283063352108,0.3268703818321228,-0.007985432632267475
2203309377325,-0.10295067727565765,-9.848548889160156,0.5506663918495178,0.023956298828125,0.3247409462928772,-0.010913425125181675
2203310614712,-0.07900865375995636,-9.84495735168457,0.5674257874488831,0.02076212503015995,0.323676198720932,-0.0066545275039970875
2203311852062,-0.05386953800916672,-9.864110946655273,0.5626373887062073,0.01996358297765255,0.3260718286037445,-0.007453070487827063
2203313089450,-0.08619125932455063,-9.889249801635742,0.5925649404525757,0.02022976242005825,0.3239423930644989,-0.00931633822619915
2203314326812,-0.06344634294509888,-9.852140426635742,0.5925649404525757,0.0196974016726017,0.3271365761756897,-0.0090501569211483
2203315564162,-0.06464345008134842,-9.86650562286377,0.5674257874488831,0.02022976242005825,0.3244747519493103,-0.012776692397892475
2203316801562,-0.06224924325942993,-9.872490882873535,0.6045359373092651,0.02076212503015995,0.3258056640625,-0.0119781494140625
2203318038900,-0.05746084079146385,-9.890447616577148,0.6428431868553162,0.0210283063352108,0.3276689350605011,-0.00452507846057415
2203319276275,-0.04788403585553169,-9.894038200378418,0.6320692300796509,0.02129448764026165,0.3268703818321228,-0.0119781494140625
2203320513650,-0.04908113554120064,-9.904812812805176,0.6619967818260193,0.01783413253724575,0.3239423930644989,-0.0114457868039608
2203321751025,-0.0586579404771328,-9.861717224121094,0.6631938815116882,0.02076212503015995,0.3255394697189331,-0.003460354171693325
2203322988412,-0.04429273307323456,-9.873687744140625,0.6751648783683777,0.02022976242005825,0.3266042172908783,-0.008517795242369175
2203324225775,-0.026336219161748886,-9.8784761428833,0.6751648783683777,0.01783413253724575,0.3274027407169342,-0.010913425125181675
2203325463150,-0.02753331884741783,-9.853337287902832,0.6416460871696472,0.02076212503015995,0.3223453164100647,-0.008517795242369175
2203326700500,-0.028730420395731926,-9.858125686645508,0.6440402865409851,0.02502102218568325,0.3207482099533081,-0.0071868896484375
2203327937875,-0.043095629662275314,-9.897629737854004,0.6476315855979919,0.02022976242005825,0.3276689350605011,-0.010381062515079975
2203329175250,0.0,-9.890447616577148,0.6512228846549988,0.0167694091796875,0.3295322060585022,-0.008783976547420025
2203330412612,-0.008379706181585789,-9.90361499786377,0.6524199843406677,0.012776692397892475,0.3258056640625,-0.00452507846057415
2203331650000,-0.0035913025494664907,-9.927556991577148,0.6129156351089478,0.014906140975654125,0.3266042172908783,-0.0042588976211845875
2203332887350,-0.011971008963882923,-9.941922187805176,0.5961562395095825,0.01943122036755085,0.3250071108341217,-0.0090501569211483
2203334124725,-0.04788403585553169,-9.90122127532959,0.6380547285079956,0.0181003138422966,0.3234100341796875,-0.0063883461989462376
2203335362087,-0.06344634294509888,-9.883264541625977,0.6524199843406677,0.015172322280704975,0.3250071108341217,-0.005057440605014563
2203336599462,-0.021547814831137657,-9.848548889160156,0.6440402865409851,0.01463996060192585,0.3263380229473114,-0.005589802749454975
2203337836837,-0.04908113554120064,-9.855731010437012,0.5793968439102173,0.0157046839594841,0.323676198720932,-0.01117960549890995
2203339074200,-0.031124621629714966,-9.829395294189453,0.5997475385665894,0.0162370465695858,0.3223453164100647,-0.01117960549890995
2203340311587,-0.05985504388809204,-9.831789016723633,0.5913678407669067,0.01783413253724575,0.3220791220664978,-0.0090501569211483
2203341548937,-0.05746084079146385,-9.807847023010254,0.568622887134552,0.01756795309484005,0.3266042172908783,-0.007985432632267475
2203342786325,-0.0071826050989329815,-9.84256362915039,0.5590460896492004,0.015438503585755825,0.3226114809513092,-0.005589802749454975
2203344023687,-0.019153613597154617,-9.849745750427246,0.6153098344802856,0.02022976242005825,0.3204820454120636,-0.00958251953125
2203345261037,0.040701430290937424,-9.8784761428833,0.6045359373092651,0.0196974016726017,0.3228776752948761,-0.010114881210029125
2203346498425,-0.035913024097681046,-9.849745750427246,0.6368576288223267,0.0119781494140625,0.3250071108341217,-0.01117960549890995
2203347735787,-0.023942017927765846,-9.827000617980957,0.5339069962501526,0.0114457868039608,0.323676198720932,-0.006122165359556675
2203348973150,0.020350715145468712,-9.836577415466309,0.586579442024231,0.01703559048473835,0.3212805688381195,-0.00958251953125
2203350210537,0.02274491637945175,-9.862914085388184,0.5494692921638489,0.0167694091796875,0.318884938955307,-0.0013309054775163531
2203351447900,-0.0035913025494664907,-9.883264541625977,0.5554547905921936,0.012510511092841625,0.3167555034160614,0.0002661811013240367
2203352685275,0.033518824726343155,-9.84495735168457,0.6248866319656372,0.01117960549890995,0.3178202211856842,-0.003460354171693325
2203353922650,0.03950432687997818,-9.825803756713867,0.5985504388809204,0.0077192517928779125,0.3167555034160614,-0.0037265352439135313
2203355159987,0.020350715145468712,-9.883264541625977,0.5997475385665894,0.007453070487827063,0.311431884765625,-0.0029279920272529125
2203356397400,0.0586579404771328,-9.841365814208984,0.6033388376235962,0.01171196810901165,0.3101009726524353,-0.0026618109550327063
2203357634750,0.026336219161748886,-9.862914085388184,0.6033388376235962,0.015172322280704975,0.3111656904220581,-0.003460354171693325
2203358872112,-0.004788403399288654,-9.854534149169922,0.6344634294509888,0.0162370465695858,0.3124966025352478,-0.0037265352439135313
2203360109500,0.014365210197865963,-9.84256362915039,0.5817910432815552,0.01463996060192585,0.3069067895412445,-0.0053236219100654125
2203361346862,0.06344634294509888,-9.876082420349121,0.5793968439102173,0.014906140975654125,0.3077053427696228,-0.0021294488105922937
2203362584237,0.0347159244120121,-9.828198432922363,0.606930136680603,0.012510511092841625,0.3061082661151886,-0.0018632676219567657
2203363821587,0.04429273307323456,-9.882067680358887,0.6272808313369751,0.010647243820130825,0.3055759072303772,-0.00452507846057415
2203365058975,0.028730420395731926,-9.871294021606445,0.646434485912323,0.010913425125181675,0.301849365234375,-0.0031941730994731188
2203366296337,0.05027823522686958,-9.824606895446777,0.6117185354232788,0.01224433071911335,0.3050435483455658,-0.0002661811013240367
2203367533712,0.0347159244120121,-9.838972091674805,0.6009446382522583,0.00984870083630085,0.3037126362323761,-0.0039927163161337376
2203368771087,0.026336219161748886,-9.837775230407715,0.6117185354232788,0.01224433071911335,0.3007846474647522,0.0
2203370008450,0.031124621629714966,-9.850942611694336,0.6428431868553162,0.01703559048473835,0.2951948344707489,-0.0002661811013240367
2203371245837,0.017956512048840523,-9.806650161743164,0.6667851805686951,0.0162370465695858,0.2951948344707489,-0.0007985432748682797
2203372483212,-0.002394201699644327,-9.847352027893066,0.6356605291366577,0.010381062515079975,0.3007846474647522,-0.006122165359556675
2203373720562,0.028730420395731926,-9.798270225524902,0.6356605291366577,0.015438503585755825,0.292266845703125,-0.003460354171693325
2203374957925,0.05027823522686958,-9.7791166305542,0.5937620401382446,0.01996358297765255,0.2904035747051239,0.0
2203376195300,0.020350715145468712,-9.792284965515137,0.5961562395095825,0.0181003138422966,0.2893388569355011,-0.0021294488105922937
2203377432687,0.002394201699644327,-9.798270225524902,0.6212953329086304,0.0138414166867733,0.2888064980506897,-0.0071868896484375
2203378670050,0.014365210197865963,-9.77791976928711,0.5961562395095825,0.010647243820130825,0.2920006513595581,-0.0015970865497365594
2203379907412,-0.011971008963882923,-9.789891242980957,0.5590460896492004,0.0157046839594841,0.2882741391658783,-0.0029279920272529125
2203381144787,0.015562310814857483,-9.799468040466309,0.6332663297653198,0.015438503585755825,0.2861446738243103,-0.005589802749454975
2203382382137,0.0586579404771328,-9.829395294189453,0.6368576288223267,0.010114881210029125,0.292266845703125,-0.0013309054775163531
2203383619512,0.04668693244457245,-9.765949249267578,0.6320692300796509,0.015438503585755825,0.2933315634727478,-0.005855984054505825
2203384856887,0.02753331884741783,-9.780314445495605,0.6045359373092651,0.01756795309484005,0.2912021279335022,-0.01224433071911335
2203386094250,0.07062894850969315,-9.749189376831055,0.5781997442245483,0.0138414166867733,0.2893388569355011,-0.0090501569211483
2203387331625,0.0586579404771328,-9.757569313049316,0.5674257874488831,0.01224433071911335,0.2824181318283081,-0.008517795242369175
2203388568987,0.05027823522686958,-9.747992515563965,0.6033388376235962,0.01756795309484005,0.2802886962890625,-0.0077192517928779125
2203389806387,0.0454898327589035,-9.746795654296875,0.5817910432815552,0.0215606689453125,0.2794901430606842,-0.01117960549890995
2203391043750,0.08259996026754379,-9.761160850524902,0.628477931022644,0.02369011752307415,0.2781592309474945,-0.012510511092841625
2203392281112,0.028730420395731926,-9.803058624267578,0.6320692300796509,0.02262539230287075,0.2736341655254364,-0.003460354171693325
2203393518475,0.07062894850969315,-9.823410034179688,0.6272808313369751,0.02315775491297245,0.2749650776386261,-0.0031941730994731188
2203394755850,0.05746084079146385,-9.827000617980957,0.6308721303939819,0.0234239362180233,0.2760297954082489,-0.010913425125181675
2203395993212,0.05386953800916672,-9.858125686645508,0.6344634294509888,0.0220930315554142,0.2725694477558136,-0.0119781494140625
2203397230587,0.07900865375995636,-9.827000617980957,0.5877765417098999,0.0247548408806324,0.2677781879901886,-0.005057440605014563
2203398467962,0.0071826050989329815,-9.872490882873535,0.6021417379379272,0.0223592109978199,0.266181081533432,-0.0005323622026480734
2203399705337,0.02274491637945175,-9.862914085388184,0.6236895322799683,0.01597086526453495,0.2720370888710022,-0.005855984054505825
2203400942700,0.07781155407428741,-9.864110946655273,0.6548141837120056,0.0191650390625,0.2712385356426239,-0.006122165359556675
2203402180075,0.031124621629714966,-9.821015357971191,0.5817910432815552,0.0228915736079216,0.2693752646446228,-0.008783976547420025
2203403417450,0.021547814831137657,-9.805453300476074,0.6105214357376099,0.0234239362180233,0.2704399824142456,-0.01357523538172245
2203404654800,0.06464345008134842,-9.800664901733398,0.6153098344802856,0.01836649514734745,0.2656487226486206,-0.013042873702943325
2203405892187,0.04189852997660637,-9.84615421295166,0.6200982332229614,0.0186326764523983,0.2600589394569397,-0.01357523538172245
2203407129550,0.0059855044819414616,-9.856928825378418,0.6428431868553162,0.0252872034907341,0.2645840048789978,-0.0071868896484375
2203408366925,0.02753331884741783,-9.828198432922363,0.6619967818260193,0.02129448764026165,0.2616560161113739,-0.0042588976211845875
2203409604312,0.010773907415568829,-9.823410034179688,0.6428431868553162,0.0234239362180233,0.25872802734375,-0.008517795242369175
2203410841662,-0.011971008963882923,-9.823410034179688,0.6560112833976746,0.02315775491297245,0.2560662031173706,-0.015438503585755825
2203412079037,0.0071826050989329815,-9.806650161743164,0.6105214357376099,0.0247548408806324,0.2531382143497467,-0.00984870083630085
2203413316400,-0.0071826050989329815,-9.807847023010254,0.5614402890205383,0.0173017717897892,0.2576633095741272,-0.0090501569211483
2203414553775,0.015562310814857483,-9.805453300476074,0.5817910432815552,0.02315775491297245,0.2552676796913147,-0.010913425125181675
2203415791150,-0.014365210197865963,-9.818621635437012,0.5291185975074768,0.0215606689453125,0.2528720498085022,-0.01650322787463665
2203417028525,-0.009576806798577309,-9.830592155456543,0.5913678407669067,0.0210283063352108,0.2555338442325592,-0.01996358297765255
2203418265862,0.021547814831137657,-9.805453300476074,0.6141127347946167,0.0196974016726017,0.2544691264629364,-0.0191650390625
2203419503237,-0.015562310814857483,-9.860519409179688,0.5889736413955688,0.02182685025036335,0.2555338442325592,-0.0210283063352108
2203420740625,0.023942017927765846,-9.80904483795166,0.5770025849342346,0.0223592109978199,0.2531382143497467,-0.01996358297765255
2203421978012,0.0035913025494664907,-9.757569313049316,0.6165069341659546,0.0191650390625,0.2462175190448761,-0.01597086526453495
2203423215375,0.014365210197865963,-9.786299705505371,0.6236895322799683,0.02076212503015995,0.2515411376953125,-0.01703559048473835
2203424452762,0.008379706181585789,-9.77672290802002,0.6105214357376099,0.0258195661008358,0.2459513247013092,-0.0173017717897892
2203425690100,0.028730420395731926,-9.80904483795166,0.6165069341659546,0.02369011752307415,0.244354248046875,-0.02555338479578495
2203426927475,0.0454898327589035,-9.836577415466309,0.6308721303939819,0.0210283063352108,0.2478145956993103,-0.0234239362180233
2203428164837,0.0454898327589035,-9.824606895446777,0.6344634294509888,0.02315775491297245,0.2451527863740921,-0.0191650390625
2203429402225,0.04429273307323456,-9.789891242980957,0.5973533391952515,0.01943122036755085,0.2454189658164978,-0.02182685025036335
2203430639587,0.035913024097681046,-9.837775230407715,0.5997475385665894,0.02422248013317585,0.2464836984872818,-0.0258195661008358
2203431876950,0.013168109580874443,-9.781511306762695,0.6117185354232788,0.0263519287109375,0.2376997172832489,-0.023956298828125
2203433114325,0.0011971008498221636,-9.806650161743164,0.645237386226654,0.0247548408806324,0.2406277060508728,-0.0223592109978199
2203434351712,0.0071826050989329815,-9.798270225524902,0.6236895322799683,0.0186326764523983,0.2361026257276535,-0.02555338479578495
2203435589075,-0.002394201699644327,-9.827000617980957,0.6607996821403503,0.0258195661008358,0.2438218891620636,-0.0295461006462574
2203436826437,-0.019153613597154617,-9.821015357971191,0.6524199843406677,0.0263519287109375,0.2435556948184967,-0.03087700717151165
2203438063812,-0.016759412363171577,-9.789891242980957,0.6536170840263367,0.023956298828125,0.2422247976064682,-0.02262539230287075
2203439301187,0.014365210197865963,-9.821015357971191,0.6428431868553162,0.0220930315554142,0.2414262592792511,-0.0319417305290699
2203440538550,-0.010773907415568829,-9.848548889160156,0.5949591398239136,0.0276828333735466,0.2371673583984375,-0.0271504707634449
2203441775925,-0.033518824726343155,-9.829395294189453,0.586579442024231,0.02848137728869915,0.2339731752872467,-0.0268842913210392
2203443013287,0.026336219161748886,-9.850942611694336,0.6021417379379272,0.0263519287109375,0.2345055490732193,-0.0244886614382267
2203444250675,-0.0071826050989329815,-9.84615421295166,0.5973533391952515,0.02741665206849575,0.234771728515625,-0.02741665206849575
2203445488025,-0.013168109580874443,-9.859322547912598,0.5410895943641663,0.02741665206849575,0.2361026257276535,-0.02741665206849575
2203446725412,-0.0035913025494664907,-9.872490882873535,0.5650315880775452,0.0244886614382267,0.2323760986328125,-0.0300784632563591
2203447962762,0.023942017927765846,-9.847352027893066,0.6212953329086304,0.02608574740588665,0.2334408164024353,-0.0324740931391716
2203449200137,0.05147533863782883,-9.829395294189453,0.5626373887062073,0.02422248013317585,0.2353040874004364,-0.0316755510866642
2203450437512,-0.026336219161748886,-9.849745750427246,0.606930136680603,0.02848137728869915,0.233706995844841,-0.0292799212038517
2203451674875,0.0059855044819414616,-9.847352027893066,0.5913678407669067,0.0322079136967659,0.2315775454044342,-0.03034464456140995
2203452912262,-0.0071826050989329815,-9.818621635437012,0.6320692300796509,0.02661811001598835,0.2283833771944046,-0.0300784632563591
2203454149625,0.0059855044819414616,-9.815030097961426,0.6009446382522583,0.0258195661008358,0.2294481098651886,-0.0314093679189682
2203455387000,0.04189852997660637,-9.840168952941895,0.5949591398239136,0.0295461006462574,0.2313113659620285,-0.0306108258664608
2203456624350,0.05626374110579491,-9.793481826782227,0.5758054852485657,0.0276828333735466,0.2291819155216217,-0.02874755859375
2203457861737,0.06703764945268631,-9.827000617980957,0.629675030708313,0.02608574740588665,0.2270524799823761,-0.0330064557492733
2203459099100,0.09935937076807022,-9.858125686645508,0.6057330369949341,0.0282151959836483,0.2214626669883728,-0.033272635191679
2203460336475,0.011971008963882923,-9.819818496704102,0.6356605291366577,0.02608574740588665,0.2267862856388092,-0.0306108258664608
2203461573850,0.061052143573760986,-9.791088104248047,0.6308721303939819,0.02981228195130825,0.225189208984375,-0.0340711809694767
2203462811225,0.014365210197865963,-9.841365814208984,0.6177040338516235,0.02874755859375,0.2230597585439682,-0.0369991734623909
2203464048587,-0.010773907415568829,-9.818621635437012,0.6356605291366577,0.02874755859375,0.224124476313591,-0.0346035435795784
2203465285937,-0.019153613597154617,-9.798270225524902,0.6236895322799683,0.0258195661008358,0.2198655903339386,-0.0343373604118824
2203466523325,-0.0347159244120121,-9.831789016723633,0.5901707410812378,0.0263519287109375,0.2238582968711853,-0.0330064557492733
2203467760687,-0.043095629662275314,-9.793481826782227,0.6105214357376099,0.02901373989880085,0.22039794921875,-0.0330064557492733
2203468998075,-0.043095629662275314,-9.805453300476074,0.6308721303939819,0.0282151959836483,0.2182684987783432,-0.0346035435795784
2203470235425,-0.05027823522686958,-9.871294021606445,0.6009446382522583,0.02741665206849575,0.2219950258731842,-0.0338049978017807
2203471472800,-0.028730420395731926,-9.829395294189453,0.6129156351089478,0.0263519287109375,0.2206641286611557,-0.033538818359375
2203472710175,-0.008379706181585789,-9.823410034179688,0.629675030708313,0.0314093679189682,0.2164052277803421,-0.0330064557492733
2203473947550,-0.035913024097681046,-9.813833236694336,0.5913678407669067,0.033272635191679,0.2180023193359375,-0.0377977155148983
2203475184925,-0.07182604819536209,-9.841365814208984,0.6655880808830261,0.0311431884765625,0.22039794921875,-0.0372653529047966
2203476422300,-0.033518824726343155,-9.832986831665039,0.6368576288223267,0.0311431884765625,0.2209303081035614,-0.0364668108522892
2203477659662,-0.009576806798577309,-9.825803756713867,0.5770025849342346,0.0327402763068676,0.2153405100107193,-0.0338049978017807
2203478897025,-0.008379706181585789,-9.816226959228516,0.5722141861915588,0.0327402763068676,0.2166714072227478,-0.0369991734623909
2203480134400,-0.020350715145468712,-9.813833236694336,0.6021417379379272,0.033538818359375,0.2177361398935318,-0.0340711809694767
2203481371762,-0.020350715145468712,-9.765949249267578,0.5937620401382446,0.0324740931391716,0.2150743305683136,-0.0319417305290699
2203482609137,-0.06224924325942993,-9.77552604675293,0.5674257874488831,0.0348697230219841,0.2116139680147171,-0.0359344482421875
2203483846512,-0.020350715145468712,-9.774328231811523,0.5805939435958862,0.0338049978017807,0.2078874409198761,-0.0319417305290699
2203485083875,-0.021547814831137657,-9.763554573059082,0.5961562395095825,0.02874755859375,0.2142757773399353,-0.0316755510866642
2203486321262,-0.019153613597154617,-9.803058624267578,0.5758054852485657,0.02901373989880085,0.2126787006855011,-0.0388624407351017
2203487558625,0.013168109580874443,-9.791088104248047,0.5327098965644836,0.0322079136967659,0.2102830708026886,-0.0348697230219841
2203488796000,0.02753331884741783,-9.780314445495605,0.5973533391952515,0.0362006276845932,0.2116139680147171,-0.02874755859375
2203490033375,0.013168109580874443,-9.800664901733398,0.5937620401382446,0.0375315360724926,0.2102830708026886,-0.0316755510866642
2203491270725,0.033518824726343155,-9.816226959228516,0.5434837937355042,0.0359344482421875,0.2078874409198761,-0.0324740931391716
2203492508112,0.05267243832349777,-9.859322547912598,0.5841852426528931,0.0372653529047966,0.2036285400390625,-0.02262539230287075
2203493745475,0.07900865375995636,-9.838972091674805,0.6009446382522583,0.0420566126704216,0.2084197998046875,-0.02262539230287075
2203494982850,0.04908113554120064,-9.821015357971191,0.5805939435958862,0.0385962575674057,0.206024169921875,-0.0252872034907341
2203496220225,0.10295067727565765,-9.86889934539795,0.5937620401382446,0.0399271659553051,0.2022976279258728,-0.023956298828125
2203497457600,0.10773907601833344,-9.921571731567383,0.6488286852836609,0.0351359061896801,0.2030961811542511,-0.0258195661008358
2203498694950,0.10295067727565765,-9.886856079101562,0.6117185354232788,0.0385962575674057,0.1999019980430603,-0.02608574740588665
2203499932337,0.1173158809542656,-9.953893661499023,0.5781997442245483,0.0393948033452034,0.2009667307138443,-0.0276828333735466
2203501169700,0.1041477769613266,-9.939528465270996,0.585382342338562,0.038063894957304,0.2017652690410614,-0.0244886614382267
2203502407075,0.1041477769613266,-9.932345390319824,0.6093243360519409,0.0306108258664608,0.1961754709482193,-0.0247548408806324
2203503644437,0.07661445438861847,-9.950302124023438,0.569819986820221,0.0311431884765625,0.1983049213886261,-0.02794901467859745
2203504881812,0.05386953800916672,-9.921571731567383,0.6021417379379272,0.0295461006462574,0.1988372802734375,-0.0306108258664608
2203506119200,0.033518824726343155,-9.974244117736816,0.608127236366272,0.0306108258664608,0.1945783793926239,-0.0319417305290699
2203507356562,0.04908113554120064,-9.977835655212402,0.5710170865058899,0.0314093679189682,0.1956430971622467,-0.0330064557492733
2203508593937,0.026336219161748886,-9.945513725280762,0.6009446382522583,0.02369011752307415,0.1948445588350296,-0.0316755510866642
2203509831287,0.026336219161748886,-9.9586820602417,0.5554547905921936,0.02661811001598835,0.1897871196269989,-0.0295461006462574
2203511068662,0.03950432687997818,-9.98980712890625,0.5386953949928284,0.02848137728869915,0.1879238486289978,-0.0327402763068676
