timestamp_ns,accel_x,accel_y,accel_z,gyro_x,gyro_y,gyro_z
2475437119925,1.3180080652236938,-9.727641105651855,1.1971008777618408,-0.0026618109550327063,-0.00958251953125,0.0039927163161337376
2475438357100,1.337161660194397,-9.75158405303955,1.1324573755264282,-0.0066545275039970875,-0.0029279920272529125,0.0010647244052961469
2475439594300,1.3084312677383423,-9.728838920593262,1.1420341730117798,0.0002661811013240367,-0.0031941730994731188,0.0031941730994731188
2475440831487,1.292868971824646,-9.750386238098145,1.1540051698684692,0.0015970865497365594,-0.006122165359556675,0.0090501569211483
2475442068675,1.2785037755966187,-9.732430458068848,1.1743559837341309,-0.0029279920272529125,-0.00452507846057415,0.010647243820130825
2475443305850,1.2725181579589844,-9.726444244384766,1.1791443824768066,-0.01171196810901165,-0.0007985432748682797,0.005057440605014563
2475444543037,1.3275848627090454,-9.716867446899414,1.1611878871917725,-0.005057440605014563,0.0015970865497365594,0.004791259765625
2475445780212,1.2797008752822876,-9.768342971801758,1.1528080701828003,-0.00452507846057415,0.0063883461989462376,0.007985432632267475
2475447017412,1.2964602708816528,-9.731232643127441,1.1420341730117798,-0.0066545275039970875,0.0039927163161337376,0.0090501569211483
2475448254587,1.2797008752822876,-9.704896926879883,1.1611878871917725,-0.0026618109550327063,-0.0010647244052961469,0.010381062515079975
2475449491762,1.3036428689956665,-9.690531730651855,1.1839327812194824,-0.0042588976211845875,-0.0026618109550327063,0.013042873702943325
2475450728962,1.3048399686813354,-9.769539833068848,1.1444283723831177,-0.0063883461989462376,-0.0037265352439135313,0.008251613937318325
2475451966150,1.2952631711959839,-9.75517463684082,1.1827356815338135,-0.0053236219100654125,0.0023956298828125,0.0018632676219567657
2475453203325,1.2689268589019775,-9.718064308166504,1.1468225717544556,-0.0031941730994731188,0.00452507846057415,0.0066545275039970875
2475454440500,1.2868834733963013,-9.745597839355469,1.1791443824768066,-0.0037265352439135313,0.0021294488105922937,0.006122165359556675
2475455677687,1.292868971824646,-9.803058624267578,1.1635820865631104,-0.0018632676219567657,0.0007985432748682797,0.007985432632267475
2475456914887,1.2725181579589844,-9.737218856811523,1.1504138708114624,-0.0005323622026480734,0.0026618109550327063,0.008251613937318325
2475458152075,1.2868834733963013,-9.726444244384766,1.212663173675537,-0.0071868896484375,0.0042588976211845875,0.003460354171693325
2475459389262,1.3036428689956665,-9.765949249267578,1.136048674583435,-0.0010647244052961469,0.0013309054775163531,0.0031941730994731188
2475460626437,1.294066071510315,-9.762357711791992,1.1444283723831177,-0.0018632676219567657,0.0037265352439135313,0.008251613937318325
2475461863612,1.3431471586227417,-9.758766174316406,1.1121066808700562,-0.0010647244052961469,0.0018632676219567657,0.0042588976211845875
2475463100787,1.291671872138977,-9.763554573059082,1.1300631761550903,-0.0023956298828125,0.0023956298828125,0.005057440605014563
2475464337975,1.3503297567367554,-9.747992515563965,1.1528080701828003,-0.0005323622026480734,0.010381062515079975,0.005589802749454975
2475465575175,1.2761094570159912,-9.745597839355469,1.1599907875061035,0.0005323622026480734,0.0023956298828125,0.0031941730994731188
2475466812362,1.3012486696243286,-9.737218856811523,1.1647791862487793,0.0,0.0053236219100654125,0.004791259765625
2475468049550,1.3335703611373901,-9.7420072555542,1.1863269805908203,-0.0090501569211483,0.0031941730994731188,0.0053236219100654125
2475469286725,1.2844892740249634,-9.740809440612793,1.1611878871917725,-0.006122165359556675,0.0023956298828125,0.006122165359556675
2475470523900,1.2892776727676392,-9.720458984375,1.169567584991455,0.0,0.008251613937318325,0.008517795242369175
2475471761112,1.3275848627090454,-9.703699111938477,1.1791443824768066,-0.005589802749454975,0.0066545275039970875,0.0013309054775163531
2475472998275,1.335964560508728,-9.713275909423828,1.1528080701828003,-0.0053236219100654125,0.0071868896484375,-0.0005323622026480734
2475474235462,1.3251906633377075,-9.747992515563965,1.1444283723831177,-0.0015970865497365594,0.0066545275039970875,-0.0007985432748682797
2475475472637,1.3204022645950317,-9.738415718078613,1.1839327812194824,-0.0037265352439135313,0.005589802749454975,0.003460354171693325
2475476709812,1.3419500589370728,-9.725247383117676,1.169567584991455,-0.0013309054775163531,-0.0029279920272529125,-0.0026618109550327063
2475477947000,1.3239935636520386,-9.750386238098145,1.1444283723831177,0.0005323622026480734,0.0029279920272529125,0.0021294488105922937
2475479184200,1.3311761617660522,-9.697713851928711,1.170764684677124,0.0053236219100654125,0.00958251953125,0.0026618109550327063
2475480421400,1.2880805730819702,-9.716867446899414,1.1456254720687866,0.0005323622026480734,0.008251613937318325,0.005855984054505825
2475481658562,1.3036428689956665,-9.734824180603027,1.1540051698684692,-0.0037265352439135313,0.008783976547420025,0.0053236219100654125
2475482895762,1.3407529592514038,-9.736021041870117,1.1432312726974487,-0.005589802749454975,0.0071868896484375,0.0023956298828125
2475484132937,1.3227964639663696,-9.718064308166504,1.1743559837341309,-0.0021294488105922937,0.0053236219100654125,0.007453070487827063
2475485370112,1.3407529592514038,-9.718064308166504,1.1743559837341309,-0.0005323622026480734,0.00692070834338665,0.0077192517928779125
2475486607325,1.3275848627090454,-9.75278091430664,1.1827356815338135,0.003460354171693325,0.01171196810901165,0.00452507846057415
2475487844512,1.3227964639663696,-9.78869342803955,1.1492167711257935,0.004791259765625,0.008783976547420025,0.0023956298828125
2475489081675,1.335964560508728,-9.726444244384766,1.1432312726974487,-0.0002661811013240367,0.00931633822619915,0.0021294488105922937
2475490318862,1.3084312677383423,-9.764751434326172,1.1587936878204346,-0.0013309054775163531,0.012510511092841625,0.0023956298828125
2475491556037,1.2988544702529907,-9.763554573059082,1.1288660764694214,-0.0023956298828125,0.0090501569211483,0.0063883461989462376
2475492793237,1.3204022645950317,-9.749189376831055,1.2030863761901855,-0.0029279920272529125,0.012510511092841625,0.0042588976211845875
2475494030425,1.3096283674240112,-9.756372451782227,1.2066776752471924,-0.0026618109550327063,0.012510511092841625,0.0023956298828125
2475495267612,1.3443442583084106,-9.767146110534668,1.1252747774124146,0.0002661811013240367,0.008517795242369175,0.004791259765625
2475496504775,1.334767460823059,-9.785102844238281,1.1432312726974487,0.0002661811013240367,0.0090501569211483,0.0031941730994731188
2475497741962,1.3024457693099976,-9.759963035583496,1.1623849868774414,-0.0029279920272529125,0.01410759799182415,0.0037265352439135313
2475498979150,1.3491326570510864,-9.774328231811523,1.1791443824768066,-0.0026618109550327063,0.015172322280704975,0.0031941730994731188
2475500216325,1.2964602708816528,-9.767146110534668,1.1599907875061035,-0.003460354171693325,0.008517795242369175,0.0010647244052961469
2475501453525,1.3072341680526733,-9.756372451782227,1.1264718770980835,-0.0018632676219567657,0.010114881210029125,0.0026618109550327063
2475502690687,1.3108254671096802,-9.746795654296875,1.193509578704834,-0.005855984054505825,0.012510511092841625,0.0037265352439135313
2475503927887,1.3718775510787964,-9.744400978088379,1.169567584991455,-0.00452507846057415,0.01357523538172245,-0.0007985432748682797
2475505165075,1.3180080652236938,-9.749189376831055,1.1671733856201172,-0.0031941730994731188,0.01357523538172245,0.0026618109550327063
2475506402250,1.3287819623947144,-9.747992515563965,1.1025298833847046,-0.0002661811013240367,0.00958251953125,0.0039927163161337376
2475507639450,1.3084312677383423,-9.75517463684082,1.1623849868774414,0.0013309054775163531,0.014373779296875,0.006122165359556675
2475508876612,1.3299790620803833,-9.769539833068848,1.1755530834197998,-0.0005323622026480734,0.0138414166867733,0.00452507846057415
2475510113800,1.3539210557937622,-9.727641105651855,1.1408370733261108,-0.0018632676219567657,0.00931633822619915,0.0018632676219567657
2475511350987,1.3694833517074585,-9.7420072555542,1.2006921768188477,-0.0029279920272529125,0.010381062515079975,0.0013309054775163531
2475512588187,1.3407529592514038,-9.739612579345703,1.1444283723831177,0.0015970865497365594,0.01357523538172245,-0.0031941730994731188
2475513825362,1.3287819623947144,-9.701305389404297,1.1276689767837524,0.003460354171693325,0.00931633822619915,0.00452507846057415
2475515062537,1.3443442583084106,-9.725247383117676,1.1480196714401245,-0.0007985432748682797,0.010913425125181675,0.0007985432748682797
2475516299737,1.3263877630233765,-9.708487510681152,1.1300631761550903,-0.003460354171693325,0.0090501569211483,0.0005323622026480734
2475517536912,1.3108254671096802,-9.72285270690918,1.1540051698684692,-0.0005323622026480734,0.00931633822619915,0.0026618109550327063
2475518774100,1.3910311460494995,-9.72165584564209,1.1647791862487793,-0.0010647244052961469,0.01357523538172245,0.0039927163161337376
2475520011300,1.3611036539077759,-9.702502250671387,1.1264718770980835,-0.0018632676219567657,0.01357523538172245,-0.0007985432748682797
2475521248462,1.381454348564148,-9.730035781860352,1.1504138708114624,0.0013309054775163531,0.0114457868039608,0.0023956298828125
2475522485675,1.3311761617660522,-9.726444244384766,1.1767501831054688,-0.0005323622026480734,0.00984870083630085,0.00452507846057415
2475523722850,1.3263877630233765,-9.767146110534668,1.1444283723831177,-0.0013309054775163531,0.0071868896484375,0.0010647244052961469
2475524960025,1.359906554222107,-9.745597839355469,1.1875240802764893,-0.0023956298828125,0.01171196810901165,0.0037265352439135313
2475526197200,1.3670891523361206,-9.713275909423828,1.1671733856201172,0.0010647244052961469,0.01783413253724575,0.0037265352439135313
2475527434400,1.3611036539077759,-9.71926212310791,1.1647791862487793,-0.0007985432748682797,0.01783413253724575,0.0005323622026480734
2475528671587,1.3539210557937622,-9.734824180603027,1.1659762859344482,-0.0023956298828125,0.012776692397892475,-0.0013309054775163531
2475529908775,1.3718775510787964,-9.71926212310791,1.171961784362793,-0.0029279920272529125,0.01410759799182415,-0.0053236219100654125
2475531145937,1.3443442583084106,-9.715670585632324,1.173158884048462,0.0021294488105922937,0.013309055007994175,-0.0005323622026480734
2475532383137,1.3443442583084106,-9.716867446899414,1.1827356815338135,0.0013309054775163531,0.014373779296875,0.0015970865497365594
2475533620325,1.3527239561080933,-9.720458984375,1.1492167711257935,-0.0007985432748682797,0.01171196810901165,0.0071868896484375
2475534857512,1.3335703611373901,-9.714473724365234,1.1791443824768066,-0.0013309054775163531,0.010647243820130825,0.006122165359556675
2475536094687,1.3000515699386597,-9.727641105651855,1.1779472827911377,-0.0002661811013240367,0.008517795242369175,0.0023956298828125
2475537331875,1.290474772453308,-9.749189376831055,1.1575965881347656,-0.0007985432748682797,0.014373779296875,-0.0002661811013240367
2475538569062,1.3323732614517212,-9.740809440612793,1.1300631761550903,0.0029279920272529125,0.0114457868039608,0.004791259765625
2475539806250,1.3946224451065063,-9.749189376831055,1.1755530834197998,0.0023956298828125,0.012776692397892475,0.0015970865497365594
2475541043437,1.3682862520217896,-9.733627319335938,1.1288660764694214,0.00452507846057415,0.012776692397892475,-0.0002661811013240367
2475542280612,1.3611036539077759,-9.71926212310791,1.1276689767837524,-0.0002661811013240367,0.010114881210029125,0.0018632676219567657
2475543517787,1.3730746507644653,-9.744400978088379,1.1611878871917725,-0.0021294488105922937,0.012510511092841625,0.003460354171693325
2475544755000,1.3431471586227417,-9.725247383117676,1.171961784362793,0.0002661811013240367,0.010381062515079975,-0.0026618109550327063
2475545992162,1.357512354850769,-9.732430458068848,1.1432312726974487,-0.0015970865497365594,0.01224433071911335,0.0026618109550327063
2475547229337,1.3886369466781616,-9.726444244384766,1.1803414821624756,0.0002661811013240367,0.010381062515079975,0.005057440605014563
2475548466550,1.357512354850769,-9.75278091430664,1.1085153818130493,0.0042588976211845875,0.010381062515079975,0.0010647244052961469
2475549703712,1.3898340463638306,-9.75158405303955,1.1324573755264282,0.0029279920272529125,0.010114881210029125,0.0013309054775163531
2475550940912,1.3443442583084106,-9.700108528137207,1.1635820865631104,0.0023956298828125,0.008251613937318325,0.0021294488105922937
2475552178075,1.3479355573654175,-9.75397777557373,1.1659762859344482,0.0090501569211483,0.008251613937318325,-0.0010647244052961469
2475553415275,1.3646949529647827,-9.768342971801758,1.1563994884490967,0.0,0.007453070487827063,0.0029279920272529125
2475554652450,1.335964560508728,-9.746795654296875,1.1815385818481445,0.0021294488105922937,0.007985432632267475,0.0015970865497365594
2475555889650,1.3922282457351685,-9.747992515563965,1.1767501831054688,0.0015970865497365594,0.004791259765625,-0.0018632676219567657
2475557126837,1.3455413579940796,-9.7420072555542,1.2006921768188477,0.0029279920272529125,0.0037265352439135313,0.0010647244052961469
2475558364012,1.3335703611373901,-9.737218856811523,1.1563994884490967,0.0015970865497365594,0.007453070487827063,-0.0013309054775163531
2475559601200,1.3335703611373901,-9.737218856811523,1.1647791862487793,0.0026618109550327063,0.012776692397892475,0.0013309054775163531
2475560838375,1.337161660194397,-9.756372451782227,1.2186486721038818,-0.0002661811013240367,0.008251613937318325,0.0013309054775163531
2475562075575,1.382651448249817,-9.747992515563965,1.1647791862487793,0.0007985432748682797,0.008517795242369175,-0.0026618109550327063
2475563312737,1.3874398469924927,-9.736021041870117,1.1492167711257935,0.0029279920272529125,0.007453070487827063,0.0
2475564549925,1.3275848627090454,-9.757569313049316,1.1683704853057861,0.0029279920272529125,0.00931633822619915,0.0039927163161337376
2475565787125,1.3407529592514038,-9.756372451782227,1.1324573755264282,0.0031941730994731188,0.0066545275039970875,0.0013309054775163531
2475567024300,1.3682862520217896,-9.736021041870117,1.1623849868774414,0.007453070487827063,0.0042588976211845875,0.0037265352439135313
2475568261475,1.3898340463638306,-9.72285270690918,1.1683704853057861,0.012776692397892475,0.007985432632267475,0.0013309054775163531
2475569498662,1.3563152551651,-9.714473724365234,1.1635820865631104,0.0002661811013240367,0.0077192517928779125,-0.0010647244052961469
2475570735850,1.37906014919281,-9.7420072555542,1.1563994884490967,0.005057440605014563,0.00931633822619915,0.0026618109550327063
2475571973037,1.3958195447921753,-9.704896926879883,1.2078747749328613,0.007985432632267475,0.010647243820130825,0.0039927163161337376
2475573210237,1.3778630495071411,-9.720458984375,1.1611878871917725,0.0042588976211845875,0.008517795242369175,0.0010647244052961469
2475574447425,1.3611036539077759,-9.703699111938477,1.173158884048462,0.00692070834338665,0.003460354171693325,0.0023956298828125
2475575684600,1.413776159286499,-9.72285270690918,1.2210428714752197,0.0039927163161337376,0.004791259765625,-0.0010647244052961469
2475576921762,1.3623007535934448,-9.728838920593262,1.1468225717544556,0.0018632676219567657,0.005855984054505825,-0.0005323622026480734
2475578158950,1.337161660194397,-9.710882186889648,1.1288660764694214,0.005057440605014563,0.008783976547420025,0.0023956298828125
2475579396162,1.3778630495071411,-9.746795654296875,1.1839327812194824,0.0053236219100654125,0.0010647244052961469,0.0015970865497365594
2475580633337,1.3838485479354858,-9.708487510681152,1.1348515748977661,0.0005323622026480734,0.005589802749454975,0.0039927163161337376
2475581870525,1.3994109630584717,-9.733627319335938,1.1276689767837524,0.0053236219100654125,0.0071868896484375,0.0037265352439135313
2475583107712,1.3754688501358032,-9.700108528137207,1.1599907875061035,0.005855984054505825,0.0018632676219567657,0.0031941730994731188
2475584344875,1.3754688501358032,-9.732430458068848,1.1851298809051514,0.005589802749454975,0.0013309054775163531,-0.0026618109550327063
2475585582075,1.3838485479354858,-9.750386238098145,1.0977414846420288,0.004791259765625,0.003460354171693325,0.0026618109550327063
2475586819250,1.3694833517074585,-9.745597839355469,1.1336544752120972,0.005855984054505825,0.007453070487827063,0.0053236219100654125
2475588056437,1.3443442583084106,-9.738415718078613,1.1755530834197998,0.0053236219100654125,0.00452507846057415,0.0015970865497365594
2475589293637,1.3670891523361206,-9.743204116821289,1.1312602758407593,0.00958251953125,0.0015970865497365594,-0.0031941730994731188
2475590530800,1.3706804513931274,-9.765949249267578,1.1851298809051514,0.01117960549890995,-0.0002661811013240367,-0.0010647244052961469
2475591767987,1.3754688501358032,-9.77672290802002,1.2030863761901855,0.0037265352439135313,0.0026618109550327063,0.00452507846057415
2475593005175,1.3623007535934448,-9.765949249267578,1.1408370733261108,0.007985432632267475,0.005057440605014563,0.0023956298828125
2475594242362,1.3730746507644653,-9.765949249267578,1.1552022695541382,0.0114457868039608,0.0015970865497365594,0.0023956298828125
2475595479537,1.3407529592514038,-9.726444244384766,1.191115379333496,0.007985432632267475,0.0029279920272529125,0.0018632676219567657
2475596716737,1.3706804513931274,-9.736021041870117,1.1899182796478271,0.010114881210029125,0.0066545275039970875,0.0071868896484375
2475597953925,1.3718775510787964,-9.759963035583496,1.1743559837341309,0.004791259765625,0.0037265352439135313,0.0042588976211845875
2475599191100,1.3874398469924927,-9.716867446899414,1.1587936878204346,0.00931633822619915,0.0031941730994731188,0.0031941730994731188
2475600428287,1.37906014919281,-9.734824180603027,1.2018892765045166,0.010381062515079975,0.0031941730994731188,0.00452507846057415
2475601665475,1.3658920526504517,-9.725247383117676,1.170764684677124,0.00931633822619915,0.0066545275039970875,0.00452507846057415
2475602902650,1.3886369466781616,-9.737218856811523,1.1803414821624756,0.0063883461989462376,0.0005323622026480734,0.0029279920272529125
2475604139850,1.381454348564148,-9.726444244384766,1.1767501831054688,0.008251613937318325,-0.005057440605014563,0.004791259765625
2475605377025,1.3958195447921753,-9.6989107131958,1.1827356815338135,0.00692070834338665,0.0018632676219567657,0.0077192517928779125
2475606614200,1.358709454536438,-9.727641105651855,1.1575965881347656,0.0114457868039608,0.0023956298828125,0.01117960549890995
2475607851400,1.3874398469924927,-9.734824180603027,1.1599907875061035,0.010913425125181675,0.0005323622026480734,0.0053236219100654125
2475609088575,1.3850456476211548,-9.712079048156738,1.1755530834197998,0.00692070834338665,-0.0037265352439135313,0.004791259765625
2475610325775,1.3503297567367554,-9.726444244384766,1.1420341730117798,0.00452507846057415,0.0013309054775163531,0.005057440605014563
2475611562950,1.3730746507644653,-9.75278091430664,1.1791443824768066,0.008783976547420025,0.0002661811013240367,0.00452507846057415
2475612800125,1.3730746507644653,-9.734824180603027,1.1887211799621582,0.0063883461989462376,0.0018632676219567657,0.0013309054775163531
2475614037325,1.3838485479354858,-9.733627319335938,1.1994950771331787,0.00958251953125,-0.0005323622026480734,0.004791259765625
2475615274512,1.382651448249817,-9.737218856811523,1.1815385818481445,0.010114881210029125,-0.0021294488105922937,0.0114457868039608
2475616511687,1.3395558595657349,-9.763554573059082,1.1252747774124146,0.0071868896484375,0.0002661811013240367,0.007453070487827063
2475617748875,1.3431471586227417,-9.745597839355469,1.1683704853057861,0.006122165359556675,-0.0007985432748682797,0.008517795242369175
2475618986062,1.3970166444778442,-9.764751434326172,1.1432312726974487,0.008783976547420025,0.0015970865497365594,0.005057440605014563
2475620223250,1.357512354850769,-9.75158405303955,1.2030863761901855,0.010913425125181675,-0.0013309054775163531,0.0066545275039970875
2475621460437,1.3958195447921753,-9.731232643127441,1.2246341705322266,0.01597086526453495,-0.0010647244052961469,0.0090501569211483
2475622697600,1.3670891523361206,-9.739612579345703,1.1743559837341309,0.012776692397892475,-0.0039927163161337376,0.0026618109550327063
2475623934800,1.3730746507644653,-9.714473724365234,1.1659762859344482,0.008783976547420025,-0.0010647244052961469,0.0021294488105922937
2475625171975,1.3718775510787964,-9.736021041870117,1.1683704853057861,0.010114881210029125,0.0018632676219567657,0.0063883461989462376
2475626409187,1.3551181554794312,-9.750386238098145,1.2114660739898682,0.008517795242369175,-0.0026618109550327063,0.004791259765625
2475627646350,1.3527239561080933,-9.728838920593262,1.1432312726974487,0.008251613937318325,-0.0026618109550327063,0.006122165359556675
2475628883550,1.3431471586227417,-9.726444244384766,1.173158884048462,0.007985432632267475,-0.0010647244052961469,0.008251613937318325
2475630120712,1.3982137441635132,-9.733627319335938,1.1851298809051514,0.0071868896484375,0.0005323622026480734,0.008783976547420025
2475631357900,1.3730746507644653,-9.726444244384766,1.1587936878204346,0.00931633822619915,0.0005323622026480734,0.00958251953125
2475632595100,1.3646949529647827,-9.716867446899414,1.1755530834197998,0.01171196810901165,-0.0010647244052961469,0.00692070834338665
2475633832262,1.3527239561080933,-9.724050521850586,1.191115379333496,0.008783976547420025,-0.0018632676219567657,0.008783976547420025
2475635069475,1.357512354850769,-9.749189376831055,1.1982979774475098,0.00931633822619915,-0.0018632676219567657,0.010381062515079975
2475636306637,1.3072341680526733,-9.75517463684082,1.1767501831054688,0.00931633822619915,-0.0031941730994731188,0.0071868896484375
2475637543837,1.3395558595657349,-9.740809440612793,1.1336544752120972,0.00984870083630085,-0.00452507846057415,0.007453070487827063
2475638781025,1.3994109630584717,-9.739612579345703,1.1312602758407593,0.008783976547420025,-0.0037265352439135313,0.01117960549890995
2475640018187,1.3850456476211548,-9.7791166305542,1.1899182796478271,0.00931633822619915,-0.005589802749454975,0.010381062515079975
2475641255387,1.3515268564224243,-9.724050521850586,1.1635820865631104,0.0090501569211483,-0.0015970865497365594,0.008783976547420025
2475642492550,1.335964560508728,-9.7420072555542,1.1791443824768066,0.008517795242369175,-0.0005323622026480734,0.0042588976211845875
2475643729737,1.3096283674240112,-9.7420072555542,1.1683704853057861,0.007453070487827063,-0.0023956298828125,0.0063883461989462376
2475644966950,1.382651448249817,-9.716867446899414,1.169567584991455,0.0071868896484375,-0.0015970865497365594,0.0090501569211483
2475646204125,1.3658920526504517,-9.757569313049316,1.1994950771331787,0.008517795242369175,-0.0005323622026480734,0.005057440605014563
2475647441300,1.3766659498214722,-9.77552604675293,1.194706678390503,0.006122165359556675,-0.0037265352439135313,0.007985432632267475
2475648678487,1.3419500589370728,-9.739612579345703,1.194706678390503,0.010381062515079975,-0.0013309054775163531,0.005589802749454975
2475649915675,1.3646949529647827,-9.733627319335938,1.138442873954773,0.013042873702943325,0.0018632676219567657,0.0039927163161337376
2475651152862,1.3634978532791138,-9.743204116821289,1.1671733856201172,0.007453070487827063,-0.0007985432748682797,0.0063883461989462376
2475652390050,1.4185645580291748,-9.728838920593262,1.1300631761550903,0.004791259765625,-0.0042588976211845875,0.010647243820130825
2475653627237,1.3551181554794312,-9.765949249267578,1.213860273361206,0.0071868896484375,-0.00452507846057415,0.0063883461989462376
2475654864412,1.3491326570510864,-9.72285270690918,1.1863269805908203,0.008251613937318325,0.0010647244052961469,0.007985432632267475
2475656101625,1.3467384576797485,-9.744400978088379,1.1528080701828003,0.0071868896484375,0.0002661811013240367,0.005855984054505825
2475657338787,1.313219666481018,-9.75278091430664,1.193509578704834,0.010913425125181675,0.0023956298828125,0.007453070487827063
2475658575962,1.338358759880066,-9.768342971801758,1.235408067703247,0.005057440605014563,-0.003460354171693325,0.0063883461989462376
2475659813162,1.3754688501358032,-9.789891242980957,1.1803414821624756,0.0063883461989462376,0.0037265352439135313,0.005057440605014563
2475661050337,1.359906554222107,-9.794679641723633,1.194706678390503,0.0063883461989462376,-0.00452507846057415,0.00692070834338665
2475662287525,1.3491326570510864,-9.744400978088379,1.2246341705322266,0.0071868896484375,-0.004791259765625,-0.0013309054775163531
2475663524700,1.3682862520217896,-9.785102844238281,1.212663173675537,0.00984870083630085,0.0007985432748682797,0.0039927163161337376
2475664761887,1.315613865852356,-9.757569313049316,1.1755530834197998,0.00958251953125,0.0010647244052961469,0.0031941730994731188
2475665999075,1.3862427473068237,-9.793481826782227,1.1887211799621582,0.008783976547420025,-0.0029279920272529125,0.0005323622026480734
2475667236262,1.3838485479354858,-9.767146110534668,1.1540051698684692,0.005589802749454975,-0.0005323622026480734,0.005589802749454975
2475668473450,1.3694833517074585,-9.7791166305542,1.213860273361206,0.005589802749454975,-0.0021294488105922937,0.0066545275039970875
2475669710625,1.3251906633377075,-9.768342971801758,1.1647791862487793,0.0039927163161337376,0.0013309054775163531,0.00452507846057415
2475670947825,1.3503297567367554,-9.81024169921875,1.1839327812194824,0.0042588976211845875,-0.0018632676219567657,0.0053236219100654125
2475672185000,1.3742717504501343,-9.804256439208984,1.1803414821624756,0.0119781494140625,-0.0031941730994731188,0.007985432632267475
2475673422175,1.3239935636520386,-9.81024169921875,1.1851298809051514,0.00958251953125,-0.0015970865497365594,0.0039927163161337376
2475674659362,1.3275848627090454,-9.77672290802002,1.2270283699035645,0.0039927163161337376,-0.0029279920272529125,0.008783976547420025
2475675896550,1.3395558595657349,-9.803058624267578,1.1743559837341309,0.0053236219100654125,-0.005589802749454975,0.0114457868039608
2475677133737,1.3898340463638306,-9.819818496704102,1.1552022695541382,0.003460354171693325,-0.0037265352439135313,0.01117960549890995
2475678370912,1.334767460823059,-9.77791976928711,1.1851298809051514,0.0039927163161337376,-0.0063883461989462376,0.0039927163161337376
2475679608112,1.3299790620803833,-9.797073364257812,1.1683704853057861,0.005589802749454975,-0.0021294488105922937,0.0063883461989462376
2475680845287,1.3623007535934448,-9.80904483795166,1.1659762859344482,0.0042588976211845875,-0.0071868896484375,0.008517795242369175
2475682082487,1.291671872138977,-9.81143856048584,1.1743559837341309,0.004791259765625,-0.0021294488105922937,0.00452507846057415
2475683319662,1.334767460823059,-9.807847023010254,1.1432312726974487,-0.0002661811013240367,0.0007985432748682797,0.0071868896484375
2475684556850,1.3263877630233765,-9.773131370544434,1.1611878871917725,0.0,-0.0015970865497365594,0.0114457868039608
2475685794050,1.313219666481018,-9.797073364257812,1.1492167711257935,0.0010647244052961469,-0.0013309054775163531,0.0090501569211483
2475687031212,1.3467384576797485,-9.806650161743164,1.1540051698684692,0.0042588976211845875,0.0007985432748682797,0.010913425125181675
2475688268412,1.316810965538025,-9.807847023010254,1.193509578704834,0.004791259765625,-0.0013309054775163531,0.0114457868039608
2475689505587,1.3634978532791138,-9.794679641723633,1.2234370708465576,0.0,-0.0018632676219567657,0.008783976547420025
2475690742775,1.3934253454208374,-9.77672290802002,1.1659762859344482,-0.0015970865497365594,-0.006122165359556675,0.012776692397892475
2475691979987,1.3263877630233765,-9.762357711791992,1.2102689743041992,0.0021294488105922937,-0.004791259765625,0.0162370465695858
2475693217150,1.338358759880066,-9.768342971801758,1.1468225717544556,0.004791259765625,-0.0031941730994731188,0.0071868896484375
2475694454325,1.3766659498214722,-9.75278091430664,1.1528080701828003,0.0010647244052961469,-0.0039927163161337376,0.008251613937318325
2475695691525,1.3694833517074585,-9.749189376831055,1.1563994884490967,-0.0015970865497365594,-0.003460354171693325,0.010381062515079975
2475696928687,1.3527239561080933,-9.75158405303955,1.1767501831054688,-0.0013309054775163531,-0.0053236219100654125,0.0114457868039608
2475698165887,1.3227964639663696,-9.713275909423828,1.1863269805908203,-0.0002661811013240367,-0.0023956298828125,0.012776692397892475
2475699403075,1.3467384576797485,-9.732430458068848,1.2425906658172607,0.0042588976211845875,-0.0013309054775163531,0.0071868896484375
2475700640250,1.357512354850769,-9.746795654296875,1.2198457717895508,0.0031941730994731188,-0.0023956298828125,0.010647243820130825
2475701877450,1.3287819623947144,-9.75517463684082,1.215057373046875,0.0010647244052961469,-0.0007985432748682797,0.01410759799182415
2475703114625,1.3275848627090454,-9.697713851928711,1.2473790645599365,0.0007985432748682797,-0.0005323622026480734,0.008783976547420025
2475704351800,1.335964560508728,-9.715670585632324,1.1516109704971313,-0.0021294488105922937,-0.0029279920272529125,0.00692070834338665
2475705589000,1.294066071510315,-9.710882186889648,1.2090718746185303,-0.0007985432748682797,0.0071868896484375,0.0090501569211483
2475706826175,1.3479355573654175,-9.749189376831055,1.1683704853057861,0.0037265352439135313,0.0029279920272529125,0.015438503585755825
2475708063375,1.3323732614517212,-9.759963035583496,1.2066776752471924,0.005855984054505825,-0.0037265352439135313,0.01117960549890995
2475709300537,1.3407529592514038,-9.746795654296875,1.2042834758758545,0.006122165359556675,-0.0015970865497365594,0.00692070834338665
2475710537725,1.3395558595657349,-9.739612579345703,1.236605167388916,0.00692070834338665,0.0018632676219567657,0.01597086526453495
2475711774925,1.337161660194397,-9.7420072555542,1.1863269805908203,0.00692070834338665,-0.0063883461989462376,0.00958251953125
2475713012100,1.338358759880066,-9.691728591918945,1.1312602758407593,0.0053236219100654125,-0.00452507846057415,0.012510511092841625
2475714249287,1.3108254671096802,-9.734824180603027,1.1324573755264282,0.005057440605014563,-0.005589802749454975,0.01783413253724575
2475715486487,1.3503297567367554,-9.740809440612793,1.1791443824768066,0.006122165359556675,-0.0002661811013240367,0.014906140975654125
2475716723650,1.3467384576797485,-9.720458984375,1.2090718746185303,0.0039927163161337376,0.0023956298828125,0.01171196810901165
2475717960850,1.3108254671096802,-9.7420072555542,1.1480196714401245,0.006122165359556675,-0.0010647244052961469,0.010381062515079975
2475719198025,1.3323732614517212,-9.789891242980957,1.1994950771331787,0.00452507846057415,-0.004791259765625,0.008251613937318325
2475720435212,1.358709454536438,-9.773131370544434,1.215057373046875,0.0031941730994731188,-0.00452507846057415,0.014906140975654125
2475721672400,1.3192051649093628,-9.78869342803955,1.1755530834197998,0.005057440605014563,-0.0010647244052961469,0.0167694091796875
2475722909587,1.3323732614517212,-9.759963035583496,1.1623849868774414,0.005589802749454975,-0.00452507846057415,0.01650322787463665
2475724146750,1.3299790620803833,-9.785102844238281,1.1851298809051514,0.0,-0.008251613937318325,0.014906140975654125
2475725383950,1.3204022645950317,-9.783905029296875,1.193509578704834,0.0010647244052961469,-0.0015970865497365594,0.007985432632267475
2475726621150,1.3275848627090454,-9.763554573059082,1.1623849868774414,0.003460354171693325,-0.0013309054775163531,0.008783976547420025
2475727858337,1.3084312677383423,-9.769539833068848,1.1899182796478271,0.0029279920272529125,-0.0023956298828125,0.01410759799182415
2475729095500,1.3251906633377075,-9.797073364257812,1.1863269805908203,0.0013309054775163531,-0.0042588976211845875,0.010647243820130825
2475730332675,1.3503297567367554,-9.763554573059082,1.171961784362793,0.003460354171693325,0.0018632676219567657,0.0053236219100654125
2475731569887,1.337161660194397,-9.7791166305542,1.136048674583435,0.0026618109550327063,-0.0037265352439135313,0.01171196810901165
2475732807062,1.3395558595657349,-9.771934509277344,1.1420341730117798,0.00452507846057415,-0.0029279920272529125,0.010913425125181675
2475734044250,1.3491326570510864,-9.797073364257812,1.1827356815338135,-0.0018632676219567657,-0.0013309054775163531,0.015172322280704975
2475735281437,1.3120225667953491,-9.783905029296875,1.2078747749328613,-0.0031941730994731188,-0.0010647244052961469,0.013309055007994175
2475736518612,1.3180080652236938,-9.747992515563965,1.1755530834197998,0.0018632676219567657,-0.0021294488105922937,0.008783976547420025
2475737755787,1.334767460823059,-9.80904483795166,1.1887211799621582,0.0021294488105922937,0.0026618109550327063,0.0138414166867733
2475738992987,1.3455413579940796,-9.763554573059082,1.1851298809051514,-0.0015970865497365594,-0.0015970865497365594,0.014906140975654125
2475740230175,1.337161660194397,-9.757569313049316,1.1815385818481445,-0.0013309054775163531,-0.004791259765625,0.0114457868039608
2475741467362,1.3467384576797485,-9.737218856811523,1.1851298809051514,-0.0002661811013240367,-0.0039927163161337376,0.015438503585755825
2475742704537,1.313219666481018,-9.744400978088379,1.1420341730117798,-0.003460354171693325,0.0021294488105922937,0.01224433071911335
2475743941725,1.3407529592514038,-9.743204116821289,1.1516109704971313,-0.003460354171693325,0.0013309054775163531,0.0119781494140625
2475745178900,1.3311761617660522,-9.718064308166504,1.1994950771331787,-0.0042588976211845875,-0.0007985432748682797,0.013309055007994175
2475746416100,1.3467384576797485,-9.716867446899414,1.1779472827911377,-0.0026618109550327063,-0.004791259765625,0.01357523538172245
2475747653287,1.3036428689956665,-9.743204116821289,1.1683704853057861,-0.0037265352439135313,0.0,0.00984870083630085
2475748890462,1.316810965538025,-9.769539833068848,1.191115379333496,-0.0021294488105922937,-0.0013309054775163531,0.0090501569211483
2475750127662,1.3275848627090454,-9.768342971801758,1.1767501831054688,-0.0037265352439135313,0.0010647244052961469,0.0071868896484375
2475751364837,1.316810965538025,-9.72285270690918,1.1659762859344482,0.0,0.003460354171693325,0.005855984054505825
2475752602012,1.3503297567367554,-9.762357711791992,1.173158884048462,-0.0013309054775163531,0.0013309054775163531,0.00958251953125
2475753839212,1.3335703611373901,-9.745597839355469,1.2078747749328613,-0.0026618109550327063,-0.0005323622026480734,0.0114457868039608
2475755076387,1.313219666481018,-9.727641105651855,1.1803414821624756,-0.0053236219100654125,0.0010647244052961469,0.01171196810901165
2475756313587,1.3395558595657349,-9.745597839355469,1.171961784362793,-0.0077192517928779125,0.0023956298828125,0.0071868896484375
2475757550775,1.3646949529647827,-9.744400978088379,1.2246341705322266,0.0,0.0021294488105922937,0.00692070834338665
2475758787950,1.3096283674240112,-9.75278091430664,1.217451572418213,-0.0039927163161337376,0.0021294488105922937,0.008251613937318325
2475760025125,1.3263877630233765,-9.744400978088379,1.2042834758758545,-0.0071868896484375,-0.0010647244052961469,0.0010647244052961469
2475761262312,1.3335703611373901,-9.731232643127441,1.193509578704834,-0.0023956298828125,-0.0013309054775163531,0.0031941730994731188
2475762499500,1.3072341680526733,-9.740809440612793,1.1073182821273804,0.0010647244052961469,0.0007985432748682797,0.006122165359556675
2475763736687,1.3120225667953491,-9.747992515563965,1.1827356815338135,0.0010647244052961469,0.0007985432748682797,0.01171196810901165
2475764973887,1.3503297567367554,-9.744400978088379,1.217451572418213,0.0005323622026480734,0.0007985432748682797,0.01224433071911335
2475766211062,1.3443442583084106,-9.743204116821289,1.1887211799621582,-0.003460354171693325,0.0010647244052961469,0.007453070487827063
2475767448237,1.316810965538025,-9.72165584564209,1.2006921768188477,-0.005589802749454975,-0.0039927163161337376,0.005855984054505825
2475768685412,1.3443442583084106,-9.733627319335938,1.1875240802764893,-0.0071868896484375,0.0005323622026480734,0.00692070834338665
2475769922612,1.3311761617660522,-9.733627319335938,1.1743559837341309,-0.0039927163161337376,0.0031941730994731188,0.0063883461989462376
2475771159787,1.3239935636520386,-9.728838920593262,1.1839327812194824,0.0023956298828125,0.0031941730994731188,0.004791259765625
2475772397000,1.3239935636520386,-9.75517463684082,1.1851298809051514,0.0002661811013240367,0.006122165359556675,0.0010647244052961469
2475773634150,1.3431471586227417,-9.744400978088379,1.1959037780761719,-0.00984870083630085,-0.0002661811013240367,0.0023956298828125
2475774871362,1.335964560508728,-9.745597839355469,1.192312479019165,-0.00692070834338665,0.003460354171693325,0.0031941730994731188
2475776108525,1.3718775510787964,-9.743204116821289,1.1528080701828003,0.0002661811013240367,0.006122165359556675,0.0037265352439135313
2475777345725,1.3742717504501343,-9.7420072555542,1.215057373046875,0.0002661811013240367,0.0023956298828125,0.005057440605014563
2475778582912,1.359906554222107,-9.749189376831055,1.1623849868774414,0.0015970865497365594,0.0029279920272529125,0.003460354171693325
2475779820087,1.3551181554794312,-9.758766174316406,1.1659762859344482,-0.0037265352439135313,0.0039927163161337376,0.0015970865497365594
2475781057275,1.3551181554794312,-9.733627319335938,1.1839327812194824,-0.004791259765625,0.0026618109550327063,0.0005323622026480734
2475782294462,1.3611036539077759,-9.745597839355469,1.1791443824768066,-0.0002661811013240367,0.004791259765625,-0.0015970865497365594
2475783531650,1.3263877630233765,-9.763554573059082,1.173158884048462,0.0015970865497365594,0.005589802749454975,0.0026618109550327063
2475784768837,1.359906554222107,-9.745597839355469,1.1959037780761719,0.0021294488105922937,0.0031941730994731188,0.0005323622026480734
2475786006012,1.3263877630233765,-9.750386238098145,1.1599907875061035,-0.005057440605014563,0.0026618109550327063,0.0039927163161337376
2475787243200,1.3443442583084106,-9.7420072555542,1.1671733856201172,-0.00692070834338665,0.0015970865497365594,0.0029279920272529125
2475788480400,1.3670891523361206,-9.710882186889648,1.1444283723831177,-0.0037265352439135313,0.00692070834338665,-0.0007985432748682797
2475789717575,1.3527239561080933,-9.757569313049316,1.139639973640442,-0.0063883461989462376,0.007985432632267475,-0.0021294488105922937
2475790954750,1.315613865852356,-9.785102844238281,1.173158884048462,-0.005057440605014563,0.005855984054505825,-0.0042588976211845875
2475792191937,1.3455413579940796,-9.738415718078613,1.1623849868774414,-0.0005323622026480734,0.00452507846057415,-0.0090501569211483
2475793429125,1.3479355573654175,-9.780314445495605,1.1492167711257935,0.0007985432748682797,0.007453070487827063,-0.005589802749454975
2475794666300,1.3503297567367554,-9.725247383117676,1.1552022695541382,-0.0010647244052961469,0.007453070487827063,-0.0063883461989462376
2475795903500,1.3395558595657349,-9.77552604675293,1.1563994884490967,-0.007453070487827063,0.008783976547420025,-0.0063883461989462376
2475797140687,1.2797008752822876,-9.758766174316406,1.1563994884490967,-0.003460354171693325,0.008783976547420025,-0.008517795242369175
2475798377862,1.3419500589370728,-9.770737648010254,1.1755530834197998,-0.0026618109550327063,0.00958251953125,-0.010114881210029125
2475799615062,1.3299790620803833,-9.738415718078613,1.169567584991455,-0.0037265352439135313,0.01410759799182415,-0.0157046839594841
2475800852225,1.3215993642807007,-9.773131370544434,1.114500880241394,-0.0071868896484375,0.01171196810901165,-0.012510511092841625
2475802089425,1.2665326595306396,-9.7420072555542,1.1552022695541382,-0.0063883461989462376,0.0090501569211483,-0.008517795242369175
2475803326600,1.3443442583084106,-9.774328231811523,1.1456254720687866,-0.00692070834338665,0.0186326764523983,-0.012510511092841625
2475804563787,1.3539210557937622,-9.758766174316406,1.1779472827911377,-0.0077192517928779125,0.01171196810901165,-0.010913425125181675
2475805800975,1.3515268564224243,-9.725247383117676,1.193509578704834,-0.0042588976211845875,0.0119781494140625,-0.013042873702943325
2475807038175,1.3287819623947144,-9.750386238098145,1.137245774269104,-0.010381062515079975,0.010114881210029125,-0.010381062515079975
2475808275337,1.358709454536438,-9.787496566772461,1.1492167711257935,-0.008517795242369175,0.0119781494140625,-0.0138414166867733
2475809512525,1.3551181554794312,-9.768342971801758,1.1779472827911377,-0.0029279920272529125,0.0114457868039608,-0.01463996060192585
2475810749725,1.3443442583084106,-9.733627319335938,1.1671733856201172,-0.0015970865497365594,0.013042873702943325,-0.0119781494140625
2475811986900,1.3503297567367554,-9.716867446899414,1.1815385818481445,-0.005855984054505825,0.014373779296875,-0.012776692397892475
2475813224075,1.3431471586227417,-9.791088104248047,1.1587936878204346,-0.0029279920272529125,0.0138414166867733,-0.01357523538172245
2475814461275,1.3563152551651,-9.736021041870117,1.2449848651885986,-0.005855984054505825,0.014373779296875,-0.014373779296875
2475815698475,1.3503297567367554,-9.730035781860352,1.1635820865631104,-0.005589802749454975,0.014906140975654125,-0.01171196810901165
2475816935662,1.3180080652236938,-9.713275909423828,1.171961784362793,-0.005589802749454975,0.01463996060192585,-0.012776692397892475
2475818172825,1.334767460823059,-9.736021041870117,1.192312479019165,-0.0031941730994731188,0.01756795309484005,-0.01463996060192585
2475819410012,1.335964560508728,-9.72165584564209,1.113303780555725,-0.003460354171693325,0.010114881210029125,-0.008783976547420025
2475820647187,1.3898340463638306,-9.726444244384766,1.1563994884490967,-0.0029279920272529125,0.0114457868039608,-0.00984870083630085
2475821884375,1.3431471586227417,-9.724050521850586,1.2222399711608887,0.0010647244052961469,0.012776692397892475,-0.01357523538172245
2475823121575,1.3467384576797485,-9.700108528137207,1.1659762859344482,-0.008517795242369175,0.013042873702943325,-0.010381062515079975
2475824358737,1.413776159286499,-9.746795654296875,1.1887211799621582,-0.00692070834338665,0.01756795309484005,-0.01357523538172245
2475825595937,1.3730746507644653,-9.68933391571045,1.1504138708114624,-0.004791259765625,0.0191650390625,-0.012776692397892475
2475826833125,1.3611036539077759,-9.727641105651855,1.169567584991455,0.0013309054775163531,0.0162370465695858,-0.014373779296875
2475828070312,1.338358759880066,-9.702502250671387,1.1683704853057861,0.003460354171693325,0.02129448764026165,-0.010381062515079975
2475829307500,1.3730746507644653,-9.714473724365234,1.1468225717544556,0.0005323622026480734,0.02182685025036335,-0.00958251953125
2475830544675,1.3742717504501343,-9.725247383117676,1.116895079612732,-0.0007985432748682797,0.01889885775744915,-0.0063883461989462376
2475831781862,1.3706804513931274,-9.695320129394531,1.1432312726974487,-0.0007985432748682797,0.015438503585755825,-0.0077192517928779125
2475833019050,1.3551181554794312,-9.713275909423828,1.1971008777618408,0.0013309054775163531,0.0138414166867733,-0.008783976547420025
2475834256225,1.4018051624298096,-9.707290649414062,1.138442873954773,0.0021294488105922937,0.012510511092841625,-0.00958251953125
2475835493400,1.3958195447921753,-9.72285270690918,1.1623849868774414,0.005589802749454975,0.014906140975654125,-0.00931633822619915
2475836730612,1.3874398469924927,-9.737218856811523,1.1971008777618408,-0.0021294488105922937,0.02076212503015995,-0.00692070834338665
2475837967787,1.4281413555145264,-9.730035781860352,1.1791443824768066,0.0026618109550327063,0.01756795309484005,-0.004791259765625
2475839204975,1.3730746507644653,-9.743204116821289,1.1791443824768066,0.0037265352439135313,0.014373779296875,-0.0066545275039970875
2475840442162,1.3682862520217896,-9.696516990661621,1.1767501831054688,0.006122165359556675,0.02182685025036335,-0.004791259765625
2475841679337,1.3646949529647827,-9.678560256958008,1.1348515748977661,0.0042588976211845875,0.02315775491297245,-0.00692070834338665
2475842916512,1.4101848602294922,-9.704896926879883,1.136048674583435,0.0071868896484375,0.01889885775744915,-0.0042588976211845875
2475844153712,1.4221558570861816,-9.674968719482422,1.1516109704971313,0.0066545275039970875,0.010913425125181675,-0.0031941730994731188
2475845390900,1.4065935611724854,-9.667786598205566,1.1743559837341309,0.00984870083630085,0.01224433071911335,-0.0066545275039970875
2475846628087,1.4281413555145264,-9.714473724365234,1.169567584991455,0.00984870083630085,0.01463996060192585,-0.0031941730994731188
2475847865250,1.4257471561431885,-9.701305389404297,1.194706678390503,0.0042588976211845875,0.0114457868039608,-0.0026618109550327063
2475849102450,1.414973258972168,-9.703699111938477,1.1540051698684692,0.0066545275039970875,0.0173017717897892,-0.010114881210029125
2475850339637,1.4089877605438232,-9.68694019317627,1.1408370733261108,0.01117960549890995,0.0167694091796875,-0.0063883461989462376
2475851576825,1.4257471561431885,-9.701305389404297,1.170764684677124,0.01117960549890995,0.01783413253724575,0.0005323622026480734
2475852814012,1.41257905960083,-9.678560256958008,1.1982979774475098,0.00984870083630085,0.014373779296875,0.0010647244052961469
2475854051175,1.4257471561431885,-9.678560256958008,1.170764684677124,0.0071868896484375,0.010913425125181675,-0.0023956298828125
2475855288387,1.4041993618011475,-9.68574333190918,1.1528080701828003,0.00958251953125,0.01410759799182415,-0.0026618109550327063
2475856525575,1.4389152526855469,-9.725247383117676,1.1432312726974487,0.010647243820130825,0.01410759799182415,0.0031941730994731188
2475857762737,1.455674648284912,-9.713275909423828,1.1767501831054688,0.008517795242369175,0.01410759799182415,0.0013309054775163531
2475858999925,1.3946224451065063,-9.678560256958008,1.173158884048462,0.0119781494140625,0.0114457868039608,0.005057440605014563
2475860237100,1.416170358657837,-9.692925453186035,1.1420341730117798,0.014906140975654125,0.0090501569211483,0.0026618109550327063
2475861474312,1.4233529567718506,-9.700108528137207,1.1480196714401245,0.012776692397892475,0.00958251953125,0.0063883461989462376
2475862711487,1.4413094520568848,-9.679757118225098,1.1815385818481445,0.008251613937318325,0.01117960549890995,0.00452507846057415
2475863948675,1.459265947341919,-9.692925453186035,1.139639973640442,0.01463996060192585,0.015438503585755825,0.005589802749454975
2475865185862,1.4401123523712158,-9.682151794433594,1.1528080701828003,0.0162370465695858,0.013042873702943325,0.00984870083630085
2475866423025,1.4257471561431885,-9.66539192199707,1.1671733856201172,0.014906140975654125,0.01410759799182415,0.00984870083630085
2475867660237,1.4030022621154785,-9.691728591918945,1.1587936878204346,0.0167694091796875,0.01224433071911335,0.007985432632267475
2475868897412,1.4209587574005127,-9.731232643127441,1.1492167711257935,0.0181003138422966,0.008517795242369175,0.01117960549890995
2475870134587,1.4197616577148438,-9.715670585632324,1.192312479019165,0.014906140975654125,0.0042588976211845875,0.013309055007994175
2475871371775,1.4317326545715332,-9.692925453186035,1.1659762859344482,0.0173017717897892,0.0090501569211483,0.008517795242369175
2475872608962,1.4688427448272705,-9.714473724365234,1.1204863786697388,0.01357523538172245,0.008251613937318325,0.010913425125181675
2475873846150,1.45806884765625,-9.713275909423828,1.1552022695541382,0.0173017717897892,0.007985432632267475,0.0138414166867733
2475875083337,1.416170358657837,-9.702502250671387,1.1827356815338135,0.0215606689453125,0.007453070487827063,0.0138414166867733
2475876320512,1.4317326545715332,-9.697713851928711,1.1982979774475098,0.0191650390625,0.008251613937318325,0.008783976547420025
2475877557725,1.4401123523712158,-9.75517463684082,1.173158884048462,0.01943122036755085,0.0031941730994731188,0.014373779296875
2475878794875,1.4460978507995605,-9.75397777557373,1.1635820865631104,0.0181003138422966,0.0053236219100654125,0.01224433071911335
2475880032087,1.4389152526855469,-9.733627319335938,1.1755530834197998,0.0196974016726017,0.005855984054505825,0.0157046839594841
2475881269250,1.4724340438842773,-9.697713851928711,1.1432312726974487,0.01836649514734745,0.0015970865497365594,0.015438503585755825
2475882506450,1.4532804489135742,-9.710882186889648,1.1516109704971313,0.01889885775744915,0.0037265352439135313,0.01357523538172245
2475883743637,1.4113819599151611,-9.720458984375,1.1982979774475098,0.01650322787463665,0.0037265352439135313,0.01410759799182415
2475884980812,1.4030022621154785,-9.706093788146973,1.191115379333496,0.015438503585755825,0.00692070834338665,0.013309055007994175
2475886218012,1.4425065517425537,-9.738415718078613,1.1971008777618408,0.01996358297765255,-0.0007985432748682797,0.015172322280704975
2475887455175,1.4389152526855469,-9.724050521850586,1.1456254720687866,0.0220930315554142,0.0007985432748682797,0.0173017717897892
2475888692362,1.456871747970581,-9.718064308166504,1.1420341730117798,0.023956298828125,0.0042588976211845875,0.012510511092841625
2475889929550,1.4652514457702637,-9.725247383117676,1.138442873954773,0.0244886614382267,0.0010647244052961469,0.0114457868039608
2475891166750,1.4891934394836426,-9.703699111938477,1.136048674583435,0.02022976242005825,-0.0026618109550327063,0.01943122036755085
2475892403912,1.478419542312622,-9.716867446899414,1.1563994884490967,0.0210283063352108,-0.0053236219100654125,0.0157046839594841
2475893641112,1.4676456451416016,-9.716867446899414,1.169567584991455,0.0173017717897892,-0.005589802749454975,0.0162370465695858
2475894878300,1.4449007511138916,-9.709685325622559,1.1791443824768066,0.0210283063352108,-0.0037265352439135313,0.01943122036755085
2475896115487,1.4257471561431885,-9.696516990661621,1.1599907875061035,0.01996358297765255,-0.006122165359556675,0.01703559048473835
2475897352687,1.48081374168396,-9.728838920593262,1.192312479019165,0.015438503585755825,-0.010114881210029125,0.01783413253724575
2475898589850,1.4520833492279053,-9.718064308166504,1.1803414821624756,0.0191650390625,-0.010913425125181675,0.0196974016726017
2475899827037,1.3982137441635132,-9.761160850524902,1.2102689743041992,0.0223592109978199,-0.010913425125181675,0.0191650390625
2475901064237,1.4664485454559326,-9.736021041870117,1.212663173675537,0.0228915736079216,-0.010114881210029125,0.014906140975654125
2475902301400,1.4700398445129395,-9.708487510681152,1.1875240802764893,0.02262539230287075,-0.008517795242369175,0.0196974016726017
2475903538600,1.5131354331970215,-9.709685325622559,1.2018892765045166,0.02182685025036335,-0.005589802749454975,0.0191650390625
2475904775800,1.5131354331970215,-9.728838920593262,1.1875240802764893,0.02502102218568325,-0.013042873702943325,0.01357523538172245
2475906012975,1.482010841369629,-9.696516990661621,1.139639973640442,0.02315775491297245,-0.02129448764026165,0.015172322280704975
2475907250150,1.4449007511138916,-9.714473724365234,1.171961784362793,0.02661811001598835,-0.015438503585755825,0.02315775491297245
2475908487312,1.4544775485992432,-9.68933391571045,1.1755530834197998,0.02262539230287075,-0.01597086526453495,0.01836649514734745
2475909724537,1.5047557353973389,-9.701305389404297,1.2557587623596191,0.0247548408806324,-0.0186326764523983,0.0196974016726017
2475910961700,1.5286978483200073,-9.712079048156738,1.1671733856201172,0.0228915736079216,-0.0223592109978199,0.01996358297765255
2475912198900,1.4317326545715332,-9.704896926879883,1.2030863761901855,0.0186326764523983,-0.0204959437251091,0.01783413253724575
2475913436075,1.4676456451416016,-9.66299819946289,1.2006921768188477,0.01756795309484005,-0.0157046839594841,0.02502102218568325
2475914673275,1.4772224426269531,-9.68694019317627,1.2210428714752197,0.0196974016726017,-0.01783413253724575,0.023956298828125
2475915910437,1.4748282432556152,-9.720458984375,1.1671733856201172,0.0210283063352108,-0.02182685025036335,0.02502102218568325
2475917147625,1.4652514457702637,-9.726444244384766,1.1815385818481445,0.0186326764523983,-0.0228915736079216,0.0228915736079216
2475918384812,1.4748282432556152,-9.697713851928711,1.1755530834197998,0.02182685025036335,-0.0228915736079216,0.02369011752307415
2475919622012,1.4903905391693115,-9.691728591918945,1.213860273361206,0.01889885775744915,-0.02502102218568325,0.02422248013317585
2475920859187,1.4401123523712158,-9.68694019317627,1.192312479019165,0.0173017717897892,-0.0295461006462574,0.02022976242005825
2475922096362,1.4640543460845947,-9.715670585632324,1.137245774269104,0.0196974016726017,-0.02848137728869915,0.0215606689453125
2475923333562,1.4305355548858643,-9.743204116821289,1.2078747749328613,0.0223592109978199,-0.02794901467859745,0.02555338479578495
2475924570750,1.4496891498565674,-9.732430458068848,1.216254472732544,0.0162370465695858,-0.02741665206849575,0.0220930315554142
2475925807937,1.4389152526855469,-9.709685325622559,1.2282254695892334,0.01783413253724575,-0.0346035435795784,0.0247548408806324
2475927045125,1.4293384552001953,-9.714473724365234,1.2066776752471924,0.0191650390625,-0.0300784632563591,0.023956298828125
2475928282300,1.3982137441635132,-9.716867446899414,1.1971008777618408,0.0252872034907341,-0.0316755510866642,0.02661811001598835
2475929519500,1.4532804489135742,-9.731232643127441,1.2054805755615234,0.02422248013317585,-0.0322079136967659,0.02315775491297245
2475930756675,1.4640543460845947,-9.740809440612793,1.2270283699035645,0.0210283063352108,-0.033272635191679,0.02369011752307415
2475931993850,1.4532804489135742,-9.715670585632324,1.2042834758758545,0.02315775491297245,-0.0340711809694767,0.0244886614382267
2475933231025,1.434126853942871,-9.781511306762695,1.212663173675537,0.01756795309484005,-0.0375315360724926,0.01943122036755085
2475934468225,1.436521053314209,-9.771934509277344,1.1982979774475098,0.01783413253724575,-0.0356682650744915,0.0263519287109375
2475935705400,1.382651448249817,-9.75517463684082,1.1815385818481445,0.02315775491297245,-0.0401933453977108,0.02502102218568325
2475936942587,1.4006080627441406,-9.749189376831055,1.2042834758758545,0.0228915736079216,-0.0409918874502182,0.02741665206849575
2475938179775,1.4233529567718506,-9.734824180603027,1.1887211799621582,0.0228915736079216,-0.0393948033452034,0.0252872034907341
2475939416975,1.4748282432556152,-9.768342971801758,1.1659762859344482,0.01996358297765255,-0.0401933453977108,0.02555338479578495
2475940654150,1.436521053314209,-9.7420072555542,1.1851298809051514,0.01889885775744915,-0.0401933453977108,0.02315775491297245
2475941891337,1.437718152999878,-9.767146110534668,1.2198457717895508,0.01889885775744915,-0.0401933453977108,0.0276828333735466
2475943128525,1.3850456476211548,-9.749189376831055,1.1767501831054688,0.02022976242005825,-0.0465816929936409,0.02608574740588665
2475944365700,1.4245500564575195,-9.791088104248047,1.2006921768188477,0.0181003138422966,-0.0460493303835392,0.023956298828125
2475945602912,1.4221558570861816,-9.727641105651855,1.235408067703247,0.0181003138422966,-0.0449846051633358,0.02502102218568325
2475946840075,1.4472949504852295,-9.75278091430664,1.2258312702178955,0.01836649514734745,-0.0447184219956398,0.0220930315554142
2475948077250,1.4089877605438232,-9.743204116821289,1.2078747749328613,0.01943122036755085,-0.0452507846057415,0.0271504707634449
2475949314462,1.456871747970581,-9.757569313049316,1.215057373046875,0.02315775491297245,-0.0433875173330307,0.02608574740588665
2475950551625,1.4077906608581543,-9.7420072555542,1.2246341705322266,0.01996358297765255,-0.0439198799431324,0.0263519287109375
2475951788812,1.4113819599151611,-9.737218856811523,1.2330138683319092,0.0234239362180233,-0.042855154722929,0.02608574740588665
2475953026012,1.3898340463638306,-9.758766174316406,1.1875240802764893,0.0234239362180233,-0.0473802350461483,0.02741665206849575
2475954263187,1.37906014919281,-9.747992515563965,1.2090718746185303,0.02129448764026165,-0.0492435023188591,0.0252872034907341
2475955500375,1.359906554222107,-9.75397777557373,1.2018892765045166,0.01783413253724575,-0.0481787770986557,0.02369011752307415
2475956737537,1.4197616577148438,-9.749189376831055,1.1971008777618408,0.0191650390625,-0.0497758649289608,0.01889885775744915
2475957974737,1.413776159286499,-9.733627319335938,1.213860273361206,0.02022976242005825,-0.0481787770986557,0.0282151959836483
2475959211925,1.4269442558288574,-9.733627319335938,1.170764684677124,0.0173017717897892,-0.0508405901491642,0.02555338479578495
2475960449112,1.43532395362854,-9.739612579345703,1.2006921768188477,0.0215606689453125,-0.057228934019804,0.0263519287109375
2475961686300,1.413776159286499,-9.765949249267578,1.237802267074585,0.0215606689453125,-0.052703857421875,0.0306108258664608
2475962923487,1.3778630495071411,-9.736021041870117,1.194706678390503,0.02076212503015995,-0.0436537005007267,0.0282151959836483
2475964160675,1.41257905960083,-9.710882186889648,1.2342109680175781,0.0247548408806324,-0.0513729527592659,0.01783413253724575
2475965397850,1.3491326570510864,-9.715670585632324,1.2042834758758545,0.0220930315554142,-0.052437674254179,0.0268842913210392
2475966635025,1.4030022621154785,-9.768342971801758,1.2425906658172607,0.0228915736079216,-0.052703857421875,0.0292799212038517
2475967872225,1.4329297542572021,-9.702502250671387,1.238999366760254,0.02262539230287075,-0.0558980293571949,0.0268842913210392
2475969109412,1.3958195447921753,-9.714473724365234,1.2413935661315918,0.01889885775744915,-0.0521714948117733,0.0252872034907341
2475970346587,1.3838485479354858,-9.745597839355469,1.217451572418213,0.0223592109978199,-0.0500420443713665,0.02262539230287075
2475971583787,1.3646949529647827,-9.750386238098145,1.2210428714752197,0.0234239362180233,-0.0516391322016716,0.0263519287109375
2475972820950,1.3730746507644653,-9.743204116821289,1.191115379333496,0.02608574740588665,-0.0550994873046875,0.03034464456140995
2475974058162,1.3670891523361206,-9.761160850524902,1.2497732639312744,0.02022976242005825,-0.0519053116440773,0.0252872034907341
2475975295337,1.3611036539077759,-9.743204116821289,1.2222399711608887,0.0162370465695858,-0.052437674254179,0.02262539230287075
2475976532525,1.3623007535934448,-9.756372451782227,1.2413935661315918,0.0204959437251091,-0.0550994873046875,0.0220930315554142
2475977769712,1.3563152551651,-9.750386238098145,1.2018892765045166,0.0244886614382267,-0.0553656667470932,0.0228915736079216
2475979006887,1.3192051649093628,-9.740809440612793,1.2270283699035645,0.02182685025036335,-0.0550994873046875,0.0258195661008358
2475980244075,1.3192051649093628,-9.743204116821289,1.213860273361206,0.02315775491297245,-0.0513729527592659,0.02315775491297245
2475981481262,1.3455413579940796,-9.736021041870117,1.2234370708465576,0.0223592109978199,-0.052703857421875,0.02422248013317585
2475982718450,1.380257248878479,-9.736021041870117,1.1791443824768066,0.02422248013317585,-0.0574951171875,0.0244886614382267
2475983955637,1.3491326570510864,-9.746795654296875,1.1994950771331787,0.0215606689453125,-0.0532362200319767,0.0258195661008358
2475985192825,1.3323732614517212,-9.736021041870117,1.235408067703247,0.02182685025036335,-0.0465816929936409,0.0252872034907341
2475986430000,1.3491326570510864,-9.743204116821289,1.2485761642456055,0.01996358297765255,-0.0452507846057415,0.0244886614382267
2475987667200,1.334767460823059,-9.768342971801758,1.192312479019165,0.02182685025036335,-0.0503082275390625,0.02741665206849575
2475988904387,1.338358759880066,-9.75397777557373,1.237802267074585,0.0223592109978199,-0.0503082275390625,0.02369011752307415
2475990141562,1.3204022645950317,-9.733627319335938,1.236605167388916,0.0234239362180233,-0.0505744069814682,0.023956298828125
2475991378750,1.3251906633377075,-9.736021041870117,1.1994950771331787,0.0210283063352108,-0.0569627545773983,0.02262539230287075
2475992615925,1.3467384576797485,-9.728838920593262,1.1851298809051514,0.0276828333735466,-0.04791259765625,0.02129448764026165
2475993853100,1.3623007535934448,-9.708487510681152,1.2557587623596191,0.0271504707634449,-0.0481787770986557,0.02129448764026165
2475995090287,1.3108254671096802,-9.744400978088379,1.259350061416626,0.02182685025036335,-0.0537685826420784,0.0252872034907341
2475996327487,1.3287819623947144,-9.728838920593262,1.238999366760254,0.02555338479578495,-0.0540347620844841,0.02661811001598835
2475997564675,1.3204022645950317,-9.758766174316406,1.1971008777618408,0.0220930315554142,-0.0457831472158432,0.0244886614382267
2475998801850,1.3455413579940796,-9.75397777557373,1.2078747749328613,0.0247548408806324,-0.0471140518784523,0.02502102218568325
2476000039025,1.357512354850769,-9.725247383117676,1.2761094570159912,0.023956298828125,-0.0492435023188591,0.02981228195130825
2476001276225,1.3072341680526733,-9.733627319335938,1.235408067703247,0.02422248013317585,-0.0505744069814682,0.0271504707634449
2476002513412,1.260547161102295,-9.726444244384766,1.1982979774475098,0.02794901467859745,-0.04791259765625,0.02369011752307415
2476003750600,1.3096283674240112,-9.7420072555542,1.2318167686462402,0.023956298828125,-0.0495096817612648,0.02741665206849575
2476004987775,1.3204022645950317,-9.759963035583496,1.2413935661315918,0.02422248013317585,-0.0495096817612648,0.0252872034907341
2476006224975,1.2832921743392944,-9.724050521850586,1.2318167686462402,0.02608574740588665,-0.0444522425532341,0.02502102218568325
2476007462162,1.3215993642807007,-9.769539833068848,1.217451572418213,0.02661811001598835,-0.0473802350461483,0.02182685025036335
2476008699350,1.2976573705673218,-9.747992515563965,1.235408067703247,0.0263519287109375,-0.0425889752805233,0.0252872034907341
2476009936512,1.2808979749679565,-9.768342971801758,1.237802267074585,0.0268842913210392,-0.0420566126704216,0.02794901467859745
2476011173700,1.316810965538025,-9.791088104248047,1.2437877655029297,0.0252872034907341,-0.0425889752805233,0.0258195661008358
2476012410887,1.2401964664459229,-9.749189376831055,1.2282254695892334,0.0244886614382267,-0.0471140518784523,0.02422248013317585
2476013648075,1.238999366760254,-9.738415718078613,1.2545616626739502,0.0258195661008358,-0.0404595248401165,0.02422248013317585
2476014885262,1.292868971824646,-9.795876502990723,1.2198457717895508,0.0268842913210392,-0.0391286201775074,0.02502102218568325
2476016122450,1.3036428689956665,-9.78869342803955,1.1959037780761719,0.02608574740588665,-0.0423227921128273,0.02874755859375
2476017359637,1.2856863737106323,-9.750386238098145,1.1827356815338135,0.02502102218568325,-0.0409918874502182,0.02608574740588665
2476018596825,1.2521674633026123,-9.761160850524902,1.2330138683319092,0.0223592109978199,-0.0351359061896801,0.0234239362180233
2476019834000,1.2713210582733154,-9.791088104248047,1.237802267074585,0.0228915736079216,-0.0375315360724926,0.023956298828125
2476021071187,1.2892776727676392,-9.774328231811523,1.2689268589019775,0.02315775491297245,-0.038063894957304,0.0258195661008358
2476022308350,1.2797008752822876,-9.794679641723633,1.236605167388916,0.02182685025036335,-0.0396609827876091,0.02608574740588665
2476023545550,1.2797008752822876,-9.77552604675293,1.258152961730957,0.0252872034907341,-0.0372653529047966,0.023956298828125
2476024782737,1.2868834733963013,-9.823410034179688,1.2234370708465576,0.0215606689453125,-0.0314093679189682,0.0268842913210392
2476026019925,1.2856863737106323,-9.832986831665039,1.2449848651885986,0.02182685025036335,-0.02741665206849575,0.0228915736079216
2476027257100,1.2749123573303223,-9.813833236694336,1.2725181579589844,0.0244886614382267,-0.0356682650744915,0.0276828333735466
2476028494300,1.2629413604736328,-9.834183692932129,1.2677297592163086,0.02129448764026165,-0.0292799212038517,0.02981228195130825
2476029731475,1.256955862045288,-9.780314445495605,1.2545616626739502,0.02022976242005825,-0.0300784632563591,0.02874755859375
2476030968662,1.2892776727676392,-9.832986831665039,1.2449848651885986,0.0210283063352108,-0.02874755859375,0.02608574740588665
2476032205862,1.2761094570159912,-9.848548889160156,1.215057373046875,0.02022976242005825,-0.0223592109978199,0.0228915736079216
2476033443050,1.260547161102295,-9.86889934539795,1.2270283699035645,0.0157046839594841,-0.0228915736079216,0.0223592109978199
2476034680212,1.2677297592163086,-9.835380554199219,1.2198457717895508,0.01889885775744915,-0.0252872034907341,0.01889885775744915
2476035917425,1.2808979749679565,-9.815030097961426,1.2210428714752197,0.0204959437251091,-0.0220930315554142,0.01703559048473835
2476037154587,1.2820950746536255,-9.818621635437012,1.2114660739898682,0.0162370465695858,-0.02076212503015995,0.0220930315554142
2476038391787,1.2832921743392944,-9.821015357971191,1.2318167686462402,0.0162370465695858,-0.01703559048473835,0.02076212503015995
2476039628962,1.2844892740249634,-9.836577415466309,1.2258312702178955,0.01224433071911335,-0.01889885775744915,0.0157046839594841
2476040866162,1.2653355598449707,-9.828198432922363,1.2617442607879639,0.012776692397892475,-0.0210283063352108,0.023956298828125
2476042103337,1.2749123573303223,-9.821015357971191,1.2330138683319092,0.0138414166867733,-0.0191650390625,0.0244886614382267
2476043340512,1.2773066759109497,-9.791088104248047,1.2258312702178955,0.010647243820130825,-0.0173017717897892,0.0247548408806324
2476044577725,1.235408067703247,-9.799468040466309,1.1982979774475098,0.006122165359556675,-0.01836649514734745,0.0204959437251091
2476045814900,1.2509703636169434,-9.756372451782227,1.2437877655029297,0.0114457868039608,-0.01224433071911335,0.0228915736079216
2476047052087,1.2306196689605713,-9.77672290802002,1.2641384601593018,0.0119781494140625,-0.00931633822619915,0.0282151959836483
2476048289275,1.2557587623596191,-9.750386238098145,1.191115379333496,0.01410759799182415,-0.01463996060192585,0.0258195661008358
2476049526425,1.2461819648742676,-9.77791976928711,1.2294225692749023,0.00931633822619915,-0.0167694091796875,0.02076212503015995
2476050763637,1.2401964664459229,-9.787496566772461,1.237802267074585,0.010913425125181675,-0.0066545275039970875,0.0196974016726017
2476052000825,1.2509703636169434,-9.770737648010254,1.2210428714752197,0.01224433071911335,-0.007985432632267475,0.02555338479578495
2476053238000,1.2880805730819702,-9.77552604675293,1.2042834758758545,0.01117960549890995,-0.012510511092841625,0.02502102218568325
2476054475200,1.2785037755966187,-9.81024169921875,1.2198457717895508,0.0114457868039608,-0.0071868896484375,0.02661811001598835
2476055712375,1.290474772453308,-9.789891242980957,1.2318167686462402,0.00958251953125,-0.00958251953125,0.0276828333735466
2476056949550,1.2725181579589844,-9.818621635437012,1.2413935661315918,0.008783976547420025,-0.005057440605014563,0.023956298828125
2476058186750,1.2725181579589844,-9.848548889160156,1.2234370708465576,0.00452507846057415,-0.00984870083630085,0.0247548408806324
2476059423950,1.2617442607879639,-9.84256362915039,1.258152961730957,0.00452507846057415,-0.006122165359556675,0.02369011752307415
2476060661125,1.213860273361206,-9.7791166305542,1.1971008777618408,0.0066545275039970875,-0.0042588976211845875,0.02369011752307415
2476061898312,1.2689268589019775,-9.832986831665039,1.2497732639312744,0.0071868896484375,-0.0077192517928779125,0.02794901467859745
2476063135500,1.256955862045288,-9.818621635437012,1.2461819648742676,0.003460354171693325,-0.00452507846057415,0.02608574740588665
2476064372675,1.260547161102295,-9.804256439208984,1.2473790645599365,0.0071868896484375,-0.005057440605014563,0.0263519287109375
2476065609862,1.2545616626739502,-9.805453300476074,1.2282254695892334,0.003460354171693325,-0.003460354171693325,0.0247548408806324
2476066847037,1.291671872138977,-9.818621635437012,1.2330138683319092,0.0021294488105922937,-0.003460354171693325,0.0300784632563591
2476068084237,1.2737152576446533,-9.77791976928711,1.215057373046875,0.0005323622026480734,-0.0007985432748682797,0.02661811001598835
2476069321412,1.2749123573303223,-9.816226959228516,1.2258312702178955,0.00452507846057415,0.0031941730994731188,0.0268842913210392
2476070558612,1.2509703636169434,-9.77791976928711,1.2485761642456055,-0.0031941730994731188,0.007453070487827063,0.0292799212038517
2476071795787,1.3024457693099976,-9.805453300476074,1.193509578704834,-0.0026618109550327063,0.006122165359556675,0.0292799212038517
2476073032975,1.3060370683670044,-9.762357711791992,1.238999366760254,0.0002661811013240367,-0.0007985432748682797,0.0338049978017807
2476074270162,1.3000515699386597,-9.7791166305542,1.2270283699035645,-0.0031941730994731188,0.0007985432748682797,0.0375315360724926
2476075507337,1.3108254671096802,-9.761160850524902,1.237802267074585,0.0,0.0026618109550327063,0.033272635191679
2476076744525,1.2952631711959839,-9.77791976928711,1.2066776752471924,-0.0005323622026480734,-0.0013309054775163531,0.02848137728869915
2476077981712,1.3323732614517212,-9.785102844238281,1.237802267074585,-0.0018632676219567657,0.0039927163161337376,0.0292799212038517
2476079218900,1.292868971824646,-9.800664901733398,1.2473790645599365,-0.004791259765625,0.003460354171693325,0.0319417305290699
2476080456087,1.3204022645950317,-9.715670585632324,1.2246341705322266,-0.0071868896484375,0.0042588976211845875,0.033272635191679
2476081693275,1.2773066759109497,-9.734824180603027,1.2473790645599365,-0.0071868896484375,0.008251613937318325,0.0343373604118824
2476082930475,1.2952631711959839,-9.787496566772461,1.2318167686462402,-0.005589802749454975,0.01117960549890995,0.0324740931391716
2476084167637,1.3455413579940796,-9.793481826782227,1.2485761642456055,-0.004791259765625,0.007453070487827063,0.02848137728869915
2476085404825,1.294066071510315,-9.791088104248047,1.2030863761901855,-0.005589802749454975,0.008517795242369175,0.02794901467859745
2476086642012,1.2820950746536255,-9.798270225524902,1.2509703636169434,-0.006122165359556675,0.008517795242369175,0.0364668108522892
2476087879212,1.2832921743392944,-9.770737648010254,1.2114660739898682,-0.00958251953125,0.0063883461989462376,0.0314093679189682
2476089116387,1.2868834733963013,-9.801861763000488,1.2006921768188477,-0.008783976547420025,0.0063883461989462376,0.0276828333735466
2476090353575,1.2856863737106323,-9.767146110534668,1.2054805755615234,-0.0090501569211483,0.005855984054505825,0.02422248013317585
2476091590762,1.237802267074585,-9.816226959228516,1.215057373046875,-0.00931633822619915,0.0077192517928779125,0.0295461006462574
2476092827937,1.2785037755966187,-9.786299705505371,1.2521674633026123,-0.008783976547420025,0.0090501569211483,0.0316755510866642
2476094065150,1.3120225667953491,-9.829395294189453,1.2186486721038818,-0.012510511092841625,0.0071868896484375,0.02661811001598835
2476095302325,1.2773066759109497,-9.829395294189453,1.236605167388916,-0.010647243820130825,0.0114457868039608,0.0282151959836483
2476096539500,1.259350061416626,-9.806650161743164,1.2210428714752197,-0.012776692397892475,0.01650322787463665,0.0263519287109375
2476097776687,1.2413935661315918,-9.841365814208984,1.238999366760254,-0.012510511092841625,0.01171196810901165,0.0228915736079216
2476099013862,1.2629413604736328,-9.824606895446777,1.1743559837341309,-0.0114457868039608,0.01117960549890995,0.023956298828125
2476100251062,1.292868971824646,-9.805453300476074,1.217451572418213,-0.01171196810901165,0.01117960549890995,0.0276828333735466
2476101488250,1.2737152576446533,-9.81143856048584,1.2246341705322266,-0.01171196810901165,0.010114881210029125,0.0292799212038517
2476102725425,1.3204022645950317,-9.804256439208984,1.193509578704834,-0.0191650390625,0.012776692397892475,0.0247548408806324
2476103962600,1.3036428689956665,-9.78869342803955,1.1683704853057861,-0.0173017717897892,0.01410759799182415,0.0258195661008358
2476105199800,1.2820950746536255,-9.75158405303955,1.2186486721038818,-0.0162370465695858,0.014906140975654125,0.0252872034907341
2476106436987,1.3407529592514038,-9.787496566772461,1.2485761642456055,-0.0162370465695858,0.0114457868039608,0.02794901467859745
2476107674162,1.2808979749679565,-9.794679641723633,1.2318167686462402,-0.0173017717897892,0.012510511092841625,0.0282151959836483
2476108911350,1.3060370683670044,-9.77791976928711,1.237802267074585,-0.02022976242005825,0.0186326764523983,0.0215606689453125
2476110148537,1.3036428689956665,-9.768342971801758,1.2030863761901855,-0.0210283063352108,0.01650322787463665,0.0252872034907341
2476111385737,1.313219666481018,-9.77672290802002,1.2294225692749023,-0.0191650390625,0.02022976242005825,0.02981228195130825
2476112622912,1.2868834733963013,-9.791088104248047,1.2114660739898682,-0.0157046839594841,0.01597086526453495,0.0276828333735466
2476113860112,1.3215993642807007,-9.75517463684082,1.2006921768188477,-0.0186326764523983,0.015172322280704975,0.0263519287109375
2476115097312,1.2713210582733154,-9.770737648010254,1.2054805755615234,-0.01783413253724575,0.01996358297765255,0.0271504707634449
2476116334475,1.2749123573303223,-9.764751434326172,1.1755530834197998,-0.02022976242005825,0.0191650390625,0.03034464456140995
2476117571650,1.2785037755966187,-9.795876502990723,1.2114660739898682,-0.01650322787463665,0.01463996060192585,0.02555338479578495
2476118808837,1.2425906658172607,-9.783905029296875,1.191115379333496,-0.0173017717897892,0.0167694091796875,0.02741665206849575
2476120046050,1.2617442607879639,-9.77552604675293,1.1803414821624756,-0.02422248013317585,0.013309055007994175,0.0271504707634449
2476121283212,1.3048399686813354,-9.787496566772461,1.1994950771331787,-0.02022976242005825,0.01597086526453495,0.02369011752307415
2476122520387,1.3012486696243286,-9.762357711791992,1.1994950771331787,-0.01703559048473835,0.02315775491297245,0.02315775491297245
2476123757600,1.316810965538025,-9.740809440612793,1.2186486721038818,-0.014373779296875,0.01783413253724575,0.02315775491297245
2476124994775,1.314416766166687,-9.762357711791992,1.2198457717895508,-0.01889885775744915,0.0162370465695858,0.023956298828125
2476126231950,1.2785037755966187,-9.780314445495605,1.2413935661315918,-0.0223592109978199,0.01943122036755085,0.0263519287109375
2476127469150,1.2629413604736328,-9.774328231811523,1.2258312702178955,-0.0162370465695858,0.0181003138422966,0.0282151959836483
2476128706350,1.3251906633377075,-9.75397777557373,1.1791443824768066,-0.0162370465695858,0.01996358297765255,0.02794901467859745
2476129943512,1.2761094570159912,-9.770737648010254,1.1683704853057861,-0.0228915736079216,0.0196974016726017,0.0263519287109375
2476131180687,1.3275848627090454,-9.749189376831055,1.171961784362793,-0.0220930315554142,0.0167694091796875,0.02262539230287075
2476132417900,1.338358759880066,-9.770737648010254,1.213860273361206,-0.01943122036755085,0.01597086526453495,0.02555338479578495
2476133655087,1.3204022645950317,-9.7420072555542,1.2054805755615234,-0.01996358297765255,0.0181003138422966,0.0295461006462574
2476134892262,1.3192051649093628,-9.726444244384766,1.1623849868774414,-0.0167694091796875,0.014373779296875,0.0252872034907341
2476136129437,1.313219666481018,-9.737218856811523,1.1839327812194824,-0.015172322280704975,0.0162370465695858,0.0223592109978199
2476137366625,1.3036428689956665,-9.745597839355469,1.2078747749328613,-0.014373779296875,0.01783413253724575,0.02129448764026165
2476138603812,1.2868834733963013,-9.725247383117676,1.2018892765045166,-0.015438503585755825,0.02182685025036335,0.0204959437251091
2476139840987,1.3443442583084106,-9.72285270690918,1.2030863761901855,-0.0186326764523983,0.01650322787463665,0.02315775491297245
2476141078187,1.338358759880066,-9.758766174316406,1.1659762859344482,-0.01650322787463665,0.014373779296875,0.0196974016726017
2476142315375,1.3443442583084106,-9.765949249267578,1.1863269805908203,-0.01996358297765255,0.0157046839594841,0.01996358297765255
2476143552562,1.3287819623947144,-9.75158405303955,1.2102689743041992,-0.02022976242005825,0.0186326764523983,0.0244886614382267
2476144789737,1.3491326570510864,-9.690531730651855,1.2078747749328613,-0.02076212503015995,0.0223592109978199,0.02369011752307415
2476146026937,1.3060370683670044,-9.706093788146973,1.171961784362793,-0.0196974016726017,0.0162370465695858,0.0282151959836483
2476147264100,1.3431471586227417,-9.737218856811523,1.238999366760254,-0.0157046839594841,0.014906140975654125,0.0186326764523983
2476148501287,1.3215993642807007,-9.730035781860352,1.2401964664459229,-0.0167694091796875,0.013042873702943325,0.01703559048473835
2476149738475,1.313219666481018,-9.696516990661621,1.2318167686462402,-0.01703559048473835,0.02076212503015995,0.02555338479578495
2476150975662,1.3551181554794312,-9.706093788146973,1.1755530834197998,-0.0114457868039608,0.01996358297765255,0.0276828333735466
2476152212862,1.291671872138977,-9.730035781860352,1.1815385818481445,-0.014373779296875,0.01703559048473835,0.0292799212038517
2476153450062,1.2868834733963013,-9.718064308166504,1.2090718746185303,-0.01224433071911335,0.012510511092841625,0.0271504707634449
2476154687237,1.334767460823059,-9.680954933166504,1.2030863761901855,-0.010913425125181675,0.0114457868039608,0.0215606689453125
2476155924412,1.3299790620803833,-9.707290649414062,1.2018892765045166,-0.0138414166867733,0.00984870083630085,0.02262539230287075
2476157161600,1.3443442583084106,-9.734824180603027,1.1611878871917725,-0.01117960549890995,0.01463996060192585,0.0258195661008358
2476158398775,1.3263877630233765,-9.716867446899414,1.1839327812194824,-0.01224433071911335,0.01783413253724575,0.0204959437251091
2476159635975,1.2832921743392944,-9.746795654296875,1.1635820865631104,-0.00984870083630085,0.015438503585755825,0.02315775491297245
2476160873150,1.3287819623947144,-9.703699111938477,1.1863269805908203,-0.00984870083630085,0.013309055007994175,0.02422248013317585
2476162110337,1.3419500589370728,-9.704896926879883,1.2018892765045166,-0.005589802749454975,0.01117960549890995,0.0220930315554142
2476163347537,1.3024457693099976,-9.740809440612793,1.1827356815338135,-0.0063883461989462376,0.013309055007994175,0.0263519287109375
2476164584712,1.2964602708816528,-9.75158405303955,1.2018892765045166,-0.008251613937318325,0.0138414166867733,0.023956298828125
2476165821900,1.3311761617660522,-9.714473724365234,1.1827356815338135,-0.008783976547420025,0.01703559048473835,0.01996358297765255
2476167059062,1.3299790620803833,-9.727641105651855,1.1635820865631104,-0.00984870083630085,0.01357523538172245,0.02422248013317585
2476168296262,1.3551181554794312,-9.716867446899414,1.1982979774475098,-0.006122165359556675,0.01171196810901165,0.0244886614382267
2476169533450,1.313219666481018,-9.750386238098145,1.1851298809051514,-0.0090501569211483,0.008517795242369175,0.02555338479578495
2476170770637,1.3658920526504517,-9.724050521850586,1.173158884048462,-0.0066545275039970875,0.010114881210029125,0.02182685025036335
2476172007812,1.316810965538025,-9.7420072555542,1.2066776752471924,-0.005589802749454975,0.005855984054505825,0.0252872034907341
2476173245012,1.3611036539077759,-9.702502250671387,1.1803414821624756,-0.0077192517928779125,0.00984870083630085,0.02502102218568325
2476174482200,1.3718775510787964,-9.720458984375,1.1959037780761719,-0.0066545275039970875,0.0119781494140625,0.01996358297765255
2476175719375,1.3084312677383423,-9.737218856811523,1.1791443824768066,-0.004791259765625,0.01410759799182415,0.0268842913210392
2476176956575,1.3335703611373901,-9.702502250671387,1.1887211799621582,-0.0023956298828125,0.00984870083630085,0.023956298828125
2476178193750,1.3227964639663696,-9.706093788146973,1.1552022695541382,-0.0039927163161337376,0.012776692397892475,0.01996358297765255
2476179430937,1.3335703611373901,-9.710882186889648,1.2449848651885986,-0.0042588976211845875,0.01117960549890995,0.02502102218568325
2476180668112,1.3467384576797485,-9.708487510681152,1.191115379333496,-0.0023956298828125,0.0063883461989462376,0.02502102218568325
2476181905300,1.3180080652236938,-9.701305389404297,1.2078747749328613,0.0023956298828125,0.0077192517928779125,0.0196974016726017
2476183142500,1.3431471586227417,-9.677363395690918,1.1851298809051514,-0.0023956298828125,0.007453070487827063,0.0191650390625
2476184379687,1.3024457693099976,-9.704896926879883,1.192312479019165,-0.0021294488105922937,0.008251613937318325,0.01889885775744915
2476185616875,1.314416766166687,-9.682151794433594,1.1444283723831177,-0.0018632676219567657,0.00452507846057415,0.02182685025036335
2476186854062,1.3251906633377075,-9.68933391571045,1.1743559837341309,-0.0018632676219567657,0.005589802749454975,0.0215606689453125
2476188091237,1.3299790620803833,-9.72165584564209,1.1851298809051514,-0.0037265352439135313,0.008251613937318325,0.02129448764026165
2476189328425,1.3335703611373901,-9.720458984375,1.1779472827911377,-0.0015970865497365594,0.006122165359556675,0.02022976242005825
2476190565600,1.3000515699386597,-9.692925453186035,1.1899182796478271,0.0005323622026480734,0.007453070487827063,0.0220930315554142
2476191802800,1.335964560508728,-9.696516990661621,1.1815385818481445,0.0007985432748682797,0.00692070834338665,0.0223592109978199
2476193039987,1.3108254671096802,-9.726444244384766,1.2114660739898682,-0.0007985432748682797,0.00692070834338665,0.0191650390625
2476194277175,1.3563152551651,-9.713275909423828,1.216254472732544,0.0013309054775163531,0.0023956298828125,0.0191650390625
2476195514350,1.3275848627090454,-9.704896926879883,1.2018892765045166,0.0053236219100654125,0.005057440605014563,0.0223592109978199
2476196751550,1.3670891523361206,-9.724050521850586,1.1755530834197998,0.007453070487827063,0.0039927163161337376,0.02848137728869915
2476197988725,1.3634978532791138,-9.771934509277344,1.1971008777618408,0.0053236219100654125,0.0010647244052961469,0.0252872034907341
2476199225900,1.3431471586227417,-9.726444244384766,1.2030863761901855,0.0026618109550327063,0.00452507846057415,0.0191650390625
2476200463100,1.3491326570510864,-9.720458984375,1.2282254695892334,0.003460354171693325,0.0018632676219567657,0.01650322787463665
2476201700275,1.3204022645950317,-9.739612579345703,1.1899182796478271,0.006122165359556675,0.0037265352439135313,0.02182685025036335
2476202937475,1.3192051649093628,-9.75158405303955,1.2090718746185303,0.0015970865497365594,0.005057440605014563,0.0191650390625
2476204174662,1.3084312677383423,-9.702502250671387,1.216254472732544,0.0005323622026480734,0.0002661811013240367,0.01597086526453495
2476205411825,1.3491326570510864,-9.739612579345703,1.1540051698684692,0.0037265352439135313,0.0029279920272529125,0.013309055007994175
2476206649025,1.315613865852356,-9.733627319335938,1.1743559837341309,0.0042588976211845875,0.0023956298828125,0.0119781494140625
2476207886187,1.3036428689956665,-9.745597839355469,1.1959037780761719,0.0029279920272529125,-0.0002661811013240367,0.01650322787463665
2476209123400,1.3024457693099976,-9.72165584564209,1.2054805755615234,0.0023956298828125,-0.0029279920272529125,0.0204959437251091
2476210360587,1.3850456476211548,-9.75158405303955,1.1587936878204346,0.003460354171693325,0.0,0.02129448764026165
2476211597775,1.338358759880066,-9.72165584564209,1.2294225692749023,-0.0002661811013240367,-0.003460354171693325,0.02129448764026165
2476212834950,1.313219666481018,-9.736021041870117,1.1851298809051514,0.0023956298828125,-0.0039927163161337376,0.0196974016726017
2476214072137,1.3395558595657349,-9.758766174316406,1.2102689743041992,0.0023956298828125,-0.0010647244052961469,0.0162370465695858
2476215309325,1.3323732614517212,-9.738415718078613,1.2030863761901855,0.0010647244052961469,-0.0005323622026480734,0.02076212503015995
2476216546500,1.334767460823059,-9.785102844238281,1.194706678390503,0.0013309054775163531,-0.0021294488105922937,0.02182685025036335
2476217783675,1.3431471586227417,-9.745597839355469,1.237802267074585,-0.0015970865497365594,-0.0037265352439135313,0.01756795309484005
2476219020875,1.3287819623947144,-9.739612579345703,1.1851298809051514,0.0026618109550327063,-0.0077192517928779125,0.0181003138422966
2476220258075,1.3275848627090454,-9.730035781860352,1.1803414821624756,0.0023956298828125,-0.0090501569211483,0.02182685025036335
2476221495250,1.3515268564224243,-9.7420072555542,1.1743559837341309,0.0015970865497365594,-0.005057440605014563,0.0223592109978199
2476222732412,1.3407529592514038,-9.800664901733398,1.2294225692749023,0.005057440605014563,-0.005589802749454975,0.01943122036755085
2476223969625,1.3084312677383423,-9.738415718078613,1.2258312702178955,0.0026618109550327063,-0.0071868896484375,0.013309055007994175
2476225206800,1.3407529592514038,-9.762357711791992,1.2030863761901855,-0.0026618109550327063,-0.010381062515079975,0.01783413253724575
2476226443975,1.3287819623947144,-9.780314445495605,1.1647791862487793,0.0015970865497365594,-0.0077192517928779125,0.01650322787463665
2476227681162,1.2868834733963013,-9.738415718078613,1.170764684677124,0.0023956298828125,-0.008251613937318325,0.0191650390625
2476228918362,1.3060370683670044,-9.731232643127441,1.2090718746185303,0.0015970865497365594,-0.0114457868039608,0.02262539230287075
2476230155562,1.3036428689956665,-9.731232643127441,1.1743559837341309,0.0021294488105922937,-0.012776692397892475,0.01783413253724575
2476231392750,1.334767460823059,-9.787496566772461,1.1336544752120972,0.0010647244052961469,-0.013042873702943325,0.014373779296875
2476232629912,1.3096283674240112,-9.797073364257812,1.1959037780761719,0.0002661811013240367,-0.010114881210029125,0.01463996060192585
2476233867112,1.2844892740249634,-9.737218856811523,1.215057373046875,0.0010647244052961469,-0.010647243820130825,0.014906140975654125
2476235104287,1.2844892740249634,-9.764751434326172,1.1599907875061035,-0.0013309054775163531,-0.012510511092841625,0.01224433071911335
2476236341487,1.260547161102295,-9.774328231811523,1.1851298809051514,-0.0029279920272529125,-0.01224433071911335,0.01171196810901165
2476237578675,1.291671872138977,-9.757569313049316,1.1743559837341309,-0.0005323622026480734,-0.010913425125181675,0.010913425125181675
2476238815837,1.3431471586227417,-9.757569313049316,1.191115379333496,0.0005323622026480734,-0.014373779296875,0.014906140975654125
2476240053037,1.3311761617660522,-9.740809440612793,1.2318167686462402,0.0029279920272529125,-0.0210283063352108,0.0167694091796875
2476241290200,1.338358759880066,-9.761160850524902,1.1887211799621582,0.0018632676219567657,-0.0157046839594841,0.01357523538172245
2476242527400,1.2820950746536255,-9.732430458068848,1.2282254695892334,-0.0018632676219567657,-0.012776692397892475,0.012510511092841625
2476243764587,1.3275848627090454,-9.733627319335938,1.1982979774475098,-0.0031941730994731188,-0.0162370465695858,0.015172322280704975
2476245001775,1.316810965538025,-9.743204116821289,1.1671733856201172,-0.0010647244052961469,-0.01756795309484005,0.014373779296875
2476246238950,1.3108254671096802,-9.743204116821289,1.2210428714752197,-0.0029279920272529125,-0.0167694091796875,0.013309055007994175
2476247476150,1.315613865852356,-9.791088104248047,1.2306196689605713,-0.00452507846057415,-0.014906140975654125,0.0119781494140625
2476248713325,1.3287819623947144,-9.75397777557373,1.1815385818481445,-0.00452507846057415,-0.0186326764523983,0.013309055007994175
2476249950512,1.3395558595657349,-9.757569313049316,1.1575965881347656,-0.0053236219100654125,-0.01597086526453495,0.012510511092841625
2476251187687,1.334767460823059,-9.771934509277344,1.215057373046875,-0.005057440605014563,-0.015172322280704975,0.0157046839594841
2476252424887,1.2976573705673218,-9.728838920593262,1.171961784362793,-0.003460354171693325,-0.01703559048473835,0.015438503585755825
2476253662075,1.3048399686813354,-9.75278091430664,1.1959037780761719,-0.0010647244052961469,-0.01996358297765255,0.01117960549890995
2476254899262,1.291671872138977,-9.72285270690918,1.1671733856201172,-0.008251613937318325,-0.0173017717897892,0.0071868896484375
2476256136437,1.2713210582733154,-9.757569313049316,1.1635820865631104,-0.0071868896484375,-0.01650322787463665,0.005855984054505825
2476257373637,1.2617442607879639,-9.770737648010254,1.1552022695541382,-0.0026618109550327063,-0.0196974016726017,0.0077192517928779125
2476258610825,1.2880805730819702,-9.75397777557373,1.2006921768188477,-0.0037265352439135313,-0.02502102218568325,0.010647243820130825
2476259848012,1.2952631711959839,-9.75158405303955,1.1875240802764893,-0.0015970865497365594,-0.0223592109978199,0.007985432632267475
2476261085200,1.2785037755966187,-9.746795654296875,1.2018892765045166,-0.0026618109550327063,-0.0162370465695858,0.00984870083630085
2476262322375,1.2557587623596191,-9.761160850524902,1.256955862045288,-0.00452507846057415,-0.0234239362180233,0.00931633822619915
2476263559562,1.3000515699386597,-9.763554573059082,1.2006921768188477,-0.0031941730994731188,-0.0234239362180233,0.010114881210029125
2476264796762,1.3000515699386597,-9.771934509277344,1.2006921768188477,-0.0063883461989462376,-0.0210283063352108,0.008783976547420025
2476266033937,1.2868834733963013,-9.756372451782227,1.1899182796478271,-0.006122165359556675,-0.02262539230287075,0.008251613937318325
2476267271100,1.2797008752822876,-9.767146110534668,1.1887211799621582,-0.005855984054505825,-0.02555338479578495,0.008251613937318325
2476268508312,1.2952631711959839,-9.75158405303955,1.2270283699035645,-0.0066545275039970875,-0.0167694091796875,0.00984870083630085
2476269745500,1.2653355598449707,-9.758766174316406,1.1540051698684692,-0.007453070487827063,-0.014906140975654125,0.0114457868039608
2476270982675,1.2533645629882812,-9.767146110534668,1.191115379333496,-0.005855984054505825,-0.0234239362180233,0.01224433071911335
2476272219862,1.3000515699386597,-9.758766174316406,1.1875240802764893,-0.004791259765625,-0.02422248013317585,0.0071868896484375
2476273457037,1.3036428689956665,-9.743204116821289,1.2018892765045166,-0.00452507846057415,-0.0191650390625,0.008783976547420025
2476274694237,1.2665326595306396,-9.703699111938477,1.1767501831054688,-0.0015970865497365594,-0.0162370465695858,0.012510511092841625
2476275931412,1.2473790645599365,-9.713275909423828,1.1971008777618408,-0.0053236219100654125,-0.0215606689453125,0.0063883461989462376
2476277168612,1.2808979749679565,-9.758766174316406,1.1611878871917725,-0.00692070834338665,-0.0204959437251091,0.0039927163161337376
2476278405800,1.316810965538025,-9.730035781860352,1.1839327812194824,-0.0021294488105922937,-0.0191650390625,0.004791259765625
2476279642975,1.259350061416626,-9.740809440612793,1.1815385818481445,-0.0039927163161337376,-0.0196974016726017,0.005057440605014563
2476280880162,1.2797008752822876,-9.732430458068848,1.170764684677124,-0.0026618109550327063,-0.01889885775744915,0.005589802749454975
2476282117362,1.2665326595306396,-9.7420072555542,1.1456254720687866,-0.0077192517928779125,-0.01836649514734745,0.00931633822619915
2476283354537,1.2892776727676392,-9.733627319335938,1.1899182796478271,-0.00452507846057415,-0.0181003138422966,0.00958251953125
2476284591725,1.2665326595306396,-9.747992515563965,1.1815385818481445,-0.0015970865497365594,-0.0210283063352108,0.007985432632267475
2476285828900,1.2988544702529907,-9.758766174316406,1.1994950771331787,0.0005323622026480734,-0.02369011752307415,0.00931633822619915
2476287066087,1.2653355598449707,-9.732430458068848,1.2270283699035645,0.0010647244052961469,-0.02129448764026165,0.007453070487827063
2476288303275,1.2677297592163086,-9.731232643127441,1.170764684677124,-0.0037265352439135313,-0.01783413253724575,0.00692070834338665
2476289540462,1.2713210582733154,-9.720458984375,1.1755530834197998,-0.0005323622026480734,-0.0167694091796875,0.0066545275039970875
2476290777650,1.2832921743392944,-9.762357711791992,1.1647791862487793,0.0018632676219567657,-0.0223592109978199,0.004791259765625
2476292014825,1.2737152576446533,-9.758766174316406,1.1468225717544556,-0.0015970865497365594,-0.02129448764026165,0.0031941730994731188
2476293252025,1.2773066759109497,-9.739612579345703,1.2018892765045166,-0.0077192517928779125,-0.0204959437251091,0.005057440605014563
2476294489212,1.2401964664459229,-9.72165584564209,1.1839327812194824,-0.0053236219100654125,-0.01836649514734745,0.005057440605014563
2476295726387,1.213860273361206,-9.749189376831055,1.215057373046875,-0.0007985432748682797,-0.01836649514734745,0.0023956298828125
2476296963587,1.237802267074585,-9.731232643127441,1.1659762859344482,-0.0013309054775163531,-0.0223592109978199,0.0053236219100654125
2476298200750,1.2832921743392944,-9.743204116821289,1.1480196714401245,-0.0010647244052961469,-0.01783413253724575,0.004791259765625
2476299437937,1.2868834733963013,-9.734824180603027,1.212663173675537,-0.0021294488105922937,-0.012776692397892475,0.006122165359556675
2476300675137,1.2713210582733154,-9.696516990661621,1.215057373046875,-0.0010647244052961469,-0.01703559048473835,0.0037265352439135313
2476301912300,1.2677297592163086,-9.756372451782227,1.1683704853057861,0.0053236219100654125,-0.0162370465695858,0.0026618109550327063
2476303149500,1.2102689743041992,-9.71926212310791,1.194706678390503,-0.0007985432748682797,-0.01996358297765255,0.004791259765625
2476304386687,1.2617442607879639,-9.75278091430664,1.1492167711257935,-0.0023956298828125,-0.01117960549890995,0.00452507846057415
2476305623862,1.256955862045288,-9.758766174316406,1.1288660764694214,-0.003460354171693325,-0.0138414166867733,0.0077192517928779125
2476306861075,1.256955862045288,-9.707290649414062,1.2078747749328613,-0.0010647244052961469,-0.01171196810901165,0.005589802749454975
2476308098262,1.260547161102295,-9.72285270690918,1.2401964664459229,0.0015970865497365594,-0.013042873702943325,0.0053236219100654125
2476309335425,1.238999366760254,-9.707290649414062,1.215057373046875,-0.0007985432748682797,-0.0138414166867733,0.0010647244052961469
2476310572612,1.2222399711608887,-9.740809440612793,1.1743559837341309,-0.0023956298828125,-0.013042873702943325,0.0037265352439135313
2476311809812,1.2318167686462402,-9.750386238098145,1.1755530834197998,0.0029279920272529125,-0.010913425125181675,0.0042588976211845875
2476313046975,1.2186486721038818,-9.673771858215332,1.1959037780761719,0.005589802749454975,-0.013042873702943325,0.0029279920272529125
2476314284200,1.259350061416626,-9.727641105651855,1.2102689743041992,0.0031941730994731188,-0.012510511092841625,0.0002661811013240367
2476315521350,1.2330138683319092,-9.713275909423828,1.1552022695541382,0.0031941730994731188,-0.010114881210029125,-0.0013309054775163531
2476316758550,1.2330138683319092,-9.703699111938477,1.1599907875061035,0.0007985432748682797,-0.010381062515079975,-0.003460354171693325
2476317995750,1.2557587623596191,-9.6618013381958,1.1971008777618408,0.0053236219100654125,-0.012776692397892475,0.0007985432748682797
2476319232925,1.2318167686462402,-9.66419506072998,1.173158884048462,0.005057440605014563,-0.008251613937318325,0.0023956298828125
2476320470100,1.2485761642456055,-9.692925453186035,1.139639973640442,0.005057440605014563,-0.008517795242369175,0.0018632676219567657
2476321707287,1.2509703636169434,-9.718064308166504,1.1851298809051514,0.0039927163161337376,-0.0071868896484375,-0.010381062515079975
2476322944462,1.2557587623596191,-9.731232643127441,1.192312479019165,0.0053236219100654125,-0.0071868896484375,-0.0053236219100654125
2476324181662,1.2701239585876465,-9.712079048156738,1.1552022695541382,0.0053236219100654125,-0.00692070834338665,0.0007985432748682797
2476325418850,1.2413935661315918,-9.697713851928711,1.2042834758758545,0.0029279920272529125,-0.00958251953125,0.0026618109550327063
2476326656050,1.2102689743041992,-9.683348655700684,1.216254472732544,0.0042588976211845875,-0.00984870083630085,-0.0015970865497365594
2476327893212,1.236605167388916,-9.743204116821289,1.213860273361206,0.0071868896484375,-0.010114881210029125,0.0037265352439135313
2476329130400,1.258152961730957,-9.713275909423828,1.2198457717895508,0.00692070834338665,-0.0039927163161337376,0.0
2476330367587,1.2437877655029297,-9.68933391571045,1.1803414821624756,0.004791259765625,-0.005855984054505825,0.0
2476331604775,1.2509703636169434,-9.68813705444336,1.2042834758758545,0.0077192517928779125,-0.00452507846057415,-0.0039927163161337376
2476332841962,1.256955862045288,-9.702502250671387,1.191115379333496,0.0077192517928779125,-0.003460354171693325,-0.0071868896484375
2476334079150,1.260547161102295,-9.6989107131958,1.173158884048462,0.0071868896484375,-0.004791259765625,-0.0042588976211845875
2476335316337,1.2234370708465576,-9.730035781860352,1.1827356815338135,0.0071868896484375,-0.005057440605014563,-0.0063883461989462376
2476336553512,1.2797008752822876,-9.724050521850586,1.1827356815338135,0.00931633822619915,0.0007985432748682797,-0.0010647244052961469
2476337790712,1.2641384601593018,-9.728838920593262,1.1575965881347656,0.01171196810901165,0.0007985432748682797,-0.0018632676219567657
2476339027887,1.2557587623596191,-9.737218856811523,1.215057373046875,0.00984870083630085,-0.0005323622026480734,-0.0063883461989462376
2476340265075,1.2318167686462402,-9.739612579345703,1.1587936878204346,0.00692070834338665,0.0005323622026480734,-0.0066545275039970875
2476341502275,1.2485761642456055,-9.684545516967773,1.1851298809051514,0.0015970865497365594,0.0015970865497365594,-0.010114881210029125
2476342739425,1.2749123573303223,-9.75158405303955,1.1623849868774414,0.008783976547420025,0.004791259765625,-0.010381062515079975
2476343976637,1.2725181579589844,-9.737218856811523,1.1959037780761719,0.012510511092841625,0.0026618109550327063,-0.0071868896484375
2476345213825,1.2425906658172607,-9.743204116821289,1.136048674583435,0.010381062515079975,0.003460354171693325,-0.008783976547420025
2476346451012,1.3096283674240112,-9.727641105651855,1.1647791862487793,0.00931633822619915,0.0018632676219567657,-0.0063883461989462376
2476347688200,1.258152961730957,-9.720458984375,1.212663173675537,0.010381062515079975,0.0037265352439135313,-0.00452507846057415
2476348925400,1.2844892740249634,-9.746795654296875,1.217451572418213,0.008251613937318325,0.00452507846057415,-0.0077192517928779125
2476350162575,1.2533645629882812,-9.714473724365234,1.192312479019165,0.0090501569211483,0.0007985432748682797,-0.0042588976211845875
2476351399762,1.2677297592163086,-9.773131370544434,1.1635820865631104,0.010381062515079975,0.0029279920272529125,-0.0090501569211483
2476352636937,1.2665326595306396,-9.734824180603027,1.216254472732544,0.01224433071911335,0.0037265352439135313,-0.00984870083630085
2476353874125,1.2832921743392944,-9.695320129394531,1.2413935661315918,0.015438503585755825,0.003460354171693325,-0.007453070487827063
2476355111287,1.3048399686813354,-9.731232643127441,1.1815385818481445,0.010647243820130825,0.003460354171693325,-0.0071868896484375
2476356348500,1.2533645629882812,-9.745597839355469,1.1587936878204346,0.0119781494140625,0.0018632676219567657,-0.010381062515079975
2476357585675,1.3084312677383423,-9.732430458068848,1.1671733856201172,0.01224433071911335,0.0053236219100654125,-0.0077192517928779125
2476358822850,1.2856863737106323,-9.728838920593262,1.191115379333496,0.014373779296875,0.01171196810901165,-0.010114881210029125
2476360060062,1.2665326595306396,-9.72285270690918,1.2306196689605713,0.0162370465695858,0.00692070834338665,-0.008251613937318325
2476361297237,1.2844892740249634,-9.759963035583496,1.191115379333496,0.01463996060192585,0.00984870083630085,-0.00931633822619915
2476362534412,1.2761094570159912,-9.762357711791992,1.1540051698684692,0.013042873702943325,0.008517795242369175,-0.0066545275039970875
2476363771612,1.2701239585876465,-9.749189376831055,1.2102689743041992,0.01410759799182415,0.007453070487827063,-0.007453070487827063
2476365008787,1.3239935636520386,-9.774328231811523,1.1887211799621582,0.0119781494140625,0.007453070487827063,-0.007985432632267475
2476366245987,1.2880805730819702,-9.726444244384766,1.2186486721038818,0.014373779296875,0.010647243820130825,-0.006122165359556675
2476367483150,1.256955862045288,-9.77791976928711,1.1959037780761719,0.015172322280704975,0.008783976547420025,-0.010381062515079975
2476368720362,1.292868971824646,-9.75158405303955,1.171961784362793,0.012776692397892475,0.010647243820130825,-0.008517795242369175
2476369957537,1.3012486696243286,-9.768342971801758,1.2294225692749023,0.0119781494140625,0.0090501569211483,-0.0021294488105922937
2476371194725,1.2785037755966187,-9.791088104248047,1.1528080701828003,0.0162370465695858,0.00984870083630085,-0.0071868896484375
2476372431900,1.2808979749679565,-9.786299705505371,1.170764684677124,0.01410759799182415,0.010647243820130825,-0.010114881210029125
2476373669100,1.2689268589019775,-9.773131370544434,1.2102689743041992,0.01703559048473835,0.00958251953125,-0.005057440605014563
2476374906275,1.2820950746536255,-9.756372451782227,1.1899182796478271,0.01463996060192585,0.005589802749454975,-0.005589802749454975
2476376143475,1.3275848627090454,-9.757569313049316,1.217451572418213,0.01224433071911335,0.00984870083630085,-0.0077192517928779125
2476377380650,1.313219666481018,-9.773131370544434,1.2186486721038818,0.010381062515079975,0.013309055007994175,-0.0077192517928779125
2476378617837,1.3060370683670044,-9.77552604675293,1.2090718746185303,0.015172322280704975,0.010381062515079975,-0.0031941730994731188
2476379855012,1.2832921743392944,-9.77791976928711,1.1803414821624756,0.0181003138422966,0.007985432632267475,0.0013309054775163531
2476381092212,1.260547161102295,-9.77791976928711,1.191115379333496,0.01650322787463665,0.008517795242369175,-0.0037265352439135313
2476382329400,1.3120225667953491,-9.807847023010254,1.1839327812194824,0.01836649514734745,0.0114457868039608,-0.0053236219100654125
2476383566575,1.2880805730819702,-9.770737648010254,1.2066776752471924,0.014373779296875,0.014906140975654125,-0.00452507846057415
2476384803762,1.314416766166687,-9.774328231811523,1.1504138708114624,0.007985432632267475,0.00958251953125,-0.004791259765625
2476386040937,1.3024457693099976,-9.763554573059082,1.2042834758758545,0.00958251953125,0.008251613937318325,-0.0021294488105922937
2476387278137,1.3874398469924927,-9.791088104248047,1.2210428714752197,0.0138414166867733,0.01463996060192585,0.0015970865497365594
2476388515325,1.3287819623947144,-9.786299705505371,1.212663173675537,0.013042873702943325,0.0114457868039608,-0.0015970865497365594
2476389752500,1.3084312677383423,-9.767146110534668,1.2210428714752197,0.01783413253724575,0.00931633822619915,-0.005589802749454975
2476390989675,1.3096283674240112,-9.767146110534668,1.2042834758758545,0.015438503585755825,0.00958251953125,-0.0007985432748682797
2476392226875,1.3227964639663696,-9.798270225524902,1.2318167686462402,0.01224433071911335,0.014373779296875,-0.007453070487827063
2476393464062,1.3515268564224243,-9.77552604675293,1.1779472827911377,0.0162370465695858,0.0090501569211483,-0.0010647244052961469
2476394701250,1.357512354850769,-9.818621635437012,1.1647791862487793,0.015172322280704975,0.0077192517928779125,0.0071868896484375
2476395938437,1.3323732614517212,-9.761160850524902,1.1803414821624756,0.008517795242369175,0.00958251953125,0.0013309054775163531
2476397175612,1.314416766166687,-9.77552604675293,1.194706678390503,0.010114881210029125,0.0114457868039608,-0.003460354171693325
2476398412787,1.3539210557937622,-9.819818496704102,1.1492167711257935,0.01410759799182415,0.010381062515079975,-0.0007985432748682797
2476399650000,1.3623007535934448,-9.800664901733398,1.193509578704834,0.013042873702943325,0.007453070487827063,0.004791259765625
2476400887175,1.3287819623947144,-9.77552604675293,1.1815385818481445,0.01224433071911335,0.01171196810901165,0.0063883461989462376
2476402124362,1.3215993642807007,-9.780314445495605,1.1899182796478271,0.01463996060192585,0.0037265352439135313,-0.0023956298828125
2476403361537,1.3192051649093628,-9.771934509277344,1.213860273361206,0.01117960549890995,0.0071868896484375,-0.0026618109550327063
2476404598737,1.3227964639663696,-9.816226959228516,1.2282254695892334,0.010647243820130825,0.010114881210029125,0.0039927163161337376
2476405835925,1.334767460823059,-9.781511306762695,1.2018892765045166,0.010381062515079975,0.007985432632267475,0.005057440605014563
2476407073112,1.3215993642807007,-9.794679641723633,1.2294225692749023,0.007453070487827063,0.008783976547420025,0.0023956298828125
2476408310300,1.3108254671096802,-9.799468040466309,1.2653355598449707,0.006122165359556675,0.010647243820130825,0.0026618109550327063
2476409547487,1.335964560508728,-9.774328231811523,1.2413935661315918,0.0077192517928779125,0.008517795242369175,0.003460354171693325
2476410784675,1.3491326570510864,-9.768342971801758,1.2282254695892334,0.0071868896484375,0.008251613937318325,0.008251613937318325
2476412021850,1.3407529592514038,-9.793481826782227,1.2318167686462402,0.008251613937318325,0.00692070834338665,0.0071868896484375
2476413259037,1.358709454536438,-9.794679641723633,1.2006921768188477,0.010913425125181675,0.0063883461989462376,0.0031941730994731188
2476414496225,1.3551181554794312,-9.807847023010254,1.1815385818481445,0.0071868896484375,0.005855984054505825,0.005057440605014563
2476415733387,1.3706804513931274,-9.805453300476074,1.2198457717895508,0.00692070834338665,0.00984870083630085,0.004791259765625
2476416970600,1.3311761617660522,-9.791088104248047,1.2078747749328613,0.0066545275039970875,0.008783976547420025,0.005855984054505825
2476418207787,1.3227964639663696,-9.786299705505371,1.2030863761901855,0.006122165359556675,0.0039927163161337376,0.004791259765625
2476419444975,1.3323732614517212,-9.7791166305542,1.2102689743041992,0.0023956298828125,-0.0021294488105922937,0.0021294488105922937
2476420682150,1.3048399686813354,-9.815030097961426,1.1791443824768066,0.0042588976211845875,0.003460354171693325,0.004791259765625
2476421919362,1.3239935636520386,-9.80904483795166,1.1659762859344482,0.0053236219100654125,0.0090501569211483,0.0031941730994731188
2476423156525,1.338358759880066,-9.799468040466309,1.1971008777618408,0.005589802749454975,0.008783976547420025,0.007453070487827063
2476424393712,1.3982137441635132,-9.7791166305542,1.194706678390503,0.0042588976211845875,0.0042588976211845875,0.0090501569211483
2476425630887,1.3778630495071411,-9.805453300476074,1.2030863761901855,0.0031941730994731188,0.0013309054775163531,0.0114457868039608
2476426868075,1.3539210557937622,-9.759963035583496,1.1659762859344482,0.005589802749454975,-0.0002661811013240367,0.00984870083630085
2476428105275,1.3395558595657349,-9.767146110534668,1.1671733856201172,0.0018632676219567657,0.003460354171693325,0.0063883461989462376
2476429342475,1.3407529592514038,-9.806650161743164,1.1851298809051514,0.0,0.0007985432748682797,0.00958251953125
2476430579637,1.3467384576797485,-9.858125686645508,1.2318167686462402,0.0005323622026480734,0.0015970865497365594,0.0114457868039608
2476431816837,1.335964560508728,-9.821015357971191,1.2282254695892334,-0.0005323622026480734,-0.0010647244052961469,0.008517795242369175
2476433054025,1.3682862520217896,-9.785102844238281,1.2210428714752197,0.0007985432748682797,-0.003460354171693325,0.0114457868039608
2476434291212,1.3634978532791138,-9.837775230407715,1.213860273361206,0.0002661811013240367,0.0005323622026480734,0.01117960549890995
2476435528387,1.3623007535934448,-9.781511306762695,1.1743559837341309,0.007985432632267475,0.0005323622026480734,0.013042873702943325
2476436765575,1.3299790620803833,-9.792284965515137,1.2114660739898682,0.0010647244052961469,0.0029279920272529125,0.010647243820130825
2476438002762,1.3419500589370728,-9.794679641723633,1.2222399711608887,0.0023956298828125,0.0007985432748682797,0.0119781494140625
2476439239962,1.3443442583084106,-9.737218856811523,1.1743559837341309,-0.0007985432748682797,-0.0013309054775163531,0.008517795242369175
2476440477150,1.3694833517074585,-9.763554573059082,1.2246341705322266,-0.0013309054775163531,-0.0037265352439135313,0.0071868896484375
2476441714312,1.3886369466781616,-9.803058624267578,1.2653355598449707,-0.0029279920272529125,-0.0013309054775163531,0.01463996060192585
2476442951500,1.3694833517074585,-9.794679641723633,1.2006921768188477,-0.0037265352439135313,-0.0018632676219567657,0.010913425125181675
2476444188700,1.3479355573654175,-9.78869342803955,1.217451572418213,-0.005057440605014563,-0.004791259765625,0.01171196810901165
2476445425875,1.382651448249817,-9.795876502990723,1.1899182796478271,-0.005589802749454975,0.0021294488105922937,0.014373779296875
2476446663075,1.3862427473068237,-9.791088104248047,1.192312479019165,-0.0039927163161337376,0.004791259765625,0.010381062515079975
2476447900237,1.3515268564224243,-9.768342971801758,1.235408067703247,-0.0023956298828125,-0.0018632676219567657,0.012776692397892475
2476449137437,1.337161660194397,-9.782708168029785,1.2282254695892334,-0.0015970865497365594,-0.005589802749454975,0.014373779296875
2476450374612,1.3634978532791138,-9.786299705505371,1.2222399711608887,0.0005323622026480734,-0.0053236219100654125,0.010913425125181675
2476451611812,1.3623007535934448,-9.758766174316406,1.2030863761901855,-0.0042588976211845875,-0.008517795242369175,0.0063883461989462376
2476452849000,1.3527239561080933,-9.799468040466309,1.193509578704834,-0.0021294488105922937,-0.007453070487827063,0.004791259765625
2476454086175,1.335964560508728,-9.746795654296875,1.2186486721038818,0.0002661811013240367,-0.008517795242369175,0.01463996060192585
2476455323375,1.359906554222107,-9.801861763000488,1.2318167686462402,-0.005855984054505825,-0.0071868896484375,0.01650322787463665
2476456560537,1.3096283674240112,-9.798270225524902,1.2258312702178955,-0.0066545275039970875,-0.00931633822619915,0.010381062515079975
2476457797737,1.3670891523361206,-9.756372451782227,1.2114660739898682,-0.005057440605014563,-0.010381062515079975,0.012776692397892475
2476459034937,1.381454348564148,-9.774328231811523,1.1623849868774414,0.0002661811013240367,-0.0066545275039970875,0.012510511092841625
2476460272112,1.3275848627090454,-9.804256439208984,1.2234370708465576,0.0007985432748682797,-0.003460354171693325,0.0119781494140625
2476461509300,1.357512354850769,-9.744400978088379,1.192312479019165,-0.004791259765625,-0.0071868896484375,0.01117960549890995
2476462746500,1.3407529592514038,-9.730035781860352,1.1791443824768066,-0.0026618109550327063,-0.010647243820130825,0.00958251953125
2476463983662,1.2988544702529907,-9.799468040466309,1.193509578704834,-0.0005323622026480734,-0.012510511092841625,0.01357523538172245
2476465220862,1.3431471586227417,-9.750386238098145,1.2066776752471924,0.0018632676219567657,-0.00692070834338665,0.012510511092841625
2476466458037,1.3658920526504517,-9.738415718078613,1.2090718746185303,-0.0005323622026480734,-0.01171196810901165,0.01357523538172245
2476467695225,1.3479355573654175,-9.759963035583496,1.2198457717895508,-0.0042588976211845875,-0.012510511092841625,0.01650322787463665
2476468932412,1.3646949529647827,-9.789891242980957,1.2018892765045166,-0.0023956298828125,-0.005855984054505825,0.012510511092841625
2476470169600,1.3192051649093628,-9.750386238098145,1.2018892765045166,-0.007453070487827063,-0.013309055007994175,0.01224433071911335
2476471406787,1.3084312677383423,-9.745597839355469,1.2330138683319092,-0.0015970865497365594,-0.015172322280704975,0.0167694091796875
2476472643975,1.3335703611373901,-9.747992515563965,1.212663173675537,-0.0039927163161337376,-0.0162370465695858,0.01463996060192585
2476473881150,1.3287819623947144,-9.767146110534668,1.1982979774475098,-0.0042588976211845875,-0.0138414166867733,0.0157046839594841
2476475118350,1.3551181554794312,-9.761160850524902,1.2497732639312744,-0.0002661811013240367,-0.012510511092841625,0.01703559048473835
2476476355537,1.315613865852356,-9.769539833068848,1.2306196689605713,-0.005589802749454975,-0.0090501569211483,0.01410759799182415
2476477592700,1.3180080652236938,-9.7420072555542,1.2006921768188477,-0.005855984054505825,-0.01117960549890995,0.01463996060192585
2476478829900,1.3311761617660522,-9.731232643127441,1.1994950771331787,-0.0026618109550327063,-0.00958251953125,0.0114457868039608
2476480067087,1.357512354850769,-9.77791976928711,1.192312479019165,-0.0026618109550327063,-0.008783976547420025,0.00984870083630085
2476481304262,1.3192051649093628,-9.756372451782227,1.1971008777618408,0.0002661811013240367,-0.01224433071911335,0.013042873702943325
2476482541450,1.3682862520217896,-9.720458984375,1.2198457717895508,-0.0002661811013240367,-0.0114457868039608,0.013042873702943325
2476483778637,1.3431471586227417,-9.75278091430664,1.2401964664459229,-0.0026618109550327063,-0.01117960549890995,0.01463996060192585
2476485015837,1.3503297567367554,-9.734824180603027,1.2342109680175781,-0.003460354171693325,-0.00958251953125,0.01117960549890995
2476486253037,1.3563152551651,-9.724050521850586,1.2090718746185303,-0.006122165359556675,-0.010647243820130825,0.014373779296875
2476487490212,1.3419500589370728,-9.725247383117676,1.2330138683319092,-0.008783976547420025,-0.0114457868039608,0.0167694091796875
2476488727387,1.3227964639663696,-9.71926212310791,1.2198457717895508,-0.0013309054775163531,-0.01171196810901165,0.013042873702943325
2476489964575,1.3263877630233765,-9.72285270690918,1.173158884048462,0.0007985432748682797,-0.01224433071911335,0.00958251953125
2476491201762,1.3419500589370728,-9.745597839355469,1.2006921768188477,-0.0031941730994731188,-0.0138414166867733,0.0173017717897892
2476492438950,1.3479355573654175,-9.72165584564209,1.2413935661315918,-0.0031941730994731188,-0.0138414166867733,0.010913425125181675
2476493676137,1.3275848627090454,-9.72285270690918,1.2186486721038818,-0.0071868896484375,-0.014906140975654125,0.01171196810901165
2476494913337,1.3443442583084106,-9.737218856811523,1.216254472732544,-0.0029279920272529125,-0.01756795309484005,0.008517795242369175
2476496150512,1.3407529592514038,-9.762357711791992,1.2186486721038818,0.0005323622026480734,-0.01836649514734745,0.010913425125181675
2476497387712,1.2892776727676392,-9.746795654296875,1.1887211799621582,-0.0063883461989462376,-0.01597086526453495,0.014373779296875
2476498624887,1.3335703611373901,-9.724050521850586,1.2234370708465576,0.0002661811013240367,-0.014906140975654125,0.0173017717897892
2476499862075,1.2964602708816528,-9.769539833068848,1.236605167388916,-0.0005323622026480734,-0.015172322280704975,0.013042873702943325
2476501099250,1.2689268589019775,-9.770737648010254,1.2306196689605713,-0.0023956298828125,-0.0162370465695858,0.008783976547420025
2476502336450,1.3204022645950317,-9.780314445495605,1.191115379333496,-0.0026618109550327063,-0.01756795309484005,0.00931633822619915
2476503573612,1.3204022645950317,-9.764751434326172,1.2306196689605713,-0.0042588976211845875,-0.0167694091796875,0.013042873702943325
2476504810812,1.2689268589019775,-9.786299705505371,1.1875240802764893,-0.0018632676219567657,-0.01783413253724575,0.0157046839594841
2476506048012,1.3036428689956665,-9.762357711791992,1.2078747749328613,-0.0015970865497365594,-0.010381062515079975,0.014906140975654125
2476507285187,1.291671872138977,-9.763554573059082,1.213860273361206,-0.0023956298828125,-0.00958251953125,0.013309055007994175
2476508522375,1.3024457693099976,-9.805453300476074,1.259350061416626,-0.0037265352439135313,-0.0138414166867733,0.01756795309484005
2476509759575,1.3467384576797485,-9.799468040466309,1.2102689743041992,-0.0029279920272529125,-0.012776692397892475,0.01756795309484005
2476510996750,1.3299790620803833,-9.829395294189453,1.2054805755615234,-0.0031941730994731188,-0.014373779296875,0.010381062515079975
2476512233925,1.315613865852356,-9.77791976928711,1.2054805755615234,-0.0010647244052961469,-0.0119781494140625,0.012776692397892475
2476513471125,1.3299790620803833,-9.727641105651855,1.2330138683319092,0.0,-0.015438503585755825,0.014373779296875
2476514708300,1.3084312677383423,-9.767146110534668,1.193509578704834,-0.00452507846057415,-0.015438503585755825,0.012776692397892475
2476515945500,1.2892776727676392,-9.7791166305542,1.1971008777618408,-0.004791259765625,-0.0162370465695858,0.0114457868039608
2476517182662,1.3120225667953491,-9.72165584564209,1.2102689743041992,-0.0021294488105922937,-0.0119781494140625,0.01783413253724575
2476518419850,1.3299790620803833,-9.765949249267578,1.2102689743041992,-0.0042588976211845875,-0.01171196810901165,0.01650322787463665
2476519657062,1.291671872138977,-9.75397777557373,1.216254472732544,-0.0029279920272529125,-0.01171196810901165,0.0191650390625
2476520894225,1.3024457693099976,-9.759963035583496,1.192312479019165,-0.003460354171693325,-0.008783976547420025,0.01756795309484005
2476522131412,1.3323732614517212,-9.75397777557373,1.2078747749328613,-0.0018632676219567657,-0.012776692397892475,0.0119781494140625
2476523368600,1.3072341680526733,-9.713275909423828,1.1755530834197998,-0.0037265352439135313,-0.013309055007994175,0.01597086526453495
2476524605800,1.2808979749679565,-9.738415718078613,1.1815385818481445,-0.008251613937318325,-0.01357523538172245,0.0167694091796875
2476525842987,1.290474772453308,-9.746795654296875,1.194706678390503,-0.0029279920272529125,-0.010114881210029125,0.014906140975654125
2476527080150,1.290474772453308,-9.756372451782227,1.193509578704834,0.0002661811013240367,-0.0157046839594841,0.01357523538172245
2476528317362,1.2665326595306396,-9.724050521850586,1.1755530834197998,-0.0015970865497365594,-0.01357523538172245,0.01943122036755085
2476529554537,1.2868834733963013,-9.733627319335938,1.212663173675537,-0.0002661811013240367,-0.008251613937318325,0.01703559048473835
2476530791725,1.2868834733963013,-9.715670585632324,1.2461819648742676,-0.0023956298828125,-0.0090501569211483,0.010913425125181675
2476532028925,1.3000515699386597,-9.734824180603027,1.1803414821624756,-0.0023956298828125,-0.01117960549890995,0.012510511092841625
2476533266112,1.2545616626739502,-9.750386238098145,1.2030863761901855,-0.0026618109550327063,-0.010381062515079975,0.01224433071911335
2476534503287,1.2629413604736328,-9.75397777557373,1.217451572418213,-0.005855984054505825,-0.010913425125181675,0.01410759799182415
2476535740462,1.260547161102295,-9.738415718078613,1.212663173675537,-0.0042588976211845875,-0.0114457868039608,0.010913425125181675
2476536977662,1.258152961730957,-9.71926212310791,1.2102689743041992,-0.0018632676219567657,-0.0114457868039608,0.01410759799182415
2476538214850,1.2976573705673218,-9.765949249267578,1.1994950771331787,-0.00452507846057415,-0.00692070834338665,0.01703559048473835
2476539452025,1.3060370683670044,-9.738415718078613,1.1791443824768066,-0.0010647244052961469,-0.008251613937318325,0.01224433071911335
2476540689212,1.2701239585876465,-9.75517463684082,1.217451572418213,0.0029279920272529125,-0.013042873702943325,0.014906140975654125
2476541926400,1.260547161102295,-9.743204116821289,1.1887211799621582,-0.0018632676219567657,-0.0119781494140625,0.015172322280704975
2476543163600,1.3000515699386597,-9.714473724365234,1.1635820865631104,-0.0077192517928779125,-0.0018632676219567657,0.0119781494140625
2476544400787,1.259350061416626,-9.713275909423828,1.2282254695892334,-0.005855984054505825,-0.00692070834338665,0.0157046839594841
2476545637962,1.2689268589019775,-9.740809440612793,1.2665326595306396,-0.005589802749454975,-0.00958251953125,0.0119781494140625
2476546875137,1.2749123573303223,-9.733627319335938,1.1863269805908203,-0.0042588976211845875,-0.006122165359556675,0.010647243820130825
