timestamp_ns,accel_x,accel_y,accel_z,gyro_x,gyro_y,gyro_z
18819347927625,0.05386953800916672,-9.8784761428833,-0.11971008777618408,0.005589802749454975,0.0300784632563591,-0.02129448764026165
18819349164762,0.08140286058187485,-9.889249801635742,-0.1256955862045288,0.005057440605014563,0.038063894957304,-0.02315775491297245
18819350401875,0.07302315533161163,-9.874884605407715,-0.1388636976480484,0.01117960549890995,0.0369991734623909,-0.01756795309484005
18819351639012,0.10893617570400238,-9.906009674072266,-0.11013327538967133,0.01117960549890995,0.0364668108522892,-0.0234239362180233
18819352876137,0.0933738648891449,-9.876082420349121,-0.14365209639072418,0.0063883461989462376,0.0356682650744915,-0.0223592109978199
18819354113275,0.06823474913835526,-9.841365814208984,-0.1041477769613266,0.008251613937318325,0.0362006276845932,-0.0191650390625
18819355350412,0.0454898327589035,-9.861717224121094,-0.13407529890537262,0.010114881210029125,0.033272635191679,-0.0173017717897892
18819356587525,0.0694318488240242,-9.888052940368652,-0.09696517139673233,0.008517795242369175,0.0364668108522892,-0.0215606689453125
18819357824650,0.05626374110579491,-9.8784761428833,-0.11252748221158981,0.008251613937318325,0.043121337890625,-0.0223592109978199
18819359061787,0.06464345008134842,-9.910798072814941,-0.11971008777618408,0.008783976547420025,0.0399271659553051,-0.0204959437251091
18819360298925,0.0694318488240242,-9.8784761428833,-0.152031809091568,0.0066545275039970875,0.0412580706179142,-0.0210283063352108
18819361536037,0.05267243832349777,-9.888052940368652,-0.16400282084941864,0.005057440605014563,0.038330078125,-0.02076212503015995
18819362773175,0.08379705995321274,-9.862914085388184,-0.12928690016269684,0.0090501569211483,0.0351359061896801,-0.0191650390625
18819364010312,0.04668693244457245,-9.865307807922363,-0.1364694982767105,0.005057440605014563,0.0393948033452034,-0.0268842913210392
18819365247437,0.08259996026754379,-9.894038200378418,-0.10893617570400238,0.0039927163161337376,0.043121337890625,-0.0234239362180233
18819366484562,0.08619125932455063,-9.886856079101562,-0.12449848651885986,0.007453070487827063,0.0444522425532341,-0.02129448764026165
18819367721687,0.11971008777618408,-9.885659217834473,-0.152031809091568,0.008517795242369175,0.0457831472158432,-0.02422248013317585
18819368958825,0.05267243832349777,-9.929951667785645,-0.10295067727565765,0.0031941730994731188,0.0436537005007267,-0.0196974016726017
18819370195937,0.06703764945268631,-9.890447616577148,-0.11013327538967133,0.007453070487827063,0.0415242500603199,-0.02315775491297245
18819371433075,0.0586579404771328,-9.923966407775879,-0.11971008777618408,0.007453070487827063,0.0457831472158432,-0.02422248013317585
18819372670200,0.0694318488240242,-9.864110946655273,-0.13766659796237946,0.0071868896484375,0.0455169677734375,-0.01943122036755085
18819373907350,0.11013327538967133,-9.876082420349121,-0.1388636976480484,0.0018632676219567657,0.0452507846057415,-0.0244886614382267
18819375144475,0.09217676520347595,-9.927556991577148,-0.1041477769613266,-0.0005323622026480734,0.04791259765625,-0.0223592109978199
18819376381600,0.09217676520347595,-9.911994934082031,-0.1149216815829277,-0.00452507846057415,0.0481787770986557,-0.02555338479578495
18819377618737,0.07182604819536209,-9.913191795349121,-0.08738835901021957,0.0010647244052961469,0.0463155098259449,-0.02369011752307415
18819378855862,0.0933738648891449,-9.90122127532959,-0.1472434103488922,0.0018632676219567657,0.0439198799431324,-0.0210283063352108
18819380093000,0.07900865375995636,-9.90122127532959,-0.14006079733371735,-0.0015970865497365594,0.0529700368642807,-0.02076212503015995
18819381330112,0.043095629662275314,-9.891644477844238,-0.1173158809542656,-0.0026618109550327063,0.0540347620844841,-0.0210283063352108
18819382567225,0.05267243832349777,-9.8784761428833,-0.13407529890537262,0.0018632676219567657,0.0513729527592659,-0.0223592109978199
18819383804375,0.0694318488240242,-9.876082420349121,-0.15442600846290588,0.0023956298828125,0.0516391322016716,-0.0228915736079216
18819385041512,0.10055647045373917,-9.915586471557617,-0.12330138683319092,-0.0026618109550327063,0.0489773228764534,-0.02369011752307415
18819386278612,0.090979665517807,-9.850942611694336,-0.1604115217924118,0.0,0.0521714948117733,-0.02369011752307415
18819387515750,0.07422025501728058,-9.872490882873535,-0.09457096457481384,-0.004791259765625,0.0543009415268898,-0.02315775491297245
18819388752887,0.13048399984836578,-9.886856079101562,-0.08978256583213806,-0.0053236219100654125,0.0569627545773983,-0.02741665206849575
18819389990025,0.11252748221158981,-9.856928825378418,-0.16400282084941864,0.0010647244052961469,0.0529700368642807,-0.0258195661008358
18819391227137,0.07661445438861847,-9.891644477844238,-0.1256955862045288,-0.0010647244052961469,0.0535023994743824,-0.02315775491297245
18819392464262,0.12689268589019775,-9.898826599121094,-0.13766659796237946,-0.0037265352439135313,0.0537685826420784,-0.02661811001598835
18819393701412,0.09576807171106339,-9.841365814208984,-0.12330138683319092,-0.0031941730994731188,0.0535023994743824,-0.02981228195130825
18819394938550,0.02992752194404602,-9.864110946655273,-0.1472434103488922,-0.0013309054775163531,0.0569627545773983,-0.02555338479578495
18819396175662,0.10055647045373917,-9.862914085388184,-0.10055647045373917,-0.0037265352439135313,0.0580274797976017,-0.0234239362180233
18819397412800,0.09576807171106339,-9.841365814208984,-0.16519992053508759,-0.0026618109550327063,0.0561642125248909,-0.0244886614382267
18819398649937,0.08619125932455063,-9.864110946655273,-0.1041477769613266,-0.0010647244052961469,0.0596245639026165,-0.02741665206849575
18819399887050,0.1173158809542656,-9.890447616577148,-0.12928690016269684,-0.0005323622026480734,0.0590922012925148,-0.0292799212038517
18819401124187,0.10893617570400238,-9.864110946655273,-0.1472434103488922,-0.0037265352439135313,0.0606892891228199,-0.0268842913210392
18819402361312,0.08259996026754379,-9.883264541625977,-0.14365209639072418,-0.0053236219100654125,0.0636172816157341,-0.0300784632563591
18819403598437,0.08619125932455063,-9.84256362915039,-0.1280897855758667,-0.0077192517928779125,0.0596245639026165,-0.0319417305290699
18819404835550,0.10773907601833344,-9.884461402893066,-0.13527239859104156,-0.0042588976211845875,0.0582936592400074,-0.02794901467859745
18819406072700,0.06584054976701736,-9.873687744140625,-0.15682020783424377,-0.007453070487827063,0.0609554722905159,-0.0295461006462574
18819407309812,0.08379705995321274,-9.870096206665039,-0.17836803197860718,-0.0021294488105922937,0.0614878311753273,-0.02608574740588665
18819408546950,0.09935937076807022,-9.859322547912598,-0.15562310814857483,-0.0013309054775163531,0.0638834610581398,-0.0276828333735466
18819409784087,0.10893617570400238,-9.860519409179688,-0.12449848651885986,-0.0039927163161337376,0.0646820068359375,-0.0292799212038517
18819411021212,0.11611878126859665,-9.840168952941895,-0.14365209639072418,-0.005855984054505825,0.062020193785429,-0.0268842913210392
18819412258325,0.15083470940589905,-9.864110946655273,-0.19153614342212677,-0.0053236219100654125,0.0646820068359375,-0.02741665206849575
18819413495450,0.13527239859104156,-9.848548889160156,-0.14604631066322327,-0.0071868896484375,0.0630849227309227,-0.0263519287109375
18819414732587,0.08379705995321274,-9.862914085388184,-0.13048399984836578,0.0005323622026480734,0.0540347620844841,-0.0244886614382267
18819415969725,0.090979665517807,-9.84256362915039,-0.13407529890537262,-0.003460354171693325,0.062020193785429,-0.0220930315554142
18819417206862,0.1472434103488922,-9.831789016723633,-0.15562310814857483,-0.0010647244052961469,0.0705379918217659,-0.0327402763068676
18819418443962,0.152031809091568,-9.888052940368652,-0.16639702022075653,-0.0026618109550327063,0.0676099956035614,-0.0322079136967659
18819419681100,0.13527239859104156,-9.856928825378418,-0.1711854189634323,-0.0039927163161337376,0.0660129114985466,-0.0340711809694767
18819420918237,0.1149216815829277,-9.859322547912598,-0.13287819921970367,-0.0042588976211845875,0.0676099956035614,-0.0330064557492733
18819422155362,0.13527239859104156,-9.835380554199219,-0.16400282084941864,-0.0010647244052961469,0.0644158273935318,-0.0258195661008358
18819423392487,0.10055647045373917,-9.897629737854004,-0.1412578970193863,-0.0007985432748682797,0.0641496405005455,-0.0271504707634449
18819424629637,0.15921440720558167,-9.870096206665039,-0.09217676520347595,0.0037265352439135313,0.0612216517329216,-0.0252872034907341
18819425866750,0.14604631066322327,-9.835380554199219,-0.14484921097755432,-0.003460354171693325,0.0617540143430233,-0.0276828333735466
18819427103875,0.15322890877723694,-9.813833236694336,-0.13168109953403473,-0.0026618109550327063,0.0676099956035614,-0.0244886614382267
18819428341012,0.10773907601833344,-9.798270225524902,-0.16160862147808075,-0.006122165359556675,0.0646820068359375,-0.02262539230287075
18819429578150,0.13407529890537262,-9.81263542175293,-0.17238251864910126,-0.0023956298828125,0.0641496405005455,-0.0247548408806324
18819430815287,0.15801730751991272,-9.806650161743164,-0.18076223134994507,0.0021294488105922937,0.066545270383358,-0.02608574740588665
18819432052400,0.20231004059314728,-9.840168952941895,-0.13287819921970367,0.0,0.062286376953125,-0.0252872034907341
18819433289537,0.18555063009262085,-9.781511306762695,-0.14604631066322327,-0.0007985432748682797,0.0654805526137352,-0.0244886614382267
18819434526650,0.11133038252592087,-9.829395294189453,-0.10893617570400238,-0.0021294488105922937,0.0660129114985466,-0.02661811001598835
18819435763787,0.16639702022075653,-9.821015357971191,-0.152031809091568,0.0021294488105922937,0.0625525563955307,-0.0223592109978199
18819437000925,0.16879121959209442,-9.789891242980957,-0.14604631066322327,0.0026618109550327063,0.0678761824965477,-0.02022976242005825
18819438238062,0.17477671802043915,-9.787496566772461,-0.1472434103488922,0.0015970865497365594,0.0660129114985466,-0.0306108258664608
18819439475175,0.14844051003456116,-9.77791976928711,-0.17717093229293823,0.0013309054775163531,0.0652143657207489,-0.02422248013317585
18819440712312,0.1388636976480484,-9.783905029296875,-0.1759738326072693,0.005855984054505825,0.0657467320561409,-0.0186326764523983
18819441949437,0.16759411990642548,-9.773131370544434,-0.152031809091568,0.0042588976211845875,0.0617540143430233,-0.0247548408806324
18819443186575,0.18914192914962769,-9.764751434326172,-0.12330138683319092,0.0018632676219567657,0.0681423619389534,-0.0263519287109375
18819444423687,0.16879121959209442,-9.81263542175293,-0.18555063009262085,0.00931633822619915,0.0657467320561409,-0.02182685025036335
18819445660812,0.1711854189634323,-9.767146110534668,-0.1735796183347702,0.005589802749454975,0.062286376953125,-0.0204959437251091
18819446897962,0.17717093229293823,-9.798270225524902,-0.1843535304069519,0.00452507846057415,0.0689409002661705,-0.02129448764026165
18819448135087,0.17238251864910126,-9.77552604675293,-0.152031809091568,0.010114881210029125,0.06707763671875,-0.02182685025036335
18819449372200,0.18315643072128296,-9.825803756713867,-0.17238251864910126,0.01171196810901165,0.062020193785429,-0.02076212503015995
18819450609337,0.181959331035614,-9.767146110534668,-0.15083470940589905,0.012510511092841625,0.0649481862783432,-0.01597086526453495
18819451846475,0.2190694510936737,-9.80904483795166,-0.13527239859104156,0.013042873702943325,0.0641496405005455,-0.0157046839594841
18819453083612,0.18914192914962769,-9.801861763000488,-0.15442600846290588,0.01357523538172245,0.0686747208237648,-0.01783413253724575
18819454320737,0.17836803197860718,-9.761160850524902,-0.1604115217924118,0.01410759799182415,0.0657467320561409,-0.0186326764523983
18819455557850,0.2059013545513153,-9.773131370544434,-0.15442600846290588,0.014373779296875,0.0612216517329216,-0.01996358297765255
18819456794987,0.2513911724090576,-9.783905029296875,-0.14245499670505524,0.01703559048473835,0.0649481862783432,-0.01463996060192585
18819458032137,0.21308395266532898,-9.782708168029785,-0.14365209639072418,0.0181003138422966,0.066545270383358,-0.01703559048473835
18819459269237,0.2059013545513153,-9.799468040466309,-0.14604631066322327,0.012776692397892475,0.0668114572763443,-0.0191650390625
18819460506362,0.1999158412218094,-9.769539833068848,-0.10654197633266449,0.013042873702943325,0.0649481862783432,-0.0186326764523983
18819461743525,0.1604115217924118,-9.800664901733398,-0.10654197633266449,0.01597086526453495,0.0681423619389534,-0.01597086526453495
18819462980637,0.15921440720558167,-9.767146110534668,-0.14006079733371735,0.01650322787463665,0.06707763671875,-0.02076212503015995
18819464217775,0.14365209639072418,-9.780314445495605,-0.14365209639072418,0.014373779296875,0.0684085413813591,-0.02022976242005825
18819465454887,0.16879121959209442,-9.803058624267578,-0.18315643072128296,0.0167694091796875,0.0630849227309227,-0.02076212503015995
18819466692025,0.17956513166427612,-9.747992515563965,-0.17717093229293823,0.0210283063352108,0.0628187358379364,-0.0196974016726017
18819467929150,0.1604115217924118,-9.798270225524902,-0.1388636976480484,0.0252872034907341,0.062020193785429,-0.01703559048473835
18819469166275,0.1388636976480484,-9.787496566772461,-0.1999158412218094,0.0191650390625,0.0636172816157341,-0.01357523538172245
18819470403412,0.1173158809542656,-9.768342971801758,-0.17836803197860718,0.01889885775744915,0.0625525563955307,-0.0215606689453125
18819471640550,0.11851298809051514,-9.761160850524902,-0.19632454216480255,0.02422248013317585,0.0609554722905159,-0.0173017717897892
18819472877662,0.1867477297782898,-9.799468040466309,-0.19153614342212677,0.0252872034907341,0.0614878311753273,-0.014906140975654125
18819474114787,0.1975216418504715,-9.793481826782227,-0.16879121959209442,0.02422248013317585,0.0566965714097023,-0.01703559048473835
18819475351925,0.20470423996448517,-9.818621635437012,-0.19273324310779572,0.0234239362180233,0.06707763671875,-0.0210283063352108
18819476589062,0.15562310814857483,-9.853337287902832,-0.15562310814857483,0.0282151959836483,0.0646820068359375,-0.012776692397892475
18819477826162,0.21428105235099792,-9.793481826782227,-0.11611878126859665,0.0263519287109375,0.0593583844602108,-0.012776692397892475
18819479063312,0.18794482946395874,-9.81143856048584,-0.1628057211637497,0.02555338479578495,0.0628187358379364,-0.0077192517928779125
18819480300450,0.19632454216480255,-9.81263542175293,-0.152031809091568,0.02182685025036335,0.0630849227309227,-0.012510511092841625
18819481537587,0.1951274424791336,-9.81263542175293,-0.19153614342212677,0.02422248013317585,0.0582936592400074,-0.01783413253724575
18819482774687,0.20231004059314728,-9.795876502990723,-0.14245499670505524,0.0295461006462574,0.0596245639026165,-0.0173017717897892
18819484011825,0.1759738326072693,-9.803058624267578,-0.1496376097202301,0.0234239362180233,0.0590922012925148,-0.0162370465695858
18819485248950,0.16998831927776337,-9.84256362915039,-0.15083470940589905,0.02502102218568325,0.0566965714097023,-0.014373779296875
18819486486087,0.21188685297966003,-9.872490882873535,-0.16639702022075653,0.0343373604118824,0.0574951171875,-0.014373779296875
18819487723212,0.16400282084941864,-9.871294021606445,-0.181959331035614,0.02901373989880085,0.0596245639026165,-0.015438503585755825
18819488960337,0.14844051003456116,-9.84615421295166,-0.19871874153614044,0.02502102218568325,0.0633511021733284,-0.01224433071911335
18819490197462,0.1496376097202301,-9.862914085388184,-0.17238251864910126,0.0252872034907341,0.0638834610581398,-0.015172322280704975
18819491434587,0.14006079733371735,-9.885659217834473,-0.16400282084941864,0.02608574740588665,0.0577612966299057,-0.010114881210029125
18819492671750,0.13287819921970367,-9.840168952941895,-0.15562310814857483,0.02555338479578495,0.0612216517329216,-0.008251613937318325
18819493908862,0.1711854189634323,-9.859322547912598,-0.14844051003456116,0.02981228195130825,0.0598907470703125,-0.007985432632267475
18819495145987,0.15801730751991272,-9.81024169921875,-0.1711854189634323,0.0300784632563591,0.0566965714097023,-0.010647243820130825
18819496383112,0.20350714027881622,-9.832986831665039,-0.2106897532939911,0.02608574740588665,0.0569627545773983,-0.01171196810901165
18819497620262,0.181959331035614,-9.847352027893066,-0.14604631066322327,0.0292799212038517,0.0577612966299057,-0.0090501569211483
18819498857375,0.15083470940589905,-9.847352027893066,-0.15442600846290588,0.0263519287109375,0.0561642125248909,-0.008783976547420025
18819500094512,0.18315643072128296,-9.872490882873535,-0.17717093229293823,0.0276828333735466,0.0558980293571949,-0.0042588976211845875
18819501331637,0.14484921097755432,-9.859322547912598,-0.19393034279346466,0.0276828333735466,0.0580274797976017,-0.005589802749454975
18819502568762,0.17836803197860718,-9.864110946655273,-0.17956513166427612,0.03034464456140995,0.0644158273935318,-0.005057440605014563
18819503805900,0.14604631066322327,-9.852140426635742,-0.14006079733371735,0.0324740931391716,0.0606892891228199,0.0007985432748682797
18819505043025,0.15083470940589905,-9.877279281616211,-0.16400282084941864,0.0324740931391716,0.0585598424077034,-0.0031941730994731188
18819506280162,0.16160862147808075,-9.848548889160156,-0.1604115217924118,0.03034464456140995,0.0569627545773983,-0.0026618109550327063
18819507517275,0.14245499670505524,-9.853337287902832,-0.1496376097202301,0.0322079136967659,0.0519053116440773,-0.0029279920272529125
18819508754412,0.1843535304069519,-9.874884605407715,-0.1604115217924118,0.0311431884765625,0.0582936592400074,-0.0023956298828125
18819509991537,0.16519992053508759,-9.824606895446777,-0.12210428714752197,0.03034464456140995,0.0590922012925148,-0.004791259765625
18819511228675,0.17238251864910126,-9.870096206665039,-0.14006079733371735,0.033272635191679,0.0580274797976017,-0.0039927163161337376
18819512465800,0.19871874153614044,-9.876082420349121,-0.15562310814857483,0.02874755859375,0.0561642125248909,-0.0018632676219567657
18819513702937,0.2082955539226532,-9.876082420349121,-0.1843535304069519,0.0295461006462574,0.0508405901491642,0.0018632676219567657
18819514940062,0.15442600846290588,-9.90361499786377,-0.18555063009262085,0.0327402763068676,0.0519053116440773,0.005855984054505825
18819516177175,0.18794482946395874,-9.84256362915039,-0.16160862147808075,0.03034464456140995,0.0529700368642807,0.0023956298828125
18819517414300,0.20350714027881622,-9.829395294189453,-0.15442600846290588,0.0319417305290699,0.0505744069814682,0.0007985432748682797
18819518651437,0.21428105235099792,-9.830592155456543,-0.1173158809542656,0.0319417305290699,0.0598907470703125,0.0021294488105922937
18819519888575,0.16759411990642548,-9.855731010437012,-0.1149216815829277,0.02901373989880085,0.0521714948117733,0.0026618109550327063
18819521125712,0.17717093229293823,-9.864110946655273,-0.181959331035614,0.0311431884765625,0.0519053116440773,0.0039927163161337376
18819522362837,0.16759411990642548,-9.797073364257812,-0.16400282084941864,0.02981228195130825,0.0516391322016716,0.0015970865497365594
18819523599962,0.1951274424791336,-9.84495735168457,-0.17836803197860718,0.02901373989880085,0.0505744069814682,0.0023956298828125
18819524837087,0.1628057211637497,-9.872490882873535,-0.1149216815829277,0.0316755510866642,0.0463155098259449,0.0066545275039970875
18819526074237,0.19273324310779572,-9.853337287902832,-0.1496376097202301,0.03087700717151165,0.0465816929936409,0.004791259765625
18819527311350,0.19393034279346466,-9.840168952941895,-0.16879121959209442,0.0306108258664608,0.0492435023188591,0.0077192517928779125
18819528548475,0.2298433631658554,-9.837775230407715,-0.13527239859104156,0.03034464456140995,0.0457831472158432,0.008517795242369175
18819529785612,0.18794482946395874,-9.864110946655273,-0.12928690016269684,0.0268842913210392,0.0503082275390625,0.0114457868039608
18819531022725,0.1867477297782898,-9.838972091674805,-0.14245499670505524,0.02794901467859745,0.0481787770986557,0.007453070487827063
18819532259875,0.16879121959209442,-9.872490882873535,-0.1412578970193863,0.0324740931391716,0.0447184219956398,0.010647243820130825
18819533497000,0.18794482946395874,-9.822212219238281,-0.181959331035614,0.02369011752307415,0.0460493303835392,0.01463996060192585
18819534734137,0.21188685297966003,-9.84376049041748,-0.14604631066322327,0.02874755859375,0.0468478724360466,0.010381062515079975
18819535971275,0.1496376097202301,-9.864110946655273,-0.13766659796237946,0.0330064557492733,0.0463155098259449,0.010647243820130825
18819537208387,0.11851298809051514,-9.854534149169922,-0.10295067727565765,0.0306108258664608,0.0417904332280159,0.010647243820130825
18819538445512,0.16639702022075653,-9.825803756713867,-0.14844051003456116,0.03087700717151165,0.0415242500603199,0.00958251953125
18819539682637,0.1735796183347702,-9.831789016723633,-0.16879121959209442,0.03087700717151165,0.0407257080078125,0.010647243820130825
18819540919800,0.20111294090747833,-9.847352027893066,-0.14365209639072418,0.02981228195130825,0.0420566126704216,0.010381062515079975
18819542156912,0.22385786473751068,-9.864110946655273,-0.14365209639072418,0.0322079136967659,0.0393948033452034,0.013042873702943325
18819543394037,0.18076223134994507,-9.872490882873535,-0.09217676520347595,0.0340711809694767,0.0343373604118824,0.01650322787463665
18819544631162,0.2082955539226532,-9.861717224121094,-0.12449848651885986,0.0319417305290699,0.038330078125,0.01597086526453495
18819545868287,0.2059013545513153,-9.86770248413086,-0.18914192914962769,0.0282151959836483,0.043121337890625,0.015172322280704975
18819547105400,0.18076223134994507,-9.831789016723633,-0.14245499670505524,0.02901373989880085,0.0399271659553051,0.014373779296875
18819548342562,0.152031809091568,-9.90241813659668,-0.14484921097755432,0.0327402763068676,0.0393948033452034,0.0114457868039608
18819549579675,0.21188685297966003,-9.885659217834473,-0.1173158809542656,0.02741665206849575,0.0396609827876091,0.010913425125181675
18819550816787,0.1759738326072693,-9.86770248413086,-0.152031809091568,0.0319417305290699,0.0377977155148983,0.014373779296875
18819552053937,0.1472434103488922,-9.859322547912598,-0.11372458189725876,0.0346035435795784,0.038063894957304,0.0114457868039608
18819553291075,0.1867477297782898,-9.859322547912598,-0.12928690016269684,0.0319417305290699,0.0385962575674057,0.010647243820130825
18819554528187,0.17836803197860718,-9.90241813659668,-0.09816227108240128,0.02981228195130825,0.0401933453977108,0.010647243820130825
18819555765337,0.2106897532939911,-9.818621635437012,-0.15801730751991272,0.0330064557492733,0.0377977155148983,0.00958251953125
18819557002462,0.1604115217924118,-9.81263542175293,-0.1388636976480484,0.0351359061896801,0.0364668108522892,0.01117960549890995
18819558239575,0.1472434103488922,-9.828198432922363,-0.1364694982767105,0.0340711809694767,0.03087700717151165,0.010381062515079975
18819559476700,0.1951274424791336,-9.840168952941895,-0.13766659796237946,0.0324740931391716,0.0385962575674057,0.006122165359556675
18819560713837,0.20350714027881622,-9.827000617980957,-0.12210428714752197,0.03087700717151165,0.0375315360724926,0.010381062515079975
18819561950975,0.17477671802043915,-9.855731010437012,-0.1412578970193863,0.03087700717151165,0.0362006276845932,0.010381062515079975
18819563188100,0.1711854189634323,-9.853337287902832,-0.090979665517807,0.0351359061896801,0.0338049978017807,0.0077192517928779125
18819564425212,0.20231004059314728,-9.84256362915039,-0.13048399984836578,0.0385962575674057,0.0330064557492733,0.0071868896484375
18819565662337,0.1951274424791336,-9.825803756713867,-0.08978256583213806,0.02874755859375,0.0338049978017807,0.0077192517928779125
18819566899487,0.181959331035614,-9.841365814208984,-0.1256955862045288,0.03087700717151165,0.0356682650744915,0.010381062515079975
18819568136612,0.20231004059314728,-9.838972091674805,-0.10175357013940811,0.0359344482421875,0.0324740931391716,0.007985432632267475
18819569373737,0.17238251864910126,-9.821015357971191,-0.1149216815829277,0.0306108258664608,0.0348697230219841,0.007985432632267475
18819570610887,0.15682020783424377,-9.822212219238281,-0.10654197633266449,0.0324740931391716,0.0330064557492733,0.0053236219100654125
18819571847987,0.16519992053508759,-9.859322547912598,-0.14365209639072418,0.0330064557492733,0.03034464456140995,0.005589802749454975
18819573085150,0.18076223134994507,-9.840168952941895,-0.10893617570400238,0.0311431884765625,0.02874755859375,0.010381062515079975
18819574322275,0.1735796183347702,-9.853337287902832,-0.08259996026754379,0.0343373604118824,0.03087700717151165,0.007985432632267475
18819575559400,0.12928690016269684,-9.84376049041748,-0.07781155407428741,0.0354020856320858,0.02874755859375,0.004791259765625
18819576796525,0.1472434103488922,-9.877279281616211,-0.08379705995321274,0.0377977155148983,0.02981228195130825,0.005855984054505825
18819578033662,0.14006079733371735,-9.821015357971191,-0.09816227108240128,0.0375315360724926,0.0271504707634449,0.008517795242369175
18819579270787,0.15801730751991272,-9.828198432922363,-0.08738835901021957,0.0330064557492733,0.0247548408806324,0.004791259765625
18819580507912,0.17238251864910126,-9.834183692932129,-0.08738835901021957,0.0324740931391716,0.02874755859375,0.0010647244052961469
18819581745037,0.17717093229293823,-9.819818496704102,-0.06344634294509888,0.033538818359375,0.02502102218568325,0.00931633822619915
18819582982187,0.13766659796237946,-9.855731010437012,-0.10055647045373917,0.0359344482421875,0.0244886614382267,0.005855984054505825
18819584219312,0.1149216815829277,-9.84256362915039,-0.0933738648891449,0.033272635191679,0.0324740931391716,0.0031941730994731188
18819585456425,0.15083470940589905,-9.818621635437012,-0.09457096457481384,0.0322079136967659,0.0314093679189682,0.0015970865497365594
18819586693575,0.1412578970193863,-9.84376049041748,-0.10175357013940811,0.0393948033452034,0.0258195661008358,0.00931633822619915
18819587930700,0.1364694982767105,-9.823410034179688,-0.08140286058187485,0.0367329902946949,0.0234239362180233,0.0066545275039970875
18819589167825,0.14245499670505524,-9.849745750427246,-0.1041477769613266,0.0372653529047966,0.0228915736079216,0.0029279920272529125
18819590404962,0.16400282084941864,-9.813833236694336,-0.10654197633266449,0.0340711809694767,0.02741665206849575,-0.0007985432748682797
18819591642062,0.11971008777618408,-9.7791166305542,-0.07422025501728058,0.0340711809694767,0.0252872034907341,-0.0002661811013240367
18819592879200,0.13048399984836578,-9.824606895446777,-0.08858546614646912,0.0372653529047966,0.02794901467859745,0.0018632676219567657
18819594116325,0.1604115217924118,-9.806650161743164,-0.12689268589019775,0.0377977155148983,0.0271504707634449,-0.0039927163161337376
18819595353487,0.10055647045373917,-9.816226959228516,-0.11133038252592087,0.0415242500603199,0.02874755859375,-0.004791259765625
18819596590600,0.12330138683319092,-9.791088104248047,-0.11013327538967133,0.0407257080078125,0.02555338479578495,-0.0031941730994731188
18819597827750,0.13766659796237946,-9.813833236694336,-0.1041477769613266,0.0433875173330307,0.02555338479578495,-0.00452507846057415
18819599064862,0.13407529890537262,-9.831789016723633,-0.10654197633266449,0.0415242500603199,0.02794901467859745,-0.0018632676219567657
18819600302000,0.13766659796237946,-9.819818496704102,-0.1412578970193863,0.0399271659553051,0.03034464456140995,-0.007453070487827063
18819601539125,0.13048399984836578,-9.828198432922363,-0.08619125932455063,0.0391286201775074,0.02874755859375,-0.007985432632267475
18819602776237,0.13168109953403473,-9.858125686645508,-0.07900865375995636,0.0346035435795784,0.02129448764026165,-0.0071868896484375
18819604013375,0.10654197633266449,-9.832986831665039,-0.05027823522686958,0.0391286201775074,0.0252872034907341,-0.008251613937318325
18819605250500,0.10654197633266449,-9.80904483795166,-0.08140286058187485,0.0417904332280159,0.02874755859375,-0.00984870083630085
18819606487625,0.08858546614646912,-9.798270225524902,-0.06344634294509888,0.0439198799431324,0.023956298828125,-0.013309055007994175
18819607724750,0.1149216815829277,-9.834183692932129,-0.06344634294509888,0.0444522425532341,0.02315775491297245,-0.01117960549890995
18819608961875,0.07661445438861847,-9.818621635437012,-0.06464345008134842,0.0415242500603199,0.0282151959836483,-0.0181003138422966
18819610199012,0.06703764945268631,-9.813833236694336,-0.08140286058187485,0.042855154722929,0.0292799212038517,-0.0181003138422966
18819611436150,0.09576807171106339,-9.823410034179688,-0.11133038252592087,0.0441860631108284,0.02848137728869915,-0.01357523538172245
18819612673287,0.06703764945268631,-9.834183692932129,-0.07661445438861847,0.0436537005007267,0.02741665206849575,-0.02076212503015995
18819613910412,0.06584054976701736,-9.822212219238281,-0.090979665517807,0.0463155098259449,0.0252872034907341,-0.02129448764026165
18819615147537,0.02992752194404602,-9.783905029296875,-0.07541735470294952,0.0468478724360466,0.02741665206849575,-0.01943122036755085
18819616384662,0.12090718746185303,-9.832986831665039,-0.07182604819536209,0.0449846051633358,0.0252872034907341,-0.0215606689453125
18819617621812,0.07900865375995636,-9.797073364257812,-0.11372458189725876,0.0487111397087574,0.0258195661008358,-0.0268842913210392
18819618858925,0.10893617570400238,-9.77672290802002,-0.07302315533161163,0.04791259765625,0.02262539230287075,-0.0316755510866642
18819620096050,0.1149216815829277,-9.799468040466309,-0.06823474913835526,0.0452507846057415,0.0292799212038517,-0.0354020856320858
18819621333187,0.08140286058187485,-9.794679641723633,-0.05147533863782883,0.0495096817612648,0.03087700717151165,-0.0324740931391716
18819622570325,0.08499415963888168,-9.804256439208984,-0.0802057608962059,0.0495096817612648,0.02741665206849575,-0.0282151959836483
18819623807462,0.09217676520347595,-9.817423820495605,-0.06823474913835526,0.0457831472158432,0.0311431884765625,-0.0292799212038517
18819625044562,0.04429273307323456,-9.816226959228516,-0.10893617570400238,0.0505744069814682,0.0282151959836483,-0.033272635191679
18819626281712,0.07422025501728058,-9.81143856048584,-0.07900865375995636,0.052437674254179,0.02741665206849575,-0.033272635191679
18819627518812,0.09217676520347595,-9.781511306762695,-0.07900865375995636,0.0492435023188591,0.02794901467859745,-0.0340711809694767
18819628755987,0.0933738648891449,-9.785102844238281,-0.06823474913835526,0.0500420443713665,0.0271504707634449,-0.0319417305290699
18819629993100,0.10055647045373917,-9.77791976928711,-0.0586579404771328,0.0519053116440773,0.02794901467859745,-0.0348697230219841
18819631230237,0.090979665517807,-9.807847023010254,-0.07781155407428741,0.0481787770986557,0.0295461006462574,-0.0356682650744915
18819632467350,0.040701430290937424,-9.825803756713867,-0.07182604819536209,0.0500420443713665,0.0319417305290699,-0.0372653529047966
18819633704487,0.05027823522686958,-9.81263542175293,-0.09696517139673233,0.0558980293571949,0.0359344482421875,-0.0359344482421875
18819634941625,0.05746084079146385,-9.847352027893066,-0.07182604819536209,0.0513729527592659,0.0346035435795784,-0.0423227921128273
18819636178737,0.08140286058187485,-9.781511306762695,-0.07541735470294952,0.0532362200319767,0.033272635191679,-0.038063894957304
18819637415862,0.05506663769483566,-9.763554573059082,-0.05267243832349777,0.0497758649289608,0.0391286201775074,-0.0425889752805233
18819638653000,0.08259996026754379,-9.832986831665039,-0.0802057608962059,0.0548333041369915,0.0362006276845932,-0.0468478724360466
18819639890112,0.09576807171106339,-9.786299705505371,-0.07422025501728058,0.0558980293571949,0.033272635191679,-0.0444522425532341
18819641127275,0.10534487664699554,-9.797073364257812,-0.06703764945268631,0.0548333041369915,0.0330064557492733,-0.0468478724360466
18819642364387,0.10654197633266449,-9.781511306762695,-0.10534487664699554,0.0561642125248909,0.0343373604118824,-0.0463155098259449
18819643601525,0.03711012750864029,-9.801861763000488,-0.08259996026754379,0.0529700368642807,0.03087700717151165,-0.0452507846057415
18819644838662,0.07661445438861847,-9.773131370544434,-0.09816227108240128,0.0550994873046875,0.0351359061896801,-0.047646414488554
18819646075775,0.08140286058187485,-9.793481826782227,-0.06224924325942993,0.0588260218501091,0.0401933453977108,-0.0553656667470932
18819647312912,0.10773907601833344,-9.780314445495605,-0.07541735470294952,0.0577612966299057,0.038330078125,-0.0487111397087574
18819648550037,0.08978256583213806,-9.757569313049316,-0.06344634294509888,0.0598907470703125,0.0377977155148983,-0.0492435023188591
18819649787175,0.10055647045373917,-9.75278091430664,-0.04189852997660637,0.0537685826420784,0.038330078125,-0.0455169677734375
18819651024325,0.10055647045373917,-9.771934509277344,-0.06703764945268631,0.0585598424077034,0.0417904332280159,-0.0550994873046875
18819652261437,0.07541735470294952,-9.747992515563965,-0.07422025501728058,0.0580274797976017,0.0359344482421875,-0.057228934019804
18819653498562,0.11252748221158981,-9.75158405303955,-0.05027823522686958,0.0582936592400074,0.0420566126704216,-0.0516391322016716
18819654735700,0.08619125932455063,-9.744400978088379,-0.03950432687997818,0.0628187358379364,0.0452507846057415,-0.0614878311753273
18819655972825,0.10773907601833344,-9.749189376831055,-0.06224924325942993,0.0652143657207489,0.043121337890625,-0.0596245639026165
18819657209962,0.09935937076807022,-9.725247383117676,-0.07062894850969315,0.0654805526137352,0.0420566126704216,-0.0558980293571949
18819658447075,0.0694318488240242,-9.708487510681152,-0.05027823522686958,0.0630849227309227,0.043121337890625,-0.0625525563955307
18819659684212,0.07661445438861847,-9.706093788146973,-0.03711012750864029,0.0641496405005455,0.042855154722929,-0.062020193785429
18819660921350,0.08259996026754379,-9.734824180603027,-0.05027823522686958,0.0657467320561409,0.0444522425532341,-0.0614878311753273
18819662158462,0.11372458189725876,-9.707290649414062,-0.07182604819536209,0.0692070871591568,0.0452507846057415,-0.0633511021733284
18819663395600,0.08619125932455063,-9.77672290802002,-0.06344634294509888,0.0708041712641716,0.0465816929936409,-0.0684085413813591
18819664632725,0.09696517139673233,-9.736021041870117,-0.06703764945268631,0.0633511021733284,0.0439198799431324,-0.0686747208237648
18819665869850,0.06344634294509888,-9.739612579345703,-0.03232172504067421,0.0692070871591568,0.0468478724360466,-0.0726674422621727
18819667106987,0.10773907601833344,-9.782708168029785,-0.04668693244457245,0.0708041712641716,0.0463155098259449,-0.0745307058095932
18819668344125,0.05746084079146385,-9.780314445495605,-0.06464345008134842,0.071868896484375,0.0452507846057415,-0.07666015625
18819669581250,0.11252748221158981,-9.749189376831055,-0.014365210197865963,0.0737321600317955,0.0481787770986557,-0.0793219655752182
18819670818375,0.12090718746185303,-9.708487510681152,-0.0694318488240242,0.0782572403550148,0.052437674254179,-0.0825161412358284
18819672055500,0.12330138683319092,-9.709685325622559,-0.0059855044819414616,0.0771925151348114,0.0468478724360466,-0.0795881450176239
18819673292650,0.09457096457481384,-9.75278091430664,-0.038307227194309235,0.0779910609126091,0.0500420443713665,-0.0801205113530159
18819674529775,0.09696517139673233,-9.726444244384766,-0.0035913025494664907,0.0787896066904068,0.0489773228764534,-0.0854441300034523
18819675766887,0.11372458189725876,-9.71926212310791,0.031124621629714966,0.0822499617934227,0.0519053116440773,-0.0838470458984375
18819677004037,0.0802057608962059,-9.731232643127441,-0.02992752194404602,0.0843794047832489,0.0569627545773983,-0.0881059393286705
18819678241150,0.10534487664699554,-9.712079048156738,-0.016759412363171577,0.0822499617934227,0.0548333041369915,-0.0849117711186409
18819679478287,0.10534487664699554,-9.737218856811523,-0.009576806798577309,0.0886383056640625,0.052703857421875,-0.0923648402094841
18819680715412,0.07422025501728058,-9.691728591918945,0.013168109580874443,0.0915662944316864,0.0558980293571949,-0.0947604700922966
18819681952550,0.010773907415568829,-9.731232643127441,0.023942017927765846,0.090501569211483,0.0609554722905159,-0.100616455078125
18819683189675,0.040701430290937424,-9.694122314453125,-0.010773907415568829,0.0918324738740921,0.0580274797976017,-0.1019473597407341
18819684426787,0.04908113554120064,-9.695320129394531,-0.016759412363171577,0.0928971990942955,0.0601569265127182,-0.1083357036113739
18819685663925,0.04908113554120064,-9.672574996948242,-0.043095629662275314,0.0963575541973114,0.062286376953125,-0.114990234375
18819686901050,0.06344634294509888,-9.670180320739746,-0.04908113554120064,0.0968899205327034,0.0630849227309227,-0.1112636998295784
18819688138187,0.026336219161748886,-9.670180320739746,-0.040701430290937424,0.0960913747549057,0.0662790909409523,-0.1160549595952034
18819689375312,0.0586579404771328,-9.643844604492188,-0.061052143573760986,0.100616455078125,0.0681423619389534,-0.1243065744638443
18819690612437,0.08379705995321274,-9.641449928283691,-0.05386953800916672,0.0979546457529068,0.0686747208237648,-0.1227094829082489
18819691849575,0.05386953800916672,-9.659406661987305,-0.0059855044819414616,0.1024797186255455,0.0678761824965477,-0.1221771240234375
18819693086712,0.04429273307323456,-9.613917350769043,-0.05746084079146385,0.1056738942861557,0.0686747208237648,-0.1264360249042511
18819694323825,0.05386953800916672,-9.641449928283691,-0.038307227194309235,0.1078033447265625,0.0724012553691864,-0.1322920024394989
18819695560975,0.05506663769483566,-9.615114212036133,-0.04189852997660637,0.1131269633769989,0.0700056254863739,-0.1352199912071228
18819696798087,0.06703764945268631,-9.623494148254395,0.002394201699644327,0.1115298792719841,0.0731998011469841,-0.1421407014131546
18819698035225,0.07302315533161163,-9.59596061706543,-0.014365210197865963,0.1157887727022171,0.0774587020277977,-0.1394788920879364
18819699272337,0.07900865375995636,-9.617507934570312,0.021547814831137657,0.1227094829082489,0.0750630721449852,-0.1461334228515625
18819700509487,0.08738835901021957,-9.640253067016602,-0.02513911761343479,0.124040387570858,0.0771925151348114,-0.1498599499464035
18819701746600,0.0802057608962059,-9.59596061706543,0.004788403399288654,0.1237742081284523,0.0803866907954216,-0.1519894003868103
18819702983737,0.03232172504067421,-9.622296333312988,0.0035913025494664907,0.1224433034658432,0.0822499617934227,-0.1583777517080307
18819704220862,0.08140286058187485,-9.618705749511719,-0.020350715145468712,0.1267022043466568,0.0779910609126091,-0.1605072021484375
18819705458000,0.08738835901021957,-9.623494148254395,-0.002394201699644327,0.1285654753446579,0.0777248814702034,-0.1586439311504364
18819706695125,0.035913024097681046,-9.651026725769043,-0.04668693244457245,0.1328243613243103,0.0819837749004364,-0.1610395610332489
18819707932275,0.019153613597154617,-9.643844604492188,-0.016759412363171577,0.1384141743183136,0.0827823206782341,-0.1722191721200943
18819709169375,0.06344634294509888,-9.659406661987305,-0.009576806798577309,0.1373494416475296,0.0830485001206398,-0.1743486225605011
18819710406512,0.02753331884741783,-9.702502250671387,-0.0454898327589035,0.1418745219707489,0.0883721262216568,-0.1724853515625
18819711643662,-0.013168109580874443,-9.68694019317627,0.008379706181585789,0.1397450715303421,0.0902353897690773,-0.1754133403301239
18819712880775,0.0454898327589035,-9.680954933166504,-0.07062894850969315,0.1405436247587204,0.0897030308842659,-0.1786075085401535
18819714117900,0.06224924325942993,-9.696516990661621,-0.019153613597154617,0.1418745219707489,0.0944942906498909,-0.176211878657341
18819715355025,0.0933738648891449,-9.712079048156738,-0.0347159244120121,0.1503923237323761,0.0920986607670784,-0.1839311420917511
18819716592162,0.033518824726343155,-9.72285270690918,-0.03232172504067421,0.1456010639667511,0.0968899205327034,-0.1841973215341568
18819717829275,0.04788403585553169,-9.707290649414062,-0.04429273307323456,0.1456010639667511,0.100616455078125,-0.1876576691865921
18819719066400,0.061052143573760986,-9.7420072555542,-0.04189852997660637,0.1495937705039978,0.0982208251953125,-0.1927151083946228
18819720303550,-0.002394201699644327,-9.773131370544434,-0.026336219161748886,0.1487952321767807,0.0987531840801239,-0.1945783793926239
18819721540675,0.0035913025494664907,-9.725247383117676,-0.05386953800916672,0.1546512097120285,0.100616455078125,-0.1911180317401886
18819722777800,0.0,-9.759963035583496,-0.08499415963888168,0.1519894003868103,0.1014149934053421,-0.1900532990694046
18819724014950,0.0586579404771328,-9.75158405303955,-0.03950432687997818,0.1575792133808136,0.1014149934053421,-0.1921827495098114
18819725252075,0.033518824726343155,-9.679757118225098,-0.038307227194309235,0.1559821218252182,0.1014149934053421,-0.1961754709482193
18819726489212,0.09696517139673233,-9.72285270690918,-0.03232172504067421,0.1602410227060318,0.100084088742733,-0.1937798410654068
18819727726312,0.05386953800916672,-9.72285270690918,-0.038307227194309235,0.1546512097120285,0.1059400737285614,-0.195376917719841
18819728963450,0.08259996026754379,-9.730035781860352,-0.028730420395731926,0.1543850302696228,0.1088680699467659,-0.2017652690410614
18819730200587,0.05626374110579491,-9.696516990661621,-0.08379705995321274,0.1613057404756546,0.1083357036113739,-0.2046932578086853
18819731437725,0.1173158809542656,-9.700108528137207,-0.028730420395731926,0.1615719199180603,0.1072709783911705,-0.2022976279258728
18819732674837,0.09457096457481384,-9.703699111938477,-0.014365210197865963,0.1634351909160614,0.1147240549325943,-0.2062903493642807
18819733911975,0.11611878126859665,-9.672574996948242,-0.04189852997660637,0.1663631796836853,0.1163211390376091,-0.2046932578086853
18819735149100,0.11013327538967133,-9.697713851928711,-0.06823474913835526,0.1679602712392807,0.1152564138174057,-0.2014990895986557
18819736386225,0.09816227108240128,-9.68813705444336,-0.03232172504067421,0.1692911684513092,0.1163211390376091,-0.204959437251091
18819737623350,0.12090718746185303,-9.697713851928711,-0.035913024097681046,0.1703559011220932,0.1152564138174057,-0.2070888876914978
18819738860500,0.12330138683319092,-9.683348655700684,-0.061052143573760986,0.1706220805644989,0.119249127805233,-0.209750697016716
18819740097625,0.12210428714752197,-9.666589736938477,-0.03950432687997818,0.1740824282169342,0.1155225932598114,-0.2020314484834671
18819741334762,0.13048399984836578,-9.727641105651855,-0.017956512048840523,0.1754133403301239,0.1157887727022171,-0.2062903493642807
18819742571887,0.1472434103488922,-9.696516990661621,-0.020350715145468712,0.1770104318857193,0.1195153146982193,-0.2038947194814682
18819743809012,0.13287819921970367,-9.718064308166504,-0.03950432687997818,0.1788736879825592,0.1205800324678421,-0.2081536203622818
18819745046150,0.14365209639072418,-9.683348655700684,-0.05267243832349777,0.1767442524433136,0.1219109445810318,-0.2094845175743103
18819746283262,0.15322890877723694,-9.704896926879883,-0.05626374110579491,0.1804707795381546,0.1211123988032341,-0.2070888876914978
18819747520412,0.1472434103488922,-9.730035781860352,-0.010773907415568829,0.1833987683057785,0.1205800324678421,-0.2094845175743103
18819748757525,0.15801730751991272,-9.716867446899414,-0.038307227194309235,0.18206787109375,0.1269683837890625,-0.2129448801279068
18819749994662,0.1280897855758667,-9.726444244384766,-0.013168109580874443,0.1849958598613739,0.1232418492436409,-0.2108154296875
18819751231787,0.14245499670505524,-9.730035781860352,-0.020350715145468712,0.1892547607421875,0.1203138530254364,-0.2044270783662796
18819752468925,0.1843535304069519,-9.697713851928711,-0.033518824726343155,0.1908518373966217,0.1211123988032341,-0.2065565288066864
18819753706062,0.17717093229293823,-9.728838920593262,-0.06823474913835526,0.1881900280714035,0.1229756623506546,-0.2030961811542511
18819754943187,0.15562310814857483,-9.756372451782227,-0.019153613597154617,0.1879238486289978,0.12457275390625,-0.200168177485466
18819756180300,0.15322890877723694,-9.745597839355469,-0.004788403399288654,0.1892547607421875,0.1256374716758728,-0.204959437251091
18819757417450,0.19871874153614044,-9.749189376831055,-0.05506663769483566,0.1943121999502182,0.1248389333486557,-0.2084197998046875
18819758654562,0.23104046285152435,-9.765949249267578,-0.04189852997660637,0.1943121999502182,0.1275007426738739,-0.2057579904794693
18819759891712,0.2537853717803955,-9.769539833068848,-0.0011971008498221636,0.1937798410654068,0.1224433034658432,-0.2094845175743103
18819761128825,0.2346317619085312,-9.714473724365234,-0.014365210197865963,0.1975063681602478,0.12457275390625,-0.2073550671339035
18819762365950,0.23942017555236816,-9.77672290802002,0.017956512048840523,0.1972401887178421,0.1298963725566864,-0.2041608989238739
18819763603100,0.22625206410884857,-9.745597839355469,-0.040701430290937424,0.1975063681602478,0.1275007426738739,-0.2046932578086853
18819764840225,0.2346317619085312,-9.747992515563965,-0.04429273307323456,0.1980387270450592,0.1227094829082489,-0.2022976279258728
18819766077362,0.243011474609375,-9.734824180603027,-0.011971008963882923,0.1991034597158432,0.1253712922334671,-0.1991034597158432
18819767314475,0.26575639843940735,-9.757569313049316,0.011971008963882923,0.2017652690410614,0.1259036511182785,-0.1988372802734375
18819768551600,0.2597709000110626,-9.771934509277344,-0.020350715145468712,0.2020314484834671,0.1259036511182785,-0.195376917719841
18819769788737,0.27653029561042786,-9.763554573059082,-0.0059855044819414616,0.2030961811542511,0.1309611052274704,-0.2009667307138443
18819771025862,0.25498247146606445,-9.758766174316406,0.03232172504067421,0.2057579904794693,0.1296301931142807,-0.2036285400390625
18819772263000,0.272938996553421,-9.740809440612793,0.035913024097681046,0.2041608989238739,0.1314934641122818,-0.1977725476026535
18819773500125,0.333991140127182,-9.720458984375,0.023942017927765846,0.1993696391582489,0.1320258229970932,-0.1969740092754364
18819774737250,0.28131869435310364,-9.740809440612793,0.002394201699644327,0.2041608989238739,0.1301625519990921,-0.20123291015625
18819775974387,0.25019407272338867,-9.732430458068848,0.0035913025494664907,0.2105492502450943,0.1306949108839035,-0.2009667307138443
18819777211525,0.2849099934101105,-9.781511306762695,-0.04429273307323456,0.2057579904794693,0.1320258229970932,-0.1951107382774353
18819778448637,0.3064578175544739,-9.75517463684082,-0.004788403399288654,0.2094845175743103,0.1306949108839035,-0.1945783793926239
18819779685787,0.35434186458587646,-9.720458984375,0.03711012750864029,0.2134772390127182,0.1259036511182785,-0.1943121999502182
18819780922912,0.32680854201316833,-9.761160850524902,0.05386953800916672,0.2134772390127182,0.1328243613243103,-0.1932474672794342
18819782160037,0.31124621629714966,-9.726444244384766,0.031124621629714966,0.2180023193359375,0.1328243613243103,-0.1889885812997818
18819783397162,0.3208230435848236,-9.75158405303955,0.0694318488240242,0.2198655903339386,0.1253712922334671,-0.1937798410654068
18819784634300,0.3387795388698578,-9.77672290802002,0.04189852997660637,0.2121463268995285,0.1269683837890625,-0.1945783793926239
18819785871425,0.34835633635520935,-9.75517463684082,0.04668693244457245,0.2174699604511261,0.1309611052274704,-0.1887224018573761
18819787108562,0.3842693865299225,-9.75517463684082,0.05267243832349777,0.2172037661075592,0.1243065744638443,-0.1927151083946228
18819788345687,0.38307228684425354,-9.75278091430664,0.08858546614646912,0.2169375866651535,0.1251051127910614,-0.1948445588350296
18819789582812,0.3758896589279175,-9.770737648010254,0.09457096457481384,0.2185346782207489,0.1298963725566864,-0.1889885812997818
18819790819962,0.4141969084739685,-9.768342971801758,0.08619125932455063,0.2225273996591568,0.1269683837890625,-0.1831325888633728
18819792057075,0.3866635859012604,-9.710882186889648,0.07781155407428741,0.2198655903339386,0.1280331015586853,-0.1876576691865921
18819793294212,0.4082113802433014,-9.7420072555542,0.043095629662275314,0.2185346782207489,0.1259036511182785,-0.1876576691865921
18819794531337,0.37229835987091064,-9.727641105651855,0.07062894850969315,0.2211964875459671,0.1269683837890625,-0.1863267719745636
18819795768487,0.37828385829925537,-9.747992515563965,0.1280897855758667,0.2291819155216217,0.1256374716758728,-0.185794398188591
18819797005587,0.40940847992897034,-9.771934509277344,0.09696517139673233,0.2259877473115921,0.1232418492436409,-0.1876576691865921
18819798242737,0.41060560941696167,-9.744400978088379,0.0586579404771328,0.2222612202167511,0.1237742081284523,-0.1863267719745636
18819799479862,0.44173023104667664,-9.700108528137207,0.05027823522686958,0.2209303081035614,0.1205800324678421,-0.1831325888633728
18819800716975,0.45010992884635925,-9.744400978088379,0.03950432687997818,0.22998046875,0.1301625519990921,-0.1796722412109375
18819801954112,0.43933600187301636,-9.745597839355469,0.0694318488240242,0.2305128276348114,0.1213785782456398,-0.1802046000957489
18819803191250,0.47165775299072266,-9.75278091430664,0.07781155407428741,0.2291819155216217,0.1200476735830307,-0.1833987683057785
18819804428375,0.4596867263317108,-9.823410034179688,0.035913024097681046,0.2291819155216217,0.124040387570858,-0.1823340505361557
18819805665487,0.44532153010368347,-9.815030097961426,0.05746084079146385,0.2267862856388092,0.1243065744638443,-0.1764780580997467
18819806902625,0.4596867263317108,-9.77791976928711,0.10534487664699554,0.2283833771944046,0.1229756623506546,-0.1852620393037796
18819808139762,0.43694180250167847,-9.793481826782227,0.0933738648891449,0.2321099191904068,0.1224433034658432,-0.181003138422966
18819809376900,0.48722004890441895,-9.771934509277344,0.07302315533161163,0.2363688051700592,0.119249127805233,-0.176211878657341
18819810614037,0.44532153010368347,-9.817423820495605,0.04189852997660637,0.2353040874004364,0.1168534979224205,-0.1783413290977478
18819811851175,0.46806642413139343,-9.781511306762695,0.12689268589019775,0.2379658967256546,0.1155225932598114,-0.1738162487745285
18819813088275,0.48243165016174316,-9.801861763000488,0.12689268589019775,0.2350379079580307,0.114457868039608,-0.171420618891716
18819814325450,0.4644751250743866,-9.780314445495605,0.11372458189725876,0.2353040874004364,0.1125946044921875,-0.1767442524433136
18819815562537,0.4800374507904053,-9.781511306762695,0.09935937076807022,0.2361026257276535,0.1091342493891716,-0.1759456992149353
18819816799687,0.45250412821769714,-9.817423820495605,0.09816227108240128,0.2350379079580307,0.1088680699467659,-0.1764780580997467
18819818036800,0.48722004890441895,-9.77552604675293,0.11971008777618408,0.2305128276348114,0.1189829483628273,-0.1700897216796875
18819819273937,0.45489832758903503,-9.825803756713867,0.13287819921970367,0.2315775454044342,0.1152564138174057,-0.1732838898897171
18819820511062,0.4800374507904053,-9.80904483795166,0.1735796183347702,0.238498255610466,0.1139255091547966,-0.1743486225605011
18819821748187,0.4836287498474121,-9.80904483795166,0.09935937076807022,0.2400953471660614,0.1091342493891716,-0.1764780580997467
18819822985325,0.5003881454467773,-9.830592155456543,0.12689268589019775,0.2411600649356842,0.1078033447265625,-0.1770104318857193
18819824222462,0.5015852451324463,-9.804256439208984,0.14245499670505524,0.2403615266084671,0.1070047989487648,-0.1740824282169342
18819825459587,0.4752490520477295,-9.805453300476074,0.13287819921970367,0.2387644350528717,0.1088680699467659,-0.1719529926776886
18819826696725,0.5303156971931458,-9.827000617980957,0.1496376097202301,0.2419586181640625,0.1067386195063591,-0.1631690114736557
18819827933837,0.507570743560791,-9.817423820495605,0.16160862147808075,0.2355702668428421,0.1019473597407341,-0.1692911684513092
18819829170975,0.5434837937355042,-9.852140426635742,0.1412578970193863,0.238498255610466,0.1027459055185318,-0.1668955385684967
18819830408112,0.5662286877632141,-9.831789016723633,0.15682020783424377,0.2398291677236557,0.0990193635225296,-0.1642337292432785
18819831645237,0.48482584953308105,-9.815030097961426,0.16400282084941864,0.2358364462852478,0.100616455078125,-0.1631690114736557
18819832882350,0.49559974670410156,-9.835380554199219,0.16998831927776337,0.2424909770488739,0.1046091690659523,-0.16290283203125
18819834119500,0.5410895943641663,-9.805453300476074,0.1388636976480484,0.2424909770488739,0.0955590158700943,-0.1605072021484375
18819835356612,0.4908113479614258,-9.838972091674805,0.1843535304069519,0.23956298828125,0.0976884588599205,-0.1567806601524353
18819836593750,0.568622887134552,-9.850942611694336,0.20470423996448517,0.2390306293964386,0.0995517298579216,-0.1610395610332489
18819837830887,0.5363011956214905,-9.836577415466309,0.16759411990642548,0.2406277060508728,0.0971560999751091,-0.1647661030292511
18819839068012,0.5374982953071594,-9.877279281616211,0.1280897855758667,0.2408938854932785,0.0963575541973114,-0.1634351909160614
18819840305162,0.5506663918495178,-9.825803756713867,0.1364694982767105,0.2419586181640625,0.0936957448720932,-0.1589101105928421
18819841542287,0.5734112858772278,-9.847352027893066,0.1364694982767105,0.2363688051700592,0.0966237336397171,-0.158111572265625
18819842779400,0.5363011956214905,-9.880870819091797,0.1759738326072693,0.2369011789560318,0.0992855504155159,-0.1647661030292511
18819844016525,0.5494692921638489,-9.872490882873535,0.11971008777618408,0.2374335378408432,0.0889044851064682,-0.1591762900352478
18819845253662,0.5339069962501526,-9.803058624267578,0.1867477297782898,0.23956298828125,0.0920986607670784,-0.1546512097120285
18819846490800,0.5530605912208557,-9.882067680358887,0.15801730751991272,0.238498255610466,0.0920986607670784,-0.1538526713848114
18819847727937,0.5303156971931458,-9.895236015319824,0.22026655077934265,0.2387644350528717,0.0918324738740921,-0.1543850302696228
18819848965062,0.5351040959358215,-9.838972091674805,0.19273324310779572,0.2382320761680603,0.0886383056640625,-0.1549174040555954
18819850202200,0.5434837937355042,-9.870096206665039,0.1711854189634323,0.2350379079580307,0.0833146795630455,-0.1527879536151886
18819851439312,0.5758054852485657,-9.889249801635742,0.17477671802043915,0.2366349995136261,0.0859764963388443,-0.1525217741727829
18819852676450,0.6093243360519409,-9.919178009033203,0.1735796183347702,0.2371673583984375,0.0894368439912796,-0.152255579829216
18819853913575,0.5877765417098999,-9.864110946655273,0.181959331035614,0.2387644350528717,0.0835808664560318,-0.14373779296875
18819855150700,0.5590460896492004,-9.892841339111328,0.18315643072128296,0.2387644350528717,0.0777248814702034,-0.1493275910615921
18819856387850,0.6021417379379272,-9.888052940368652,0.19033904373645782,0.2361026257276535,0.0798543319106102,-0.1519894003868103
18819857624975,0.6021417379379272,-9.894038200378418,0.2082955539226532,0.2358364462852478,0.0854441300034523,-0.1501261442899704
18819858862100,0.6021417379379272,-9.913191795349121,0.20949265360832214,0.238498255610466,0.0793219655752182,-0.1463996022939682
18819860099212,0.586579442024231,-9.939528465270996,0.181959331035614,0.2355702668428421,0.07666015625,-0.14373779296875
18819861336350,0.5949591398239136,-9.895236015319824,0.2214636653661728,0.2302466481924057,0.0779910609126091,-0.1461334228515625
18819862573487,0.6416460871696472,-9.871294021606445,0.19273324310779572,0.2326422780752182,0.0716027170419693,-0.142673060297966
18819863810625,0.6177040338516235,-9.906009674072266,0.18555063009262085,0.233706995844841,0.0710703507065773,-0.1400112509727478
18819865047737,0.6141127347946167,-9.938331604003906,0.21188685297966003,0.2350379079580307,0.06707763671875,-0.1392127126455307
18819866284875,0.5949591398239136,-9.916783332824707,0.2513911724090576,0.2323760986328125,0.0686747208237648,-0.1432054340839386
18819867522025,0.5734112858772278,-9.932345390319824,0.20949265360832214,0.2353040874004364,0.0657467320561409,-0.1429392546415329
18819868759125,0.6488286852836609,-9.913191795349121,0.22026655077934265,0.2342393696308136,0.0657467320561409,-0.1370832622051239
18819869996275,0.6117185354232788,-9.93593692779541,0.20470423996448517,0.2323760986328125,0.0630849227309227,-0.1376156210899353
18819871233387,0.5829881429672241,-9.940725326538086,0.19393034279346466,0.2275848388671875,0.0625525563955307,-0.1365509033203125
18819872470525,0.5829881429672241,-9.906009674072266,0.17477671802043915,0.2297142893075943,0.0604231096804142,-0.1333567351102829
18819873707650,0.6248866319656372,-9.921571731567383,0.2693476974964142,0.2294481098651886,0.0598907470703125,-0.1232418492436409
18819874944787,0.5710170865058899,-9.955090522766113,0.27413609623908997,0.2233259379863739,0.0662790909409523,-0.1320258229970932
18819876181925,0.6117185354232788,-9.950302124023438,0.20231004059314728,0.2305128276348114,0.0596245639026165,-0.1346876323223114
18819877419050,0.646434485912323,-9.932345390319824,0.21428105235099792,0.2291819155216217,0.0577612966299057,-0.1298963725566864
18819878656175,0.6739677786827087,-9.931148529052734,0.3016694188117981,0.2275848388671875,0.0556318499147892,-0.1285654753446579
18819879893312,0.6272808313369751,-9.951498985290527,0.25737667083740234,0.2254553884267807,0.0543009415268898,-0.1341552734375
18819881130437,0.6536170840263367,-9.95748519897461,0.24660277366638184,0.2254553884267807,0.0495096817612648,-0.1298963725566864
18819882367562,0.6380547285079956,-9.961075782775879,0.2825157940387726,0.2243906557559967,0.0492435023188591,-0.1261698454618454
18819883604700,0.6392518877983093,-9.967061996459961,0.28371289372444153,0.2235921174287796,0.0487111397087574,-0.1269683837890625
18819884841837,0.6871358752250671,-9.925163269042969,0.2861070930957794,0.22039794921875,0.0471140518784523,-0.1269683837890625
18819886078962,0.6619967818260193,-9.944316864013672,0.26575639843940735,0.2198655903339386,0.04791259765625,-0.1221771240234375
18819887316075,0.6236895322799683,-9.920374870300293,0.3124433159828186,0.2219950258731842,0.0436537005007267,-0.1195153146982193
18819888553212,0.6643909811973572,-9.950302124023438,0.30286651849746704,0.2201317697763443,0.0385962575674057,-0.1203138530254364
18819889790350,0.667982280254364,-9.977835655212402,0.2693476974964142,0.2172037661075592,0.0396609827876091,-0.1237742081284523
18819891027462,0.6823474764823914,-9.944316864013672,0.22625206410884857,0.2177361398935318,0.0412580706179142,-0.1253712922334671
18819892264600,0.646434485912323,-9.93593692779541,0.3100491166114807,0.22039794921875,0.0391286201775074,-0.1227094829082489
18819893501737,0.6200982332229614,-9.97065258026123,0.33039984107017517,0.2177361398935318,0.0388624407351017,-0.1219109445810318
18819894738862,0.6775590777397156,-9.963470458984375,0.3232172429561615,0.2158728688955307,0.0367329902946949,-0.1216447576880455
18819895976012,0.6715735793113708,-9.949105262756348,0.30047231912612915,0.2126787006855011,0.0319417305290699,-0.1179182231426239
18819897213125,0.6751648783683777,-9.921571731567383,0.2753331959247589,0.2166714072227478,0.02555338479578495,-0.1152564138174057
18819898450250,0.6560112833976746,-9.920374870300293,0.33039984107017517,0.2134772390127182,0.02741665206849575,-0.1136593297123909
18819899687375,0.7098808288574219,-9.909601211547852,0.33997663855552673,0.2102830708026886,0.02874755859375,-0.1179182231426239
18819900924525,0.706289529800415,-9.943120002746582,0.2597709000110626,0.215606689453125,0.0258195661008358,-0.1211123988032341
18819902161650,0.6476315855979919,-9.921571731567383,0.3232172429561615,0.2137434184551239,0.0247548408806324,-0.1128607839345932
18819903398762,0.6703764796257019,-9.925163269042969,0.333991140127182,0.2137434184551239,0.0220930315554142,-0.1109975129365921
18819904635912,0.6667851805686951,-9.945513725280762,0.3315969407558441,0.2153405100107193,0.0196974016726017,-0.1107313334941864
18819905873050,0.6991068720817566,-9.985018730163574,0.3232172429561615,0.2108154296875,0.02076212503015995,-0.1112636998295784
18819907110175,0.6655880808830261,-9.96945571899414,0.31962594389915466,0.2073550671339035,0.01650322787463665,-0.1099327951669693
18819908347300,0.6787561774253845,-9.96945571899414,0.3292027413845062,0.2118801474571228,0.0181003138422966,-0.1120622381567955
18819909584425,0.689530074596405,-9.939528465270996,0.3280056416988373,0.2086859792470932,0.01783413253724575,-0.1067386195063591
18819910821562,0.7110779285430908,-9.90241813659668,0.3627215623855591,0.2030961811542511,0.01756795309484005,-0.1091342493891716
18819912058700,0.6871358752250671,-9.961075782775879,0.333991140127182,0.204959437251091,0.01410759799182415,-0.1107313334941864
18819913295825,0.6835445761680603,-9.965864181518555,0.365115761756897,0.2089521586894989,0.010114881210029125,-0.1083357036113739
18819914532937,0.7086837291717529,-9.927556991577148,0.3495534360408783,0.2078874409198761,0.01224433071911335,-0.1107313334941864
18819915770075,0.7050924301147461,-9.923966407775879,0.3363853394985199,0.2044270783662796,0.00931633822619915,-0.1019473597407341
18819917007200,0.7026982307434082,-9.953893661499023,0.37828385829925537,0.1972401887178421,0.007985432632267475,-0.1011488139629364
18819918244337,0.7098808288574219,-9.939528465270996,0.3579331636428833,0.2038947194814682,0.0010647244052961469,-0.1016811802983284
18819919481475,0.6991068720817566,-9.971850395202637,0.38067808747291565,0.1977725476026535,-0.0031941730994731188,-0.1038106232881546
18819920718600,0.6823474764823914,-9.950302124023438,0.39384618401527405,0.2009667307138443,0.0005323622026480734,-0.1070047989487648
18819921955737,0.6871358752250671,-9.938331604003906,0.3687070608139038,0.1980387270450592,0.003460354171693325,-0.1072709783911705
18819923192862,0.7374141216278076,-9.911994934082031,0.4118027091026306,0.1951107382774353,-0.0018632676219567657,-0.10540771484375
18819924430000,0.7218518257141113,-9.952696800231934,0.41539400815963745,0.1943121999502182,-0.0031941730994731188,-0.1078033447265625
18819925667137,0.6799532771110535,-9.932345390319824,0.4213795065879822,0.1932474672794342,-0.0021294488105922937,-0.1046091690659523
18819926904262,0.689530074596405,-9.932345390319824,0.37469255924224854,0.1940460205078125,-0.0090501569211483,-0.1056738942861557
18819928141375,0.6835445761680603,-9.931148529052734,0.37229835987091064,0.1948445588350296,0.0002661811013240367,-0.1072709783911705
18819929378525,0.6823474764823914,-9.963470458984375,0.38905778527259827,0.1940460205078125,-0.0066545275039970875,-0.1011488139629364
18819930615650,0.6871358752250671,-9.898826599121094,0.38307228684425354,0.1924489289522171,-0.008783976547420025,-0.0987531840801239
18819931852750,0.6787561774253845,-9.891644477844238,0.3926490843296051,0.1911180317401886,-0.01171196810901165,-0.1024797186255455
18819933089900,0.7050924301147461,-9.923966407775879,0.4034229815006256,0.1927151083946228,-0.0114457868039608,-0.100084088742733
18819934327037,0.6967126727104187,-9.908403396606445,0.40701428055763245,0.1887224018573761,-0.01410759799182415,-0.1003502756357193
18819935564150,0.6751648783683777,-9.925163269042969,0.4465186297893524,0.190585657954216,-0.01463996060192585,-0.0963575541973114
18819936801287,0.689530074596405,-9.913191795349121,0.42018240690231323,0.1892547607421875,-0.013309055007994175,-0.1014149934053421
18819938038412,0.6991068720817566,-9.929951667785645,0.4429273307323456,0.1865929514169693,-0.014906140975654125,-0.0987531840801239
18819939275537,0.7146692276000977,-9.926360130310059,0.3974374830722809,0.1873914897441864,-0.02076212503015995,-0.100616455078125
18819940512687,0.6859387755393982,-9.907206535339355,0.4429273307323456,0.1900532990694046,-0.0191650390625,-0.1011488139629364
18819941749825,0.7038953304290771,-9.931148529052734,0.4357447028160095,0.191650390625,-0.0173017717897892,-0.1027459055185318
18819942986937,0.7086837291717529,-9.909601211547852,0.41060560941696167,0.1873914897441864,-0.0234239362180233,-0.0987531840801239
18819944224062,0.7326257228851318,-9.891644477844238,0.4429273307323456,0.1847296804189682,-0.0244886614382267,-0.0995517298579216
18819945461200,0.7003040313720703,-9.921571731567383,0.4800374507904053,0.1849958598613739,-0.0247548408806324,-0.1011488139629364
18819946698337,0.7146692276000977,-9.931148529052734,0.4537012279033661,0.1839311420917511,-0.02422248013317585,-0.0995517298579216
18819947935462,0.7086837291717529,-9.880870819091797,0.42018240690231323,0.1780751496553421,-0.02129448764026165,-0.0974222794175148
18819949172575,0.707486629486084,-9.90122127532959,0.42616790533065796,0.1812693178653717,-0.02555338479578495,-0.0990193635225296
18819950409725,0.7410054206848145,-9.897629737854004,0.5003881454467773,0.1884562075138092,-0.0340711809694767,-0.0963575541973114
18819951646837,0.7338228225708008,-9.923966407775879,0.48243165016174316,0.1788736879825592,-0.0324740931391716,-0.0974222794175148
18819952883975,0.690727174282074,-9.915586471557617,0.44771572947502136,0.1770104318857193,-0.0263519287109375,-0.1024797186255455
18819954121112,0.6883329749107361,-9.873687744140625,0.4513070285320282,0.1775427907705307,-0.0314093679189682,-0.1003502756357193
18819955358250,0.6967126727104187,-9.921571731567383,0.44532153010368347,0.1794060617685318,-0.0330064557492733,-0.095292828977108
18819956595375,0.6739677786827087,-9.939528465270996,0.49320554733276367,0.1818016916513443,-0.0346035435795784,-0.095292828977108
18819957832500,0.6560112833976746,-9.884461402893066,0.48243165016174316,0.177276611328125,-0.0330064557492733,-0.0995517298579216
18819959069625,0.6859387755393982,-9.898826599121094,0.4357447028160095,0.1786075085401535,-0.0346035435795784,-0.1027459055185318
18819960306762,0.6883329749107361,-9.895236015319824,0.4572925269603729,0.177276611328125,-0.0388624407351017,-0.0984870046377182
18819961543912,0.6727706789970398,-9.93593692779541,0.5003881454467773,0.1740824282169342,-0.0420566126704216,-0.0931633859872818
18819962781025,0.7086837291717529,-9.922768592834473,0.4513070285320282,0.1751471608877182,-0.0385962575674057,-0.0947604700922966
18819964018162,0.7158663272857666,-9.911994934082031,0.48961424827575684,0.1727515310049057,-0.0415242500603199,-0.0974222794175148
18819965255275,0.6524199843406677,-9.928754806518555,0.5039794445037842,0.1700897216796875,-0.042855154722929,-0.0947604700922966
18819966492425,0.7469909191131592,-9.917980194091797,0.4991910457611084,0.1732838898897171,-0.0441860631108284,-0.0926310196518898
18819967729537,0.6967126727104187,-9.981427192687988,0.46567222476005554,0.1711544394493103,-0.0409918874502182,-0.0928971990942955
18819968966675,0.6619967818260193,-9.925163269042969,0.4537012279033661,0.1722191721200943,-0.0412580706179142,-0.095292828977108
18819970203800,0.7110779285430908,-9.917980194091797,0.4884171485900879,0.1703559011220932,-0.0423227921128273,-0.0971560999751091
18819971440925,0.6979097723960876,-9.9586820602417,0.47884035110473633,0.1655646413564682,-0.0436537005007267,-0.0923648402094841
18819972678075,0.6787561774253845,-9.943120002746582,0.45010992884635925,0.1690249890089035,-0.043121337890625,-0.0920986607670784
18819973915187,0.6823474764823914,-9.919178009033203,0.4704606235027313,0.1735500693321228,-0.0457831472158432,-0.0899692103266716
18819975152337,0.727837324142456,-9.931148529052734,0.5195418000221252,0.1674279123544693,-0.04791259765625,-0.0907677561044693
18819976389462,0.6847416758537292,-9.886856079101562,0.5327098965644836,0.1682264506816864,-0.04791259765625,-0.0907677561044693
18819977626587,0.7206547260284424,-9.90122127532959,0.4620809257030487,0.1722191721200943,-0.0423227921128273,-0.0960913747549057
18819978863712,0.690727174282074,-9.897629737854004,0.4836287498474121,0.1690249890089035,-0.0449846051633358,-0.0923648402094841
18819980100850,0.6739677786827087,-9.922768592834473,0.5135562419891357,0.1637013703584671,-0.0471140518784523,-0.0955590158700943
18819981337975,0.667982280254364,-9.910798072814941,0.4752490520477295,0.1639675498008728,-0.0497758649289608,-0.0886383056640625
18819982575112,0.645237386226654,-9.90122127532959,0.48961424827575684,0.1663631796836853,-0.0513729527592659,-0.0907677561044693
18819983812250,0.6715735793113708,-9.897629737854004,0.52552729845047,0.1639675498008728,-0.0497758649289608,-0.0907677561044693
18819985049375,0.6727706789970398,-9.90361499786377,0.48722004890441895,0.1631690114736557,-0.052703857421875,-0.090501569211483
18819986286512,0.6619967818260193,-9.906009674072266,0.5374982953071594,0.1607733815908432,-0.0529700368642807,-0.091033935546875
18819987523637,0.6643909811973572,-9.898826599121094,0.5614402890205383,0.1637013703584671,-0.0553656667470932,-0.0883721262216568
18819988760762,0.6548141837120056,-9.914389610290527,0.5267243981361389,0.1575792133808136,-0.0550994873046875,-0.0899692103266716
18819989997900,0.6548141837120056,-9.870096206665039,0.4967968463897705,0.1607733815908432,-0.0553656667470932,-0.0907677561044693
18819991235025,0.6799532771110535,-9.917980194091797,0.5279214978218079,0.1623704731464386,-0.0556318499147892,-0.0913001149892807
18819992472162,0.6596025824546814,-9.926360130310059,0.5267243981361389,0.1621042937040329,-0.0580274797976017,-0.0889044851064682
18819993709287,0.6572083830833435,-9.915586471557617,0.4944026470184326,0.1557159423828125,-0.0550994873046875,-0.0894368439912796
18819994946412,0.6476315855979919,-9.90122127532959,0.5159504413604736,0.1562483012676239,-0.0574951171875,-0.0936957448720932
18819996183562,0.6859387755393982,-9.891644477844238,0.5434837937355042,0.1583777517080307,-0.0553656667470932,-0.0926310196518898
18819997420675,0.646434485912323,-9.882067680358887,0.5327098965644836,0.1554497629404068,-0.0550994873046875,-0.090501569211483
18819998657812,0.689530074596405,-9.911994934082031,0.5207388997077942,0.1551835834980011,-0.0606892891228199,-0.0894368439912796
18819999894937,0.6308721303939819,-9.862914085388184,0.507570743560791,0.1562483012676239,-0.0612216517329216,-0.0886383056640625
18820001132075,0.6572083830833435,-9.86650562286377,0.5327098965644836,0.1543850302696228,-0.0577612966299057,-0.0878397598862648
18820002369212,0.6416460871696472,-9.909601211547852,0.6033388376235962,0.1514570415019989,-0.0585598424077034,-0.0923648402094841
18820003606337,0.669179379940033,-9.883264541625977,0.5171476006507874,0.152255579829216,-0.0649481862783432,-0.0854441300034523
18820004843450,0.6811503767967224,-9.911994934082031,0.5422866940498352,0.1527879536151886,-0.0593583844602108,-0.0854441300034523
18820006080587,0.6727706789970398,-9.890447616577148,0.5722141861915588,0.1543850302696228,-0.0590922012925148,-0.0859764963388443
18820007317712,0.6560112833976746,-9.87967300415039,0.5195418000221252,0.1559821218252182,-0.0617540143430233,-0.0825161412358284
18820008554837,0.6165069341659546,-9.880870819091797,0.5626373887062073,0.1456010639667511,-0.0519053116440773,-0.0913001149892807
18820009791975,0.6572083830833435,-9.871294021606445,0.545877993106842,0.1482628732919693,-0.0550994873046875,-0.0891706645488739
18820011029112,0.6847416758537292,-9.825803756713867,0.5841852426528931,0.1525217741727829,-0.0577612966299057,-0.0913001149892807
18820012266225,0.667982280254364,-9.86889934539795,0.5614402890205383,0.1527879536151886,-0.0596245639026165,-0.0873074010014534
18820013503375,0.6703764796257019,-9.876082420349121,0.5710170865058899,0.1498599499464035,-0.062286376953125,-0.0865088552236557
18820014740487,0.6991068720817566,-9.9000244140625,0.5434837937355042,0.1517232209444046,-0.0580274797976017,-0.0865088552236557
18820015977650,0.6440402865409851,-9.832986831665039,0.5315127968788147,0.1501261442899704,-0.0553656667470932,-0.0827823206782341
18820017214750,0.6440402865409851,-9.848548889160156,0.5530605912208557,0.1517232209444046,-0.0617540143430233,-0.0851779505610466
18820018451900,0.6488286852836609,-9.870096206665039,0.568622887134552,0.1506585031747818,-0.0582936592400074,-0.0902353897690773
18820019689025,0.6584054827690125,-9.872490882873535,0.5901707410812378,0.1471981406211853,-0.0574951171875,-0.0822499617934227
18820020926150,0.6224924325942993,-9.858125686645508,0.5746083855628967,0.1482628732919693,-0.057228934019804,-0.085710309445858
18820022163275,0.667982280254364,-9.865307807922363,0.5195418000221252,0.1543850302696228,-0.062286376953125,-0.0841132253408432
18820023400412,0.6919242739677429,-9.86650562286377,0.6129156351089478,0.1530541330575943,-0.062286376953125,-0.0785234197974205
18820024637537,0.6536170840263367,-9.848548889160156,0.5530605912208557,0.1432054340839386,-0.0553656667470932,-0.0865088552236557
18820025874687,0.7050924301147461,-9.860519409179688,0.5638344883918762,0.1448025107383728,-0.0601569265127182,-0.0841132253408432
18820027111812,0.6548141837120056,-9.8784761428833,0.5494692921638489,0.1471981406211853,-0.0596245639026165,-0.0873074010014534
18820028348950,0.6308721303939819,-9.896432876586914,0.5901707410812378,0.1458672434091568,-0.0558980293571949,-0.0886383056640625
18820029586062,0.6655880808830261,-9.87967300415039,0.6200982332229614,0.1440039724111557,-0.0612216517329216,-0.0902353897690773
18820030823175,0.667982280254364,-9.892841339111328,0.6045359373092651,0.1469319611787796,-0.0638834610581398,-0.0915662944316864
18820032060337,0.6416460871696472,-9.884461402893066,0.568622887134552,0.1469319611787796,-0.0566965714097023,-0.0870412141084671
18820033297437,0.6739677786827087,-9.861717224121094,0.6177040338516235,0.142673060297966,-0.0609554722905159,-0.0870412141084671
18820034534575,0.6428431868553162,-9.856928825378418,0.6260837316513062,0.1456010639667511,-0.0625525563955307,-0.0889044851064682
18820035771712,0.7158663272857666,-9.909601211547852,0.6033388376235962,0.1408098042011261,-0.0609554722905159,-0.0915662944316864
18820037008850,0.6512228846549988,-9.86650562286377,0.5829881429672241,0.1450686901807785,-0.066545270383358,-0.0878397598862648
18820038245962,0.6320692300796509,-9.871294021606445,0.5937620401382446,0.1405436247587204,-0.0606892891228199,-0.0838470458984375
18820039483100,0.6548141837120056,-9.852140426635742,0.6380547285079956,0.1424068808555603,-0.0582936592400074,-0.0902353897690773
18820040720237,0.667982280254364,-9.859322547912598,0.5985504388809204,0.14373779296875,-0.0596245639026165,-0.0899692103266716
18820041957362,0.7134721279144287,-9.853337287902832,0.6344634294509888,0.1448025107383728,-0.0644158273935318,-0.08624267578125
18820043194500,0.646434485912323,-9.874884605407715,0.629675030708313,0.1434716135263443,-0.062286376953125,-0.0825161412358284
18820044431612,0.6536170840263367,-9.892841339111328,0.5650315880775452,0.1432054340839386,-0.0614878311753273,-0.085710309445858
18820045668750,0.6835445761680603,-9.837775230407715,0.5913678407669067,0.1397450715303421,-0.0564303919672966,-0.085710309445858
18820046905900,0.6763619780540466,-9.84495735168457,0.586579442024231,0.1360185444355011,-0.057228934019804,-0.0907677561044693
18820048143037,0.6332663297653198,-9.853337287902832,0.6045359373092651,0.1394788920879364,-0.0609554722905159,-0.0851779505610466
18820049380150,0.6835445761680603,-9.873687744140625,0.6380547285079956,0.1477305144071579,-0.0593583844602108,-0.085710309445858
18820050617262,0.6775590777397156,-9.834183692932129,0.6200982332229614,0.1448025107383728,-0.0614878311753273,-0.0854441300034523
18820051854400,0.6943184733390808,-9.836577415466309,0.6117185354232788,0.1408098042011261,-0.0609554722905159,-0.0865088552236557
18820053091550,0.6919242739677429,-9.838972091674805,0.6212953329086304,0.1381479948759079,-0.057228934019804,-0.0867750346660614
18820054328675,0.6631938815116882,-9.922768592834473,0.6416460871696472,0.1357523649930954,-0.0580274797976017,-0.0819837749004364
18820055565800,0.6871358752250671,-9.854534149169922,0.6248866319656372,0.1413421630859375,-0.0617540143430233,-0.0827823206782341
18820056802937,0.6607996821403503,-9.840168952941895,0.608127236366272,0.1463996022939682,-0.0617540143430233,-0.085710309445858
18820058040075,0.6631938815116882,-9.825803756713867,0.6440402865409851,0.1410759836435318,-0.0606892891228199,-0.0833146795630455
18820059277175,0.6596025824546814,-9.852140426635742,0.5973533391952515,0.1410759836435318,-0.0604231096804142,-0.0835808664560318
18820060514312,0.6572083830833435,-9.871294021606445,0.6428431868553162,0.1416083425283432,-0.0601569265127182,-0.0851779505610466
18820061751462,0.6799532771110535,-9.860519409179688,0.6356605291366577,0.1421407014131546,-0.0582936592400074,-0.0849117711186409
18820062988562,0.7158663272857666,-9.86650562286377,0.629675030708313,0.1410759836435318,-0.0580274797976017,-0.0891706645488739
18820064225725,0.646434485912323,-9.852140426635742,0.6236895322799683,0.1450686901807785,-0.0585598424077034,-0.0854441300034523
18820065462850,0.6655880808830261,-9.865307807922363,0.6919242739677429,0.14373779296875,-0.0614878311753273,-0.0827823206782341
18820066699975,0.7050924301147461,-9.825803756713867,0.6416460871696472,0.1373494416475296,-0.0574951171875,-0.0827823206782341
18820067937112,0.6823474764823914,-9.894038200378418,0.6105214357376099,0.1373494416475296,-0.0521714948117733,-0.0870412141084671
18820069174237,0.6919242739677429,-9.86889934539795,0.6368576288223267,0.1397450715303421,-0.0545671246945858,-0.081451416015625
18820070411350,0.6979097723960876,-9.862914085388184,0.5949591398239136,0.1384141743183136,-0.0612216517329216,-0.0817175954580307
18820071648500,0.6871358752250671,-9.858125686645508,0.6392518877983093,0.1362847238779068,-0.0548333041369915,-0.0843794047832489
18820072885637,0.7206547260284424,-9.848548889160156,0.628477931022644,0.1354861706495285,-0.0553656667470932,-0.081451416015625
18820074122750,0.6955155730247498,-9.876082420349121,0.7050924301147461,0.1354861706495285,-0.0593583844602108,-0.0846455842256546
18820075359875,0.6655880808830261,-9.872490882873535,0.6596025824546814,0.1320258229970932,-0.0638834610581398,-0.0865088552236557
18820076597037,0.6931213736534119,-9.891644477844238,0.6751648783683777,0.1344214528799057,-0.0543009415268898,-0.0825161412358284
18820077834162,0.707486629486084,-9.86889934539795,0.6883329749107361,0.1338890939950943,-0.0495096817612648,-0.0827823206782341
18820079071287,0.730231523513794,-9.850942611694336,0.6859387755393982,0.1370832622051239,-0.0558980293571949,-0.0827823206782341
18820080308412,0.6739677786827087,-9.853337287902832,0.6380547285079956,0.142673060297966,-0.0585598424077034,-0.081451416015625
18820081545550,0.7230489253997803,-9.86650562286377,0.645237386226654,0.1381479948759079,-0.0609554722905159,-0.0817175954580307
18820082782675,0.6727706789970398,-9.86650562286377,0.7015011310577393,0.1386803537607193,-0.0582936592400074,-0.0817175954580307
18820084019812,0.7218518257141113,-9.84376049041748,0.6955155730247498,0.137881800532341,-0.0543009415268898,-0.080919049680233
18820085256925,0.7374141216278076,-9.825803756713867,0.727837324142456,0.133090540766716,-0.0550994873046875,-0.081451416015625
18820086494075,0.6943184733390808,-9.824606895446777,0.6739677786827087,0.1354861706495285,-0.0561642125248909,-0.0798543319106102
18820087731187,0.6787561774253845,-9.828198432922363,0.667982280254364,0.1405436247587204,-0.0590922012925148,-0.0833146795630455
18820088968337,0.6979097723960876,-9.800664901733398,0.6823474764823914,0.1352199912071228,-0.0545671246945858,-0.0827823206782341
18820090205475,0.7086837291717529,-9.84495735168457,0.689530074596405,0.137881800532341,-0.0505744069814682,-0.0782572403550148
18820091442587,0.6835445761680603,-9.827000617980957,0.669179379940033,0.1362847238779068,-0.0455169677734375,-0.0827823206782341
18820092679725,0.6967126727104187,-9.793481826782227,0.6392518877983093,0.1280331015586853,-0.052703857421875,-0.0841132253408432
18820093916850,0.7206547260284424,-9.804256439208984,0.667982280254364,0.133090540766716,-0.0548333041369915,-0.0801205113530159
18820095153987,0.7481880187988281,-9.829395294189453,0.7194576263427734,0.1333567351102829,-0.0521714948117733,-0.0811852365732193
18820096391112,0.6979097723960876,-9.830592155456543,0.6955155730247498,0.1338890939950943,-0.0495096817612648,-0.0817175954580307
18820097628250,0.6955155730247498,-9.813833236694336,0.7218518257141113,0.1341552734375,-0.0447184219956398,-0.0822499617934227
18820098865362,0.7254431247711182,-9.849745750427246,0.6919242739677429,0.1349538117647171,-0.0543009415268898,-0.0851779505610466
18820100102512,0.7182605266571045,-9.819818496704102,0.7146692276000977,0.1368170827627182,-0.052437674254179,-0.0819837749004364
18820101339637,0.7577648162841797,-9.786299705505371,0.7721300721168518,0.1365509033203125,-0.0513729527592659,-0.0825161412358284
18820102576787,0.751779317855835,-9.81263542175293,0.7003040313720703,0.1373494416475296,-0.0516391322016716,-0.0806528702378273
18820103813887,0.7338228225708008,-9.828198432922363,0.7026982307434082,0.1349538117647171,-0.0545671246945858,-0.0833146795630455
18820105051025,0.6979097723960876,-9.830592155456543,0.6931213736534119,0.1344214528799057,-0.0508405901491642,-0.0865088552236557
18820106288150,0.7194576263427734,-9.84256362915039,0.7146692276000977,0.1357523649930954,-0.0487111397087574,-0.0870412141084671
18820107525275,0.750582218170166,-9.80904483795166,0.6991068720817566,0.1328243613243103,-0.0513729527592659,-0.0841132253408432
18820108762425,0.7362170219421387,-9.800664901733398,0.6727706789970398,0.1362847238779068,-0.0500420443713665,-0.0843794047832489
18820109999575,0.7422025203704834,-9.81143856048584,0.7026982307434082,0.1341552734375,-0.0519053116440773,-0.0849117711186409
18820111236675,0.7386112213134766,-9.81024169921875,0.7026982307434082,0.1349538117647171,-0.0495096817612648,-0.08624267578125
18820112473800,0.7230489253997803,-9.835380554199219,0.6967126727104187,0.1354861706495285,-0.0497758649289608,-0.0843794047832489
18820113710925,0.7422025203704834,-9.807847023010254,0.7362170219421387,0.138946533203125,-0.0495096817612648,-0.0795881450176239
18820114948062,0.7601590752601624,-9.828198432922363,0.7242460250854492,0.1402774304151535,-0.0513729527592659,-0.0795881450176239
18820116185187,0.7433996200561523,-9.81024169921875,0.707486629486084,0.1400112509727478,-0.0535023994743824,-0.0819837749004364
18820117422337,0.7422025203704834,-9.848548889160156,0.7098808288574219,0.1429392546415329,-0.0503082275390625,-0.081451416015625
18820118659450,0.7170634269714355,-9.829395294189453,0.727837324142456,0.14373779296875,-0.0503082275390625,-0.0838470458984375
18820119896587,0.7433996200561523,-9.84376049041748,0.7242460250854492,0.137881800532341,-0.0484449602663517,-0.0851779505610466
18820121133725,0.7422025203704834,-9.849745750427246,0.7481880187988281,0.1410759836435318,-0.0500420443713665,-0.085710309445858
18820122370850,0.751779317855835,-9.84256362915039,0.7398083209991455,0.1405436247587204,-0.0465816929936409,-0.0835808664560318
18820123607987,0.767341673374176,-9.87967300415039,0.7422025203704834,0.1394788920879364,-0.0519053116440773,-0.0817175954580307
18820124845112,0.7374141216278076,-9.84615421295166,0.7146692276000977,0.1424068808555603,-0.0516391322016716,-0.0838470458984375
18820126082262,0.7493851184844971,-9.831789016723633,0.750582218170166,0.1373494416475296,-0.0439198799431324,-0.0875735804438591
18820127319362,0.8056488633155823,-9.858125686645508,0.7469909191131592,0.1416083425283432,-0.0452507846057415,-0.0915662944316864
18820128556500,0.7601590752601624,-9.847352027893066,0.729034423828125,0.1448025107383728,-0.0513729527592659,-0.0854441300034523
18820129793637,0.7757213711738586,-9.86650562286377,0.750582218170166,0.1400112509727478,-0.0492435023188591,-0.0822499617934227
18820131030762,0.8056488633155823,-9.87967300415039,0.7194576263427734,0.1384141743183136,-0.0404595248401165,-0.0822499617934227
18820132267900,0.7386112213134766,-9.827000617980957,0.7433996200561523,0.1418745219707489,-0.0460493303835392,-0.0843794047832489
18820133505025,0.7852981686592102,-9.848548889160156,0.7422025203704834,0.1424068808555603,-0.0508405901491642,-0.0830485001206398
18820134742137,0.7445967197418213,-9.84376049041748,0.7529764175415039,0.1432054340839386,-0.0511067695915699,-0.0833146795630455
18820135979300,0.7613561749458313,-9.818621635437012,0.7613561749458313,0.138946533203125,-0.0487111397087574,-0.0838470458984375
18820137216400,0.7445967197418213,-9.84376049041748,0.7194576263427734,0.1410759836435318,-0.0447184219956398,-0.0841132253408432
18820138453525,0.7433996200561523,-9.830592155456543,0.7445967197418213,0.1432054340839386,-0.0503082275390625,-0.0851779505610466
18820139690687,0.7625532746315002,-9.847352027893066,0.7769184708595276,0.1424068808555603,-0.0487111397087574,-0.085710309445858
18820140927812,0.7697358727455139,-9.821015357971191,0.7350199222564697,0.142673060297966,-0.0487111397087574,-0.0889044851064682
18820142164950,0.7781155705451965,-9.800664901733398,0.7398083209991455,0.1384141743183136,-0.047646414488554,-0.0886383056640625
18820143402075,0.8068459630012512,-9.798270225524902,0.730231523513794,0.1432054340839386,-0.0497758649289608,-0.0825161412358284
18820144639200,0.7745242714881897,-9.860519409179688,0.7565677165985107,0.1410759836435318,-0.0489773228764534,-0.0873074010014534
18820145876337,0.7637503743171692,-9.886856079101562,0.7841010689735413,0.142673060297966,-0.0505744069814682,-0.0849117711186409
18820147113475,0.7709329724311829,-9.897629737854004,0.7146692276000977,0.1450686901807785,-0.0484449602663517,-0.080919049680233
18820148350587,0.7841010689735413,-9.861717224121094,0.7026982307434082,0.14373779296875,-0.0492435023188591,-0.0790557861328125
18820149587725,0.8140285611152649,-9.860519409179688,0.7350199222564697,0.14373779296875,-0.0513729527592659,-0.0859764963388443
18820150824875,0.7697358727455139,-9.84495735168457,0.7206547260284424,0.1370832622051239,-0.0545671246945858,-0.0894368439912796
18820152061975,0.7864952683448792,-9.856928825378418,0.7733271718025208,0.1405436247587204,-0.0543009415268898,-0.0907677561044693
18820153299125,0.7876923680305481,-9.858125686645508,0.7841010689735413,0.1381479948759079,-0.047646414488554,-0.0865088552236557
18820154536237,0.7541735172271729,-9.834183692932129,0.7601590752601624,0.1381479948759079,-0.047646414488554,-0.0835808664560318
18820155773387,0.8032546639442444,-9.852140426635742,0.7565677165985107,0.1405436247587204,-0.0521714948117733,-0.0878397598862648
18820157010512,0.7960720658302307,-9.861717224121094,0.7457938194274902,0.1418745219707489,-0.0556318499147892,-0.0849117711186409
18820158247637,0.8200140595436096,-9.847352027893066,0.729034423828125,0.1394788920879364,-0.0532362200319767,-0.0849117711186409
18820159484762,0.829590916633606,-9.834183692932129,0.7469909191131592,0.1370832622051239,-0.0503082275390625,-0.0851779505610466
18820160721887,0.7841010689735413,-9.840168952941895,0.7601590752601624,0.1405436247587204,-0.0532362200319767,-0.0835808664560318
18820161959037,0.7350199222564697,-9.860519409179688,0.7912836670875549,0.14373779296875,-0.0545671246945858,-0.0822499617934227
18820163196150,0.8044517636299133,-9.829395294189453,0.7374141216278076,0.1360185444355011,-0.0481787770986557,-0.0835808664560318
18820164433287,0.7972691655158997,-9.81024169921875,0.7817068696022034,0.1360185444355011,-0.0484449602663517,-0.0851779505610466
18820165670425,0.8092401623725891,-9.874884605407715,0.7841010689735413,0.1373494416475296,-0.0503082275390625,-0.085710309445858
18820166907562,0.8020575642585754,-9.8784761428833,0.7876923680305481,0.1392127126455307,-0.0535023994743824,-0.0819837749004364
18820168144687,0.7912836670875549,-9.858125686645508,0.751779317855835,0.1400112509727478,-0.0521714948117733,-0.0803866907954216
18820169381812,0.8343793153762817,-9.896432876586914,0.7206547260284424,0.1362847238779068,-0.0540347620844841,-0.0835808664560318
18820170618950,0.7876923680305481,-9.864110946655273,0.7733271718025208,0.1376156210899353,-0.0543009415268898,-0.0843794047832489
18820171856087,0.811634361743927,-9.84495735168457,0.7529764175415039,0.1325581818819046,-0.0505744069814682,-0.0865088552236557
18820173093225,0.7876923680305481,-9.86650562286377,0.7781155705451965,0.1285654753446579,-0.0521714948117733,-0.0838470458984375
18820174330337,0.8212112188339233,-9.883264541625977,0.7649474740028381,0.137881800532341,-0.052703857421875,-0.080919049680233
18820175567462,0.7769184708595276,-9.861717224121094,0.7649474740028381,0.1320258229970932,-0.0543009415268898,-0.0825161412358284
18820176804600,0.8212112188339233,-9.909601211547852,0.7613561749458313,0.1301625519990921,-0.0529700368642807,-0.0830485001206398
18820178041725,0.8451532125473022,-9.847352027893066,0.7697358727455139,0.1314934641122818,-0.0609554722905159,-0.0747968852519989
18820179278862,0.8056488633155823,-9.850942611694336,0.8056488633155823,0.1301625519990921,-0.0574951171875,-0.0769263356924057
18820180515987,0.7697358727455139,-9.86770248413086,0.8224083185195923,0.1304287314414978,-0.0566965714097023,-0.0803866907954216
18820181753112,0.829590916633606,-9.861717224121094,0.788889467716217,0.1304287314414978,-0.0550994873046875,-0.0801205113530159
18820182990250,0.828393816947937,-9.90241813659668,0.7793126702308655,0.1314934641122818,-0.0561642125248909,-0.0729336217045784
18820184227387,0.8008604645729065,-9.920374870300293,0.7852981686592102,0.1362847238779068,-0.0553656667470932,-0.07666015625
18820185464500,0.8080430626869202,-9.889249801635742,0.7912836670875549,0.1280331015586853,-0.0558980293571949,-0.0739983469247818
18820186701650,0.828393816947937,-9.93354320526123,0.7924807667732239,0.1309611052274704,-0.0564303919672966,-0.0753292515873909
18820187938787,0.7781155705451965,-9.859322547912598,0.7841010689735413,0.1296301931142807,-0.0548333041369915,-0.0753292515873909
18820189175900,0.8319851160049438,-9.914389610290527,0.8271967172622681,0.1259036511182785,-0.0521714948117733,-0.0753292515873909
18820190413037,0.8259996175765991,-9.888052940368652,0.8152256608009338,0.1259036511182785,-0.0548333041369915,-0.0753292515873909
18820191650162,0.8595184087753296,-9.884461402893066,0.8092401623725891,0.1232418492436409,-0.0580274797976017,-0.0771925151348114
18820192887300,0.8164227604866028,-9.895236015319824,0.7936778664588928,0.124040387570858,-0.0543009415268898,-0.0739983469247818
18820194124437,0.8020575642585754,-9.880870819091797,0.8008604645729065,0.1277669221162796,-0.0588260218501091,-0.0702718123793602
18820195361562,0.790086567401886,-9.897629737854004,0.849941611289978,0.128299281001091,-0.0585598424077034,-0.0745307058095932
18820196598712,0.8547300100326538,-9.870096206665039,0.811634361743927,0.1235080286860466,-0.0598907470703125,-0.0737321600317955
18820197835837,0.8583213090896606,-9.873687744140625,0.790086567401886,0.1181844025850296,-0.0577612966299057,-0.0777248814702034
18820199072950,0.8224083185195923,-9.892841339111328,0.7769184708595276,0.1181844025850296,-0.057228934019804,-0.0729336217045784
18820200310075,0.8475474119186401,-9.860519409179688,0.811634361743927,0.1189829483628273,-0.0574951171875,-0.0689409002661705
18820201547237,0.8439561128616333,-9.87967300415039,0.7805097699165344,0.1203138530254364,-0.0601569265127182,-0.0739983469247818
18820202784350,0.8236054182052612,-9.862914085388184,0.8188169598579407,0.119781494140625,-0.0593583844602108,-0.0750630721449852
18820204021487,0.8607155084609985,-9.877279281616211,0.7805097699165344,0.1200476735830307,-0.0556318499147892,-0.066545270383358
18820205258612,0.8523358106613159,-9.832986831665039,0.8224083185195923,0.114457868039608,-0.0596245639026165,-0.0724012553691864
18820206495737,0.849941611289978,-9.860519409179688,0.851138710975647,0.1165873184800148,-0.0604231096804142,-0.0710703507065773
18820207732875,0.8451532125473022,-9.864110946655273,0.7948749661445618,0.1125946044921875,-0.0556318499147892,-0.0633511021733284
18820208970012,0.8678981065750122,-9.910798072814941,0.7996633648872375,0.1139255091547966,-0.0556318499147892,-0.0686747208237648
18820210207137,0.851138710975647,-9.860519409179688,0.7745242714881897,0.114990234375,-0.0633511021733284,-0.0638834610581398
18820211444275,0.912190854549408,-9.84376049041748,0.8451532125473022,0.1152564138174057,-0.0588260218501091,-0.0649481862783432
18820212681412,0.8259996175765991,-9.841365814208984,0.8762778043746948,0.114457868039608,-0.0577612966299057,-0.0705379918217659
18820213918537,0.8008604645729065,-9.923966407775879,0.8379706144332886,0.1176520437002182,-0.0593583844602108,-0.071336530148983
18820215155675,0.8224083185195923,-9.827000617980957,0.8224083185195923,0.1160549595952034,-0.0593583844602108,-0.0614878311753273
18820216392787,0.828393816947937,-9.84495735168457,0.7996633648872375,0.1109975129365921,-0.0577612966299057,-0.0625525563955307
18820217629925,0.8176198601722717,-9.886856079101562,0.8331822156906128,0.1120622381567955,-0.0556318499147892,-0.0625525563955307
18820218867037,0.8415619134902954,-9.865307807922363,0.8259996175765991,0.1141916885972023,-0.0564303919672966,-0.0636172816157341
18820220104187,0.8655039072036743,-9.876082420349121,0.8487445116043091,0.110198974609375,-0.0633511021733284,-0.0633511021733284
18820221341325,0.8547300100326538,-9.849745750427246,0.8631097078323364,0.1131269633769989,-0.0654805526137352,-0.0614878311753273
18820222578437,0.8092401623725891,-9.856928825378418,0.7936778664588928,0.1109975129365921,-0.0609554722905159,-0.0649481862783432
18820223815575,0.812831461429596,-9.864110946655273,0.8236054182052612,0.1125946044921875,-0.0550994873046875,-0.0668114572763443
18820225052712,0.8355764150619507,-9.849745750427246,0.8152256608009338,0.1123284250497818,-0.0604231096804142,-0.0590922012925148
18820226289837,0.8224083185195923,-9.870096206665039,0.8403648138046265,0.1051415354013443,-0.0577612966299057,-0.062020193785429
18820227526975,0.8176198601722717,-9.90122127532959,0.8702923059463501,0.1075371652841568,-0.0564303919672966,-0.0617540143430233
18820228764112,0.8487445116043091,-9.892841339111328,0.8571242094039917,0.1003502756357193,-0.0580274797976017,-0.0604231096804142
18820230001225,0.811634361743927,-9.87967300415039,0.8427590131759644,0.104875348508358,-0.0588260218501091,-0.0609554722905159
18820231238350,0.7972691655158997,-9.911994934082031,0.9301473498344421,0.1088680699467659,-0.0564303919672966,-0.0598907470703125
18820232475487,0.8415619134902954,-9.919178009033203,0.8439561128616333,0.10540771484375,-0.057228934019804,-0.057228934019804
18820233712625,0.8367735147476196,-9.889249801635742,0.8547300100326538,0.1043429896235466,-0.0614878311753273,-0.0529700368642807
18820234949775,0.8403648138046265,-9.864110946655273,0.8379706144332886,0.1016811802983284,-0.0588260218501091,-0.0604231096804142
18820236186887,0.8535329103469849,-9.882067680358887,0.8738836050033569,0.1024797186255455,-0.0561642125248909,-0.0585598424077034
18820237424012,0.8978256583213806,-9.904812812805176,0.8655039072036743,0.1062062531709671,-0.062020193785429,-0.0503082275390625
18820238661150,0.8307880163192749,-9.906009674072266,0.8774749040603638,0.1032782644033432,-0.0593583844602108,-0.0545671246945858
18820239898275,0.8259996175765991,-9.874884605407715,0.9097966551780701,0.0990193635225296,-0.0585598424077034,-0.0585598424077034
18820241135400,0.9002198576927185,-9.9000244140625,0.8822633624076843,0.1011488139629364,-0.0625525563955307,-0.0582936592400074
18820242372525,0.8559271097183228,-9.906009674072266,0.9050082564353943,0.1008826345205307,-0.0550994873046875,-0.0550994873046875
18820243609675,0.8702923059463501,-9.886856079101562,0.888248860836029,0.0990193635225296,-0.0604231096804142,-0.0529700368642807
18820244846800,0.8248025178909302,-9.8784761428833,0.8690952062606812,0.0982208251953125,-0.0638834610581398,-0.0513729527592659
18820246083937,0.8607155084609985,-9.890447616577148,0.8655039072036743,0.100616455078125,-0.0590922012925148,-0.0511067695915699
18820247321062,0.8750807046890259,-9.882067680358887,0.9038111567497253,0.0968899205327034,-0.052703857421875,-0.0513729527592659
18820248558200,0.872686505317688,-9.862914085388184,0.9050082564353943,0.0931633859872818,-0.0569627545773983,-0.0569627545773983
18820249795337,0.8762778043746948,-9.84615421295166,0.8822633624076843,0.0928971990942955,-0.0588260218501091,-0.0569627545773983
18820251032462,0.8750807046890259,-9.87967300415039,0.8667010068893433,0.0963575541973114,-0.0588260218501091,-0.0489773228764534
18820252269600,0.8954314589500427,-9.864110946655273,0.8655039072036743,0.095292828977108,-0.0598907470703125,-0.0481787770986557
18820253506737,0.8918401598930359,-9.834183692932129,0.8978256583213806,0.0915662944316864,-0.0641496405005455,-0.0489773228764534
18820254743850,0.8702923059463501,-9.850942611694336,0.9002198576927185,0.095292828977108,-0.0654805526137352,-0.0465816929936409
18820255980975,0.8786720037460327,-9.854534149169922,0.8942343592643738,0.0971560999751091,-0.0636172816157341,-0.0492435023188591
18820257218112,0.871489405632019,-9.882067680358887,0.8571242094039917,0.0955590158700943,-0.0585598424077034,-0.0505744069814682
18820258455237,0.8643068075180054,-9.84615421295166,0.9074024558067322,0.0923648402094841,-0.0566965714097023,-0.052437674254179
18820259692375,0.8822633624076843,-9.885659217834473,0.8966285586357117,0.0886383056640625,-0.0585598424077034,-0.0481787770986557
18820260929525,0.8667010068893433,-9.854534149169922,0.8690952062606812,0.0865088552236557,-0.0582936592400074,-0.0535023994743824
18820262166637,0.872686505317688,-9.86650562286377,0.8834604620933533,0.0873074010014534,-0.0612216517329216,-0.0471140518784523
18820263403775,0.8379706144332886,-9.895236015319824,0.8978256583213806,0.0881059393286705,-0.0614878311753273,-0.0457831472158432
18820264640900,0.8607155084609985,-9.882067680358887,0.888248860836029,0.0870412141084671,-0.0612216517329216,-0.0495096817612648
18820265878037,0.8355764150619507,-9.84495735168457,0.9157821536064148,0.0817175954580307,-0.0580274797976017,-0.0513729527592659
18820267115162,0.8571242094039917,-9.864110946655273,0.8738836050033569,0.0851779505610466,-0.0604231096804142,-0.0465816929936409
18820268352300,0.8307880163192749,-9.876082420349121,0.8643068075180054,0.0846455842256546,-0.0606892891228199,-0.0465816929936409
18820269589437,0.8092401623725891,-9.831789016723633,0.8678981065750122,0.0833146795630455,-0.057228934019804,-0.0471140518784523
18820270826537,0.912190854549408,-9.872490882873535,0.871489405632019,0.0838470458984375,-0.0601569265127182,-0.0396609827876091
18820272063700,0.8367735147476196,-9.917980194091797,0.8439561128616333,0.080919049680233,-0.0580274797976017,-0.0436537005007267
18820273300812,0.8774749040603638,-9.873687744140625,0.8834604620933533,0.0822499617934227,-0.0558980293571949,-0.0441860631108284
18820274537937,0.829590916633606,-9.889249801635742,0.8966285586357117,0.0819837749004364,-0.0564303919672966,-0.0468478724360466
18820275775087,0.8619126081466675,-9.90361499786377,0.8559271097183228,0.0822499617934227,-0.0543009415268898,-0.0457831472158432
18820277012212,0.8678981065750122,-9.8784761428833,0.9169792532920837,0.0782572403550148,-0.0588260218501091,-0.0465816929936409
18820278249337,0.8906430602073669,-9.862914085388184,0.9026140570640564,0.0777248814702034,-0.0590922012925148,-0.0441860631108284
18820279486487,0.8427590131759644,-9.86650562286377,0.8870517611503601,0.076127789914608,-0.0601569265127182,-0.043121337890625
18820280723612,0.8810662031173706,-9.891644477844238,0.8810662031173706,0.07666015625,-0.0596245639026165,-0.0441860631108284
18820281960737,0.8834604620933533,-9.884461402893066,0.9038111567497253,0.0811852365732193,-0.0550994873046875,-0.0441860631108284
18820283197862,0.871489405632019,-9.873687744140625,0.8990227580070496,0.0694732666015625,-0.0535023994743824,-0.0420566126704216
18820284434987,0.8870517611503601,-9.8784761428833,0.8858546614646912,0.0716027170419693,-0.0543009415268898,-0.0415242500603199
18820285672100,0.8810662031173706,-9.914389610290527,0.9217676520347595,0.0747968852519989,-0.052703857421875,-0.0423227921128273
18820286909262,0.8595184087753296,-9.862914085388184,0.9253589510917664,0.0739983469247818,-0.0556318499147892,-0.0439198799431324
18820288146375,0.8930372595787048,-9.911994934082031,0.9229647517204285,0.0689409002661705,-0.0545671246945858,-0.0433875173330307
18820289383537,0.8774749040603638,-9.9000244140625,0.8523358106613159,0.06707763671875,-0.0566965714097023,-0.0420566126704216
18820290620650,0.8535329103469849,-9.86770248413086,0.8798691034317017,0.0662790909409523,-0.057228934019804,-0.0420566126704216
18820291857787,0.8942343592643738,-9.9000244140625,0.8906430602073669,0.0673438161611557,-0.0543009415268898,-0.0377977155148983
18820293094912,0.8870517611503601,-9.890447616577148,0.888248860836029,0.0676099956035614,-0.0545671246945858,-0.0399271659553051
18820294332050,0.8595184087753296,-9.904812812805176,0.9253589510917664,0.0654805526137352,-0.0548333041369915,-0.0391286201775074
18820295569175,0.888248860836029,-9.865307807922363,0.8906430602073669,0.062286376953125,-0.0505744069814682,-0.0388624407351017
18820296806312,0.8547300100326538,-9.886856079101562,0.888248860836029,0.0676099956035614,-0.0540347620844841,-0.0399271659553051
18820298043450,0.9002198576927185,-9.874884605407715,0.8942343592643738,0.0633511021733284,-0.0574951171875,-0.038330078125
18820299280562,0.8619126081466675,-9.907206535339355,0.9229647517204285,0.0641496405005455,-0.0558980293571949,-0.0319417305290699
18820300517700,0.8810662031173706,-9.886856079101562,0.9097966551780701,0.0638834610581398,-0.0505744069814682,-0.0364668108522892
18820301754825,0.871489405632019,-9.865307807922363,0.8990227580070496,0.0604231096804142,-0.04791259765625,-0.0396609827876091
18820302991950,0.910993754863739,-9.889249801635742,0.8738836050033569,0.0601569265127182,-0.0545671246945858,-0.0391286201775074
18820304229100,0.8954314589500427,-9.872490882873535,0.8762778043746948,0.0612216517329216,-0.0558980293571949,-0.0343373604118824
18820305466212,0.889445960521698,-9.886856079101562,0.9133879542350769,0.0588260218501091,-0.0532362200319767,-0.0372653529047966
18820306703362,0.8750807046890259,-9.910798072814941,0.9014169573783875,0.0558980293571949,-0.0543009415268898,-0.0420566126704216
18820307940487,0.8954314589500427,-9.874884605407715,0.9038111567497253,0.0590922012925148,-0.0505744069814682,-0.0377977155148983
18820309177625,0.8690952062606812,-9.832986831665039,0.9026140570640564,0.0577612966299057,-0.052703857421875,-0.0354020856320858
18820310414737,0.9038111567497253,-9.836577415466309,0.8834604620933533,0.0556318499147892,-0.0521714948117733,-0.0348697230219841
18820311651875,0.8942343592643738,-9.841365814208984,0.888248860836029,0.0548333041369915,-0.0513729527592659,-0.0362006276845932
18820312889000,0.9097966551780701,-9.865307807922363,0.8978256583213806,0.0564303919672966,-0.0513729527592659,-0.0364668108522892
18820314126137,0.8918401598930359,-9.871294021606445,0.8966285586357117,0.0553656667470932,-0.0535023994743824,-0.033272635191679
18820315363250,0.9038111567497253,-9.865307807922363,0.9145850539207458,0.0556318499147892,-0.0543009415268898,-0.0367329902946949
18820316600387,0.8870517611503601,-9.856928825378418,0.9193734526634216,0.0561642125248909,-0.0497758649289608,-0.0351359061896801
18820317837537,0.8918401598930359,-9.854534149169922,0.9409212470054626,0.0598907470703125,-0.0535023994743824,-0.0369991734623909
18820319074662,0.8774749040603638,-9.84495735168457,0.9612720012664795,0.052437674254179,-0.0535023994743824,-0.0351359061896801
18820320311800,0.8846575617790222,-9.822212219238281,0.9397241473197937,0.0511067695915699,-0.0492435023188591,-0.0327402763068676
18820321548937,0.8738836050033569,-9.847352027893066,0.9241618514060974,0.0513729527592659,-0.0439198799431324,-0.0343373604118824
18820322786050,0.8834604620933533,-9.884461402893066,0.93254154920578,0.0540347620844841,-0.0481787770986557,-0.0316755510866642
18820324023175,0.933738648891449,-9.821015357971191,0.9421183466911316,0.0484449602663517,-0.0473802350461483,-0.0314093679189682
18820325260312,0.8834604620933533,-9.860519409179688,0.8798691034317017,0.0516391322016716,-0.0481787770986557,-0.0311431884765625
18820326497450,0.9097966551780701,-9.829395294189453,0.9349357485771179,0.0457831472158432,-0.0500420443713665,-0.0367329902946949
18820327734587,0.9085995554924011,-9.840168952941895,0.9397241473197937,0.0500420443713665,-0.0511067695915699,-0.0354020856320858
18820328971725,0.9241618514060974,-9.86889934539795,0.8942343592643738,0.0513729527592659,-0.0503082275390625,-0.0311431884765625
18820330208837,0.933738648891449,-9.803058624267578,0.8870517611503601,0.04791259765625,-0.0492435023188591,-0.0375315360724926
18820331445975,0.9265560507774353,-9.828198432922363,0.8870517611503601,0.0436537005007267,-0.0460493303835392,-0.033272635191679
18820332683100,0.9002198576927185,-9.823410034179688,0.8918401598930359,0.0484449602663517,-0.0465816929936409,-0.0311431884765625
18820333920250,0.9026140570640564,-9.80904483795166,0.910993754863739,0.0444522425532341,-0.0497758649289608,-0.0295461006462574
18820335157362,0.9361328482627869,-9.822212219238281,0.9241618514060974,0.0487111397087574,-0.0436537005007267,-0.0372653529047966
18820336394487,0.9014169573783875,-9.822212219238281,0.933738648891449,0.047646414488554,-0.047646414488554,-0.0316755510866642
18820337631625,0.888248860836029,-9.769539833068848,0.9528923034667969,0.0473802350461483,-0.0500420443713665,-0.03087700717151165
18820338868762,0.910993754863739,-9.840168952941895,0.9361328482627869,0.0473802350461483,-0.0441860631108284,-0.0348697230219841
18820340105887,0.8846575617790222,-9.829395294189453,0.933738648891449,0.043121337890625,-0.0404595248401165,-0.0354020856320858
18820341343025,0.9349357485771179,-9.804256439208984,0.8870517611503601,0.0439198799431324,-0.0401933453977108,-0.03034464456140995
18820342580137,0.9385270476341248,-9.834183692932129,0.9684545993804932,0.0439198799431324,-0.0447184219956398,-0.0311431884765625
18820343817287,0.9133879542350769,-9.819818496704102,0.9516952037811279,0.0473802350461483,-0.0425889752805233,-0.0346035435795784
18820345054412,0.8643068075180054,-9.829395294189453,0.9624691009521484,0.047646414488554,-0.0433875173330307,-0.0314093679189682
18820346291550,0.8978256583213806,-9.830592155456543,0.9026140570640564,0.0529700368642807,-0.0447184219956398,-0.0324740931391716
18820347528675,0.9002198576927185,-9.815030097961426,0.9038111567497253,0.0492435023188591,-0.0409918874502182,-0.0343373604118824
18820348765812,0.9624691009521484,-9.815030097961426,0.9385270476341248,0.0460493303835392,-0.0415242500603199,-0.0324740931391716
18820350002950,0.950498104095459,-9.81143856048584,0.9397241473197937,0.0423227921128273,-0.0444522425532341,-0.0338049978017807
18820351240087,0.9193734526634216,-9.797073364257812,0.9133879542350769,0.0463155098259449,-0.0449846051633358,-0.0364668108522892
18820352477200,0.933738648891449,-9.824606895446777,0.9277531504631042,0.047646414488554,-0.0423227921128273,-0.0338049978017807
18820353714325,0.9516952037811279,-9.794679641723633,0.9445126056671143,0.0452507846057415,-0.0388624407351017,-0.0295461006462574
18820354951475,0.9205705523490906,-9.84495735168457,0.9612720012664795,0.0449846051633358,-0.0375315360724926,-0.0314093679189682
18820356188575,0.8798691034317017,-9.834183692932129,0.9169792532920837,0.043121337890625,-0.038063894957304,-0.0322079136967659
18820357425737,0.9169792532920837,-9.823410034179688,0.9409212470054626,0.0425889752805233,-0.0377977155148983,-0.0351359061896801
18820358662862,0.9181763529777527,-9.786299705505371,0.950498104095459,0.047646414488554,-0.0401933453977108,-0.033538818359375
18820359899987,0.9421183466911316,-9.828198432922363,0.9624691009521484,0.0489773228764534,-0.0391286201775074,-0.02901373989880085
18820361137137,0.9564836025238037,-9.824606895446777,0.9684545993804932,0.0452507846057415,-0.0420566126704216,-0.0340711809694767
18820362374250,0.9516952037811279,-9.823410034179688,0.9349357485771179,0.0436537005007267,-0.043121337890625,-0.0340711809694767
18820363611387,0.9421183466911316,-9.84495735168457,0.950498104095459,0.0425889752805233,-0.0369991734623909,-0.0319417305290699
18820364848500,0.9552865028381348,-9.827000617980957,0.9313444495201111,0.047646414488554,-0.0338049978017807,-0.038063894957304
18820366085637,0.9481039047241211,-9.828198432922363,0.8774749040603638,0.0444522425532341,-0.0348697230219841,-0.0354020856320858
18820367322775,0.9277531504631042,-9.838972091674805,0.9289502501487732,0.0441860631108284,-0.0369991734623909,-0.0324740931391716
18820368559912,0.9576807022094727,-9.81024169921875,0.9361328482627869,0.0439198799431324,-0.0385962575674057,-0.0354020856320858
18820369797025,0.9289502501487732,-9.81263542175293,0.9409212470054626,0.0444522425532341,-0.0330064557492733,-0.0375315360724926
18820371034187,0.8846575617790222,-9.803058624267578,0.9528923034667969,0.043121337890625,-0.0369991734623909,-0.0401933453977108
18820372271300,0.9421183466911316,-9.7791166305542,0.9636662006378174,0.0393948033452034,-0.0364668108522892,-0.0354020856320858
18820373508450,0.94930100440979,-9.804256439208984,0.912190854549408,0.0449846051633358,-0.0327402763068676,-0.0330064557492733
18820374745562,0.9409212470054626,-9.838972091674805,0.9421183466911316,0.0420566126704216,-0.0346035435795784,-0.0359344482421875
18820375982687,0.9469068050384521,-9.793481826782227,0.9696516990661621,0.0473802350461483,-0.0340711809694767,-0.0356682650744915
18820377219825,0.94930100440979,-9.817423820495605,0.9409212470054626,0.0465816929936409,-0.0359344482421875,-0.0324740931391716
18820378456975,0.9540894031524658,-9.77672290802002,0.9038111567497253,0.0463155098259449,-0.0348697230219841,-0.0348697230219841
18820379694075,0.9540894031524658,-9.853337287902832,0.9445126056671143,0.0444522425532341,-0.0340711809694767,-0.0343373604118824
18820380931212,0.9038111567497253,-9.830592155456543,0.9469068050384521,0.0439198799431324,-0.0282151959836483,-0.0324740931391716
18820382168337,0.9600749015808105,-9.804256439208984,0.9528923034667969,0.0444522425532341,-0.0354020856320858,-0.0348697230219841
18820383405475,0.9409212470054626,-9.827000617980957,0.8918401598930359,0.0463155098259449,-0.0316755510866642,-0.0369991734623909
18820384642612,0.9421183466911316,-9.805453300476074,0.9026140570640564,0.0447184219956398,-0.02661811001598835,-0.0425889752805233
18820385879737,0.9552865028381348,-9.829395294189453,0.9385270476341248,0.0441860631108284,-0.0327402763068676,-0.033538818359375
18820387116862,0.94930100440979,-9.84615421295166,0.933738648891449,0.0468478724360466,-0.0306108258664608,-0.0324740931391716
18820388353987,0.9684545993804932,-9.824606895446777,0.9181763529777527,0.0457831472158432,-0.0319417305290699,-0.0359344482421875
18820389591150,0.9768342971801758,-9.795876502990723,0.9457097053527832,0.0455169677734375,-0.0316755510866642,-0.0327402763068676
18820390828262,0.9840168952941895,-9.768342971801758,0.9421183466911316,0.0401933453977108,-0.0314093679189682,-0.0367329902946949
18820392065400,0.9876081943511963,-9.77552604675293,0.9289502501487732,0.0457831472158432,-0.0292799212038517,-0.0354020856320858
18820393302525,0.9828197956085205,-9.793481826782227,0.9648633003234863,0.0463155098259449,-0.02661811001598835,-0.0362006276845932
18820394539675,0.9720458984375,-9.785102844238281,0.9397241473197937,0.0471140518784523,-0.0252872034907341,-0.0351359061896801
18820395776800,0.9660604000091553,-9.783905029296875,0.8954314589500427,0.0473802350461483,-0.0244886614382267,-0.0338049978017807
18820397013937,0.9409212470054626,-9.832986831665039,0.9540894031524658,0.0468478724360466,-0.0276828333735466,-0.0340711809694767
18820398251062,0.9469068050384521,-9.807847023010254,0.9301473498344421,0.0441860631108284,-0.03034464456140995,-0.0340711809694767
18820399488187,0.9684545993804932,-9.813833236694336,0.9720458984375,0.0455169677734375,-0.02502102218568325,-0.0356682650744915
18820400725325,0.9648633003234863,-9.795876502990723,0.950498104095459,0.047646414488554,-0.02661811001598835,-0.0324740931391716
18820401962450,0.9660604000091553,-9.768342971801758,0.9552865028381348,0.0460493303835392,-0.02502102218568325,-0.033538818359375
18820403199587,0.9983820915222168,-9.81024169921875,0.933738648891449,0.0473802350461483,-0.02794901467859745,-0.0338049978017807
18820404436712,0.993593692779541,-9.765949249267578,0.9301473498344421,0.0452507846057415,-0.0300784632563591,-0.0354020856320858
18820405673850,0.9409212470054626,-9.786299705505371,0.9349357485771179,0.0452507846057415,-0.0282151959836483,-0.0354020856320858
18820406910962,0.9911994934082031,-9.825803756713867,0.9648633003234863,0.0460493303835392,-0.02502102218568325,-0.0311431884765625
18820408148112,0.9588778018951416,-9.789891242980957,0.9864110946655273,0.0489773228764534,-0.02262539230287075,-0.02901373989880085
18820409385250,0.9696516990661621,-9.795876502990723,0.9433155059814453,0.0465816929936409,-0.023956298828125,-0.033538818359375
18820410622375,0.9876081943511963,-9.813833236694336,0.9050082564353943,0.0436537005007267,-0.0223592109978199,-0.0346035435795784
18820411859500,0.9852139949798584,-9.786299705505371,0.9540894031524658,0.0519053116440773,-0.0327402763068676,-0.02981228195130825
18820413096637,0.9660604000091553,-9.800664901733398,0.9361328482627869,0.0489773228764534,-0.02422248013317585,-0.0292799212038517
18820414333762,0.9636662006378174,-9.81263542175293,0.9229647517204285,0.0471140518784523,-0.0234239362180233,-0.02981228195130825
18820415570900,0.973242998123169,-9.829395294189453,0.9217676520347595,0.0495096817612648,-0.0263519287109375,-0.0362006276845932
18820416808025,0.9852139949798584,-9.774328231811523,0.9241618514060974,0.0471140518784523,-0.0234239362180233,-0.038063894957304
18820418045150,0.9672574996948242,-9.818621635437012,0.9361328482627869,0.0396609827876091,-0.01703559048473835,-0.0393948033452034
18820419282287,0.9911994934082031,-9.801861763000488,0.9588778018951416,0.0481787770986557,-0.0234239362180233,-0.0367329902946949
18820420519412,0.9624691009521484,-9.804256439208984,0.9205705523490906,0.0508405901491642,-0.0210283063352108,-0.0327402763068676
18820421756562,0.9600749015808105,-9.789891242980957,0.9313444495201111,0.0508405901491642,-0.02076212503015995,-0.0311431884765625
18820422993687,0.9576807022094727,-9.816226959228516,0.9696516990661621,0.0489773228764534,-0.02422248013317585,-0.0311431884765625
18820424230825,0.9959878921508789,-9.827000617980957,0.9600749015808105,0.0457831472158432,-0.0196974016726017,-0.0356682650744915
18820425467937,0.9744400978088379,-9.848548889160156,0.94930100440979,0.0468478724360466,-0.02182685025036335,-0.03087700717151165
18820426705075,0.9923965930938721,-9.807847023010254,0.9445126056671143,0.0500420443713665,-0.02076212503015995,-0.0311431884765625
18820427942225,0.9864110946655273,-9.81143856048584,0.9612720012664795,0.0489773228764534,-0.0196974016726017,-0.0319417305290699
18820429179337,0.9888052940368652,-9.821015357971191,0.9145850539207458,0.0487111397087574,-0.0167694091796875,-0.0314093679189682
18820430416475,0.9313444495201111,-9.850942611694336,0.9696516990661621,0.0460493303835392,-0.01756795309484005,-0.02848137728869915
18820431653612,0.9516952037811279,-9.832986831665039,0.9469068050384521,0.0497758649289608,-0.01756795309484005,-0.0263519287109375
18820432890725,0.9911994934082031,-9.823410034179688,0.9277531504631042,0.047646414488554,-0.0215606689453125,-0.0300784632563591
18820434127875,0.9636662006378174,-9.841365814208984,0.9648633003234863,0.0463155098259449,-0.02022976242005825,-0.02848137728869915
18820435364975,0.9433155059814453,-9.852140426635742,0.9421183466911316,0.047646414488554,-0.0186326764523983,-0.02981228195130825
18820436602150,0.9792284965515137,-9.830592155456543,0.9133879542350769,0.0455169677734375,-0.015172322280704975,-0.0295461006462574
18820437839262,1.0031704902648926,-9.84256362915039,0.9085995554924011,0.0460493303835392,-0.01410759799182415,-0.02848137728869915
18820439076400,0.9672574996948242,-9.861717224121094,0.9660604000091553,0.0511067695915699,-0.02129448764026165,-0.0244886614382267
18820440313525,0.9959878921508789,-9.827000617980957,0.9133879542350769,0.0452507846057415,-0.0173017717897892,-0.02794901467859745
18820441550650,0.9983820915222168,-9.836577415466309,0.9457097053527832,0.0457831472158432,-0.01756795309484005,-0.0276828333735466
18820442787787,0.9911994934082031,-9.813833236694336,0.9457097053527832,0.0457831472158432,-0.0162370465695858,-0.02661811001598835
18820444024912,0.9816226959228516,-9.834183692932129,0.9564836025238037,0.0463155098259449,-0.01597086526453495,-0.0271504707634449
18820445262062,1.0031704902648926,-9.801861763000488,0.9074024558067322,0.0447184219956398,-0.0167694091796875,-0.02661811001598835
18820446499187,0.9959878921508789,-9.861717224121094,0.9660604000091553,0.0447184219956398,-0.013042873702943325,-0.0234239362180233
18820447736325,0.99479079246521,-9.874884605407715,0.9373299479484558,0.0460493303835392,-0.01410759799182415,-0.0228915736079216
18820448973462,0.9852139949798584,-9.847352027893066,0.9433155059814453,0.042855154722929,-0.0157046839594841,-0.02182685025036335
18820450210575,1.0319008827209473,-9.799468040466309,0.9720458984375,0.0391286201775074,-0.0181003138422966,-0.0258195661008358
18820451447725,1.05105459690094,-9.84256362915039,0.9421183466911316,0.0425889752805233,-0.01756795309484005,-0.0271504707634449
18820452684850,1.0115501880645752,-9.847352027893066,0.9289502501487732,0.0409918874502182,-0.0157046839594841,-0.0228915736079216
18820453921975,1.0522516965866089,-9.830592155456543,0.9241618514060974,0.0420566126704216,-0.01463996060192585,-0.0228915736079216
18820455159100,1.0235211849212646,-9.847352027893066,0.9636662006378174,0.0436537005007267,-0.01410759799182415,-0.0223592109978199
18820456396250,1.0043675899505615,-9.834183692932129,0.9552865028381348,0.0436537005007267,-0.01889885775744915,-0.01836649514734745
18820457633362,0.9900023937225342,-9.84376049041748,0.950498104095459,0.0436537005007267,-0.0210283063352108,-0.0204959437251091
18820458870512,1.0043675899505615,-9.847352027893066,0.9361328482627869,0.0436537005007267,-0.0215606689453125,-0.01836649514734745
18820460107625,1.0031704902648926,-9.888052940368652,0.9241618514060974,0.0444522425532341,-0.01117960549890995,-0.02661811001598835
18820461344762,0.9756371974945068,-9.861717224121094,0.9289502501487732,0.0425889752805233,-0.01117960549890995,-0.02422248013317585
18820462581887,0.9923965930938721,-9.816226959228516,0.9720458984375,0.0396609827876091,-0.015438503585755825,-0.0204959437251091
18820463819037,0.9923965930938721,-9.835380554199219,0.973242998123169,0.0367329902946949,-0.0157046839594841,-0.02076212503015995
18820465056162,1.0271124839782715,-9.885659217834473,0.9433155059814453,0.033272635191679,-0.0162370465695858,-0.02502102218568325
18820466293287,1.0091559886932373,-9.855731010437012,0.9696516990661621,0.038330078125,-0.0181003138422966,-0.01996358297765255
