timestamp_ns,accel_x,accel_y,accel_z,gyro_x,gyro_y,gyro_z
2949319921512,-0.933738648891449,-9.624691009521484,-0.629675030708313,-0.0327402763068676,-0.4344075322151184,0.0138414166867733
2949321158800,-0.9433155059814453,-9.606734275817871,-0.6488286852836609,-0.0375315360724926,-0.433875173330307,0.0119781494140625
2949322396125,-0.9780313968658447,-9.622296333312988,-0.6332663297653198,-0.0354020856320858,-0.4402635395526886,0.015438503585755825
2949323633412,-0.9971849918365479,-9.677363395690918,-0.6045359373092651,-0.0340711809694767,-0.4429253339767456,0.00931633822619915
2949324870725,-0.9516952037811279,-9.651026725769043,-0.6380547285079956,-0.0343373604118824,-0.4477165937423706,0.00931633822619915
2949326108025,-0.9816226959228516,-9.684545516967773,-0.6440402865409851,-0.0340711809694767,-0.4543711245059967,0.007453070487827063
2949327345337,-0.9864110946655273,-9.647436141967773,-0.5793968439102173,-0.0295461006462574,-0.4546373188495636,0.0023956298828125
2949328582650,-0.9277531504631042,-9.66299819946289,-0.5781997442245483,-0.02981228195130825,-0.4612918496131897,0.0077192517928779125
2949329819962,-0.9995791912078857,-9.65222454071045,-0.6153098344802856,-0.02794901467859745,-0.4642198383808136,0.008517795242369175
2949331057237,-0.9457097053527832,-9.6989107131958,-0.5817910432815552,-0.0268842913210392,-0.4679463505744934,0.0037265352439135313
2949332294562,-0.9481039047241211,-9.676166534423828,-0.569819986820221,-0.02901373989880085,-0.4730038046836853,0.003460354171693325
2949333531850,-0.9552865028381348,-9.66299819946289,-0.5327098965644836,-0.0252872034907341,-0.476996511220932,0.00452507846057415
2949334769150,-0.9636662006378174,-9.672574996948242,-0.5877765417098999,-0.0263519287109375,-0.481787770986557,0.0039927163161337376
2949336006450,-0.9552865028381348,-9.716867446899414,-0.5805939435958862,-0.02661811001598835,-0.4828525185585022,0.005855984054505825
2949337243750,-0.9588778018951416,-9.736021041870117,-0.5961562395095825,-0.0252872034907341,-0.4876437783241272,0.005057440605014563
2949338481062,-1.0211269855499268,-9.774328231811523,-0.5207388997077942,-0.02502102218568325,-0.4950968325138092,0.0077192517928779125
2949339718362,-0.9995791912078857,-9.734824180603027,-0.5734112858772278,-0.02315775491297245,-0.4945644736289978,0.0039927163161337376
2949340955662,-1.0043675899505615,-9.773131370544434,-0.5638344883918762,-0.02315775491297245,-0.496161550283432,0.0015970865497365594
2949342192950,-0.9624691009521484,-9.768342971801758,-0.5746083855628967,-0.0292799212038517,-0.4948306679725647,-0.0013309054775163531
2949343430262,-0.9852139949798584,-9.759963035583496,-0.6177040338516235,-0.0258195661008358,-0.5001542568206787,0.0013309054775163531
2949344667587,-0.9792284965515137,-9.77552604675293,-0.5841852426528931,-0.0252872034907341,-0.5102691650390625,0.006122165359556675
2949345904875,-1.0271124839782715,-9.800664901733398,-0.6272808313369751,-0.02369011752307415,-0.5118662714958191,0.00931633822619915
2949347142162,-1.0390836000442505,-9.791088104248047,-0.5973533391952515,-0.0210283063352108,-0.5142619013786316,0.005589802749454975
2949348379487,-1.0558429956436157,-9.80904483795166,-0.5542576909065247,-0.02262539230287075,-0.5219811201095581,0.0021294488105922937
2949349616775,-1.0845733880996704,-9.821015357971191,-0.5518634915351868,-0.023956298828125,-0.5262400507926941,0.00452507846057415
2949350854100,-1.0857704877853394,-9.835380554199219,-0.5578489899635315,-0.0268842913210392,-0.5265061855316162,0.006122165359556675
2949352091375,-1.0785878896713257,-9.862914085388184,-0.606930136680603,-0.023956298828125,-0.5339592695236206,0.0071868896484375
2949353328687,-1.095347285270691,-9.84376049041748,-0.6105214357376099,-0.02022976242005825,-0.5304989218711853,0.0042588976211845875
2949354565987,-1.1180921792984009,-9.883264541625977,-0.6320692300796509,-0.02901373989880085,-0.53662109375,0.0023956298828125
2949355803287,-1.1288660764694214,-9.859322547912598,-0.645237386226654,-0.02981228195130825,-0.5406138300895691,0.0023956298828125
2949357040587,-1.0893617868423462,-9.920374870300293,-0.6260837316513062,-0.0271504707634449,-0.5424770712852478,0.0018632676219567657
2949358277912,-1.116895079612732,-9.923966407775879,-0.5901707410812378,-0.0311431884765625,-0.5451388955116272,0.0002661811013240367
2949359515212,-1.136048674583435,-9.898826599121094,-0.569819986820221,-0.03034464456140995,-0.5523257851600647,0.0023956298828125
2949360752500,-1.1204863786697388,-9.926360130310059,-0.5901707410812378,-0.033538818359375,-0.556318461894989,0.0018632676219567657
2949361989800,-1.116895079612732,-9.895236015319824,-0.547075092792511,-0.0372653529047966,-0.5504624843597412,0.0018632676219567657
2949363227125,-1.139639973640442,-9.915586471557617,-0.5925649404525757,-0.0343373604118824,-0.5544552206993103,0.003460354171693325
2949364464425,-1.1348515748977661,-9.919178009033203,-0.5398924946784973,-0.038330078125,-0.5640377402305603,0.0066545275039970875
2949365701737,-1.1192892789840698,-9.898826599121094,-0.5374982953071594,-0.0359344482421875,-0.5680304765701294,0.0005323622026480734
2949366939025,-1.1228805780410767,-9.938331604003906,-0.5386953949928284,-0.0417904332280159,-0.5624406337738037,0.0015970865497365594
2949368176312,-1.1228805780410767,-9.93474006652832,-0.5422866940498352,-0.0436537005007267,-0.5635053515434265,0.007453070487827063
2949369413625,-1.0989385843276978,-9.928754806518555,-0.50876784324646,-0.0404595248401165,-0.5728217363357544,0.0066545275039970875
2949370650912,-1.091755986213684,-9.9371337890625,-0.46806642413139343,-0.0484449602663517,-0.5712246298789978,0.0026618109550327063
2949371888225,-1.1085153818130493,-9.93474006652832,-0.50876784324646,-0.0497758649289608,-0.5722893476486206,-0.0039927163161337376
2949373125525,-1.0773907899856567,-9.883264541625977,-0.52552729845047,-0.04791259765625,-0.580274760723114,-0.0007985432748682797
2949374362825,-1.0809820890426636,-9.859322547912598,-0.5099649429321289,-0.052437674254179,-0.585066020488739,0.0
2949375600137,-1.0606313943862915,-9.884461402893066,-0.5434837937355042,-0.0566965714097023,-0.5847998857498169,0.0023956298828125
2949376837437,-1.072602391242981,-9.837775230407715,-0.524330198764801,-0.0532362200319767,-0.5877278447151184,0.0023956298828125
2949378074737,-1.070208191871643,-9.837775230407715,-0.46088382601737976,-0.052703857421875,-0.589324951171875,0.0031941730994731188
2949379312062,-1.0570400953292847,-9.817423820495605,-0.50876784324646,-0.047646414488554,-0.5925191044807434,0.0037265352439135313
2949380549337,-1.0558429956436157,-9.838972091674805,-0.4991910457611084,-0.0566965714097023,-0.599439799785614,0.0021294488105922937
2949381786650,-1.1013327836990356,-9.876082420349121,-0.5099649429321289,-0.0617540143430233,-0.6023678183555603,-0.0013309054775163531
2949383023962,-1.0989385843276978,-9.853337287902832,-0.49320554733276367,-0.0574951171875,-0.6007707118988037,0.0018632676219567657
2949384261250,-1.0833762884140015,-9.824606895446777,-0.4692635238170624,-0.0612216517329216,-0.6082237958908081,0.0
2949385498562,-1.095347285270691,-9.831789016723633,-0.5183447003364563,-0.0636172816157341,-0.6116841435432434,0.0010647244052961469
2949386735850,-1.0749965906143188,-9.81024169921875,-0.5015852451324463,-0.0657467320561409,-0.6068928837776184,0.0010647244052961469
2949387973162,-1.1001356840133667,-9.80904483795166,-0.5339069962501526,-0.0657467320561409,-0.6108856201171875,-0.0029279920272529125
2949389210475,-1.1348515748977661,-9.807847023010254,-0.5051765441894531,-0.0652143657207489,-0.6124827265739441,-0.0005323622026480734
2949390447775,-1.1348515748977661,-9.780314445495605,-0.5482721924781799,-0.0641496405005455,-0.6188710331916809,-0.0029279920272529125
2949391685087,-1.1492167711257935,-9.791088104248047,-0.5351040959358215,-0.0625525563955307,-0.6183387041091919,-0.0010647244052961469
2949392922375,-1.0905588865280151,-9.785102844238281,-0.5339069962501526,-0.0692070871591568,-0.618072509765625,-0.00452507846057415
2949394159687,-1.138442873954773,-9.798270225524902,-0.5351040959358215,-0.0724012553691864,-0.6257917284965515,-0.0066545275039970875
2949395396962,-1.1348515748977661,-9.789891242980957,-0.5434837937355042,-0.0747968852519989,-0.6257917284965515,-0.007453070487827063
2949396634287,-1.113303780555725,-9.815030097961426,-0.5315127968788147,-0.0737321600317955,-0.6263241171836853,-0.0053236219100654125
2949397871587,-1.1001356840133667,-9.827000617980957,-0.5530605912208557,-0.07666015625,-0.6255255937576294,-0.005855984054505825
2949399108887,-1.1192892789840698,-9.84495735168457,-0.5542576909065247,-0.0758616104722023,-0.6295182704925537,-0.008517795242369175
2949400346187,-1.1312602758407593,-9.855731010437012,-0.5566518902778625,-0.0763939768075943,-0.6345757246017456,-0.01171196810901165
2949401583487,-1.1216834783554077,-9.873687744140625,-0.5602431893348694,-0.081451416015625,-0.6351081132888794,-0.010114881210029125
2949402820800,-1.113303780555725,-9.840168952941895,-0.5482721924781799,-0.0833146795630455,-0.6351081132888794,-0.010913425125181675
2949404058100,-1.1109095811843872,-9.84376049041748,-0.5506663918495178,-0.0833146795630455,-0.6375037431716919,-0.01650322787463665
2949405295412,-1.1180921792984009,-9.892841339111328,-0.5147533416748047,-0.0873074010014534,-0.6436259150505066,-0.01703559048473835
2949406532700,-1.1109095811843872,-9.906009674072266,-0.5339069962501526,-0.0875735804438591,-0.646820068359375,-0.01996358297765255
2949407770025,-1.1109095811843872,-9.915586471557617,-0.545877993106842,-0.0907677561044693,-0.652143657207489,-0.0234239362180233
2949409007325,-1.1001356840133667,-9.938331604003906,-0.5195418000221252,-0.0894368439912796,-0.6548054814338684,-0.0252872034907341
2949410244637,-1.0546458959579468,-9.93593692779541,-0.5363011956214905,-0.0920986607670784,-0.6542731523513794,-0.0258195661008358
2949411481925,-1.0642226934432983,-9.939528465270996,-0.5410895943641663,-0.0928971990942955,-0.6587982177734375,-0.0252872034907341
2949412719225,-1.0390836000442505,-9.974244117736816,-0.48482584953308105,-0.0968899205327034,-0.6606614589691162,-0.0268842913210392
2949413956525,-1.1061211824417114,-9.96945571899414,-0.5051765441894531,-0.0987531840801239,-0.665985107421875,-0.02981228195130825
2949415193825,-1.0749965906143188,-9.983820915222168,-0.5578489899635315,-0.1008826345205307,-0.6686469316482544,-0.0306108258664608
2949416431125,-1.1001356840133667,-9.996989250183105,-0.5482721924781799,-0.1038106232881546,-0.6715748906135559,-0.0282151959836483
2949417668425,-1.0833762884140015,-9.95748519897461,-0.5051765441894531,-0.1078033447265625,-0.6723734140396118,-0.033272635191679
2949418905725,-1.092953085899353,-9.971850395202637,-0.4967968463897705,-0.1059400737285614,-0.6753014326095581,-0.0385962575674057
2949420143025,-1.0857704877853394,-10.005369186401367,-0.5542576909065247,-0.1107313334941864,-0.680891215801239,-0.0346035435795784
2949421380325,-1.0534487962722778,-9.985018730163574,-0.5363011956214905,-0.1131269633769989,-0.6800926923751831,-0.0367329902946949
2949422617650,-1.095347285270691,-9.988609313964844,-0.586579442024231,-0.1139255091547966,-0.6835530400276184,-0.0409918874502182
2949423854937,-1.1240776777267456,-9.994595527648926,-0.5638344883918762,-0.110198974609375,-0.6880781054496765,-0.0375315360724926
2949425092250,-1.0690110921859741,-9.995792388916016,-0.5530605912208557,-0.1133931428194046,-0.690473735332489,-0.0401933453977108
2949426329550,-1.0989385843276978,-9.998186111450195,-0.5602431893348694,-0.1128607839345932,-0.6910061240196228,-0.0420566126704216
2949427566850,-1.0618284940719604,-9.97065258026123,-0.5279214978218079,-0.1165873184800148,-0.695264995098114,-0.0375315360724926
2949428804175,-1.047463297843933,-9.956287384033203,-0.48243165016174316,-0.1275007426738739,-0.6976606249809265,-0.0455169677734375
2949430041475,-1.0618284940719604,-9.979032516479492,-0.49799394607543945,-0.1264360249042511,-0.6987253427505493,-0.0471140518784523
2949431278762,-1.0378865003585815,-9.983820915222168,-0.524330198764801,-0.1267022043466568,-0.6976606249809265,-0.0503082275390625
2949432516075,-1.0307037830352783,-9.981427192687988,-0.5434837937355042,-0.1277669221162796,-0.7024518847465515,-0.052703857421875
2949433753362,-1.01753568649292,-9.967061996459961,-0.48961424827575684,-0.1277669221162796,-0.7091064453125,-0.0473802350461483
2949434990662,-0.9864110946655273,-9.949105262756348,-0.4728548526763916,-0.1296301931142807,-0.7067108154296875,-0.0489773228764534
2949436227987,-0.9900023937225342,-9.9586820602417,-0.4704606235027313,-0.1354861706495285,-0.7083078622817993,-0.0548333041369915
2949437465287,-0.9804255962371826,-9.922768592834473,-0.5135562419891357,-0.1336229145526886,-0.7154947519302368,-0.0540347620844841
2949438702575,-0.9516952037811279,-9.95748519897461,-0.4967968463897705,-0.1320258229970932,-0.7133653163909912,-0.0540347620844841
2949439939875,-1.0055646896362305,-9.897629737854004,-0.48722004890441895,-0.1333567351102829,-0.7208184003829956,-0.0513729527592659
2949441177175,-0.9971849918365479,-9.876082420349121,-0.4967968463897705,-0.1416083425283432,-0.7242787480354309,-0.0574951171875
2949442414487,-0.993593692779541,-9.841365814208984,-0.4776432514190674,-0.1434716135263443,-0.7200198769569397,-0.0604231096804142
2949443651787,-0.9792284965515137,-9.854534149169922,-0.47644615173339844,-0.1445363312959671,-0.7248111367225647,-0.0593583844602108
2949444889087,-0.9852139949798584,-9.836577415466309,-0.47884035110473633,-0.1432054340839386,-0.7325303554534912,-0.0580274797976017
2949446126387,-1.0211269855499268,-9.789891242980957,-0.4668693244457245,-0.1442701518535614,-0.7357245683670044,-0.0604231096804142
2949447363700,-1.0534487962722778,-9.801861763000488,-0.5111620426177979,-0.1440039724111557,-0.7343936562538147,-0.0628187358379364
2949448601000,-1.0103530883789062,-9.746795654296875,-0.48722004890441895,-0.14373779296875,-0.7402496337890625,-0.0574951171875
2949449838325,-1.0187327861785889,-9.725247383117676,-0.5183447003364563,-0.1397450715303421,-0.7469041347503662,-0.0636172816157341
2949451075612,-1.0199298858642578,-9.75278091430664,-0.5279214978218079,-0.1458672434091568,-0.7450408935546875,-0.071336530148983
2949452312900,-1.0199298858642578,-9.75397777557373,-0.569819986820221,-0.1421407014131546,-0.7482350468635559,-0.0710703507065773
2949453550212,-1.049857497215271,-9.714473724365234,-0.4812345504760742,-0.14373779296875,-0.7519615888595581,-0.0747968852519989
2949454787512,-1.0690110921859741,-9.68813705444336,-0.5171476006507874,-0.142673060297966,-0.7551557421684265,-0.0694732666015625
2949456024812,-1.0881646871566772,-9.713275909423828,-0.545877993106842,-0.147464320063591,-0.7562204599380493,-0.0716027170419693
2949457262112,-1.1013327836990356,-9.645041465759277,-0.5638344883918762,-0.1453348845243454,-0.7578175663948059,-0.0747968852519989
2949458499437,-1.0965443849563599,-9.712079048156738,-0.5195418000221252,-0.1463996022939682,-0.7610117197036743,-0.076127789914608
2949459736725,-1.047463297843933,-9.684545516967773,-0.5051765441894531,-0.142673060297966,-0.771392822265625,-0.076127789914608
2949460974012,-1.0749965906143188,-9.641449928283691,-0.5051765441894531,-0.1442701518535614,-0.7674000859260559,-0.0835808664560318
2949462211337,-1.092953085899353,-9.72165584564209,-0.5051765441894531,-0.1429392546415329,-0.7679324746131897,-0.085710309445858
2949463448662,-1.1180921792984009,-9.703699111938477,-0.5315127968788147,-0.1432054340839386,-0.771925151348114,-0.0920986607670784
2949464685937,-1.1276689767837524,-9.682151794433594,-0.5195418000221252,-0.1445363312959671,-0.7735222578048706,-0.0915662944316864
2949465923237,-1.1312602758407593,-9.703699111938477,-0.5279214978218079,-0.14373779296875,-0.776716411113739,-0.090501569211483
2949467160550,-1.1061211824417114,-9.730035781860352,-0.568622887134552,-0.1405436247587204,-0.7753854990005493,-0.095292828977108
2949468397850,-1.1049240827560425,-9.712079048156738,-0.5650315880775452,-0.1477305144071579,-0.7721913456916809,-0.1008826345205307
2949469635137,-1.1097124814987183,-9.702502250671387,-0.585382342338562,-0.1421407014131546,-0.7812415361404419,-0.1043429896235466
2949470872462,-1.1504138708114624,-9.732430458068848,-0.545877993106842,-0.1440039724111557,-0.7793782353401184,-0.1043429896235466
2949472109762,-1.194706678390503,-9.738415718078613,-0.5781997442245483,-0.1458672434091568,-0.780975341796875,-0.1086018830537796
2949473347062,-1.1863269805908203,-9.72165584564209,-0.5434837937355042,-0.1434716135263443,-0.7820400595664978,-0.1109975129365921
2949474584362,-1.1336544752120972,-9.71926212310791,-0.48961424827575684,-0.1477305144071579,-0.7833709716796875,-0.1152564138174057
2949475821650,-1.1492167711257935,-9.725247383117676,-0.5542576909065247,-0.1511908620595932,-0.7812415361404419,-0.1176520437002182
2949477058975,-1.194706678390503,-9.75397777557373,-0.5051765441894531,-0.1482628732919693,-0.7833709716796875,-0.1187167689204216
2949478296275,-1.1743559837341309,-9.738415718078613,-0.5183447003364563,-0.1546512097120285,-0.7801767587661743,-0.1259036511182785
2949479533575,-1.1827356815338135,-9.739612579345703,-0.5183447003364563,-0.1583777517080307,-0.7799106240272522,-0.1229756623506546
2949480770887,-1.1971008777618408,-9.680954933166504,-0.5327098965644836,-0.1559821218252182,-0.7828385829925537,-0.12457275390625
2949482008187,-1.1755530834197998,-9.718064308166504,-0.5410895943641663,-0.1554497629404068,-0.7844356894493103,-0.1306949108839035
2949483245475,-1.1971008777618408,-9.71926212310791,-0.5518634915351868,-0.1557159423828125,-0.7825723886489868,-0.1333567351102829
2949484482800,-1.1516109704971313,-9.677363395690918,-0.5398924946784973,-0.1567806601524353,-0.7831047773361206,-0.1402774304151535
2949485720087,-1.1982979774475098,-9.683348655700684,-0.5159504413604736,-0.1607733815908432,-0.7785797119140625,-0.1402774304151535
2949486957387,-1.2042834758758545,-9.659406661987305,-0.545877993106842,-0.1605072021484375,-0.7804429531097412,-0.1416083425283432
2949488194700,-1.2665326595306396,-9.660603523254395,-0.5578489899635315,-0.1626366525888443,-0.7831047773361206,-0.1418745219707489
2949489432000,-1.2330138683319092,-9.6618013381958,-0.5398924946784973,-0.1626366525888443,-0.7836371660232544,-0.1408098042011261
2949490669300,-1.2270283699035645,-9.668983459472656,-0.5386953949928284,-0.1583777517080307,-0.7823062539100647,-0.1448025107383728
2949491906612,-1.2820950746536255,-9.726444244384766,-0.5650315880775452,-0.1602410227060318,-0.7825723886489868,-0.1525217741727829
2949493143925,-1.2808979749679565,-9.708487510681152,-0.5937620401382446,-0.1613057404756546,-0.7804429531097412,-0.1519894003868103
2949494381225,-1.2473790645599365,-9.738415718078613,-0.6200982332229614,-0.1674279123544693,-0.7788459062576294,-0.1461334228515625
2949495618525,-1.2617442607879639,-9.724050521850586,-0.6153098344802856,-0.1631690114736557,-0.7791120409965515,-0.148529052734375
2949496855812,-1.2820950746536255,-9.770737648010254,-0.629675030708313,-0.1642337292432785,-0.7785797119140625,-0.1541188508272171
2949498093112,-1.2342109680175781,-9.743204116821289,-0.5913678407669067,-0.1663631796836853,-0.7777811288833618,-0.157046839594841
2949499330425,-1.2749123573303223,-9.756372451782227,-0.5805939435958862,-0.1658308207988739,-0.7740546464920044,-0.1607733815908432
2949500567737,-1.2892776727676392,-9.715670585632324,-0.6057330369949341,-0.1682264506816864,-0.7772487998008728,-0.1613057404756546
2949501805050,-1.2294225692749023,-9.77791976928711,-0.6248866319656372,-0.1695573627948761,-0.7732560634613037,-0.1647661030292511
2949503042337,-1.2653355598449707,-9.747992515563965,-0.6212953329086304,-0.1684926301240921,-0.7660691738128662,-0.171420618891716
2949504279650,-1.3012486696243286,-9.740809440612793,-0.5841852426528931,-0.1743486225605011,-0.7727237343788147,-0.1708882600069046
2949505516937,-1.2713210582733154,-9.758766174316406,-0.5793968439102173,-0.1743486225605011,-0.7716590166091919,-0.1732838898897171
2949506754250,-1.2988544702529907,-9.77552604675293,-0.6057330369949341,-0.1775427907705307,-0.771925151348114,-0.1706220805644989
2949507991550,-1.2330138683319092,-9.773131370544434,-0.5494692921638489,-0.1735500693321228,-0.7697957158088684,-0.1740824282169342
2949509228862,-1.2461819648742676,-9.77552604675293,-0.5710170865058899,-0.177276611328125,-0.7655368447303772,-0.1783413290977478
2949510466162,-1.236605167388916,-9.765949249267578,-0.5937620401382446,-0.1796722412109375,-0.7668677568435669,-0.1770104318857193
2949511703462,-1.2521674633026123,-9.708487510681152,-0.5997475385665894,-0.1841973215341568,-0.7639397382736206,-0.1754133403301239
2949512940762,-1.3036428689956665,-9.758766174316406,-0.5961562395095825,-0.1879238486289978,-0.7626088261604309,-0.1794060617685318
2949514178075,-1.2437877655029297,-9.725247383117676,-0.6189011335372925,-0.1849958598613739,-0.7612779140472412,-0.1839311420917511
2949515415375,-1.292868971824646,-9.738415718078613,-0.569819986820221,-0.1911180317401886,-0.7548896074295044,-0.1831325888633728
2949516652687,-1.2342109680175781,-9.747992515563965,-0.6129156351089478,-0.1929812878370285,-0.7572852373123169,-0.1828664094209671
2949517889975,-1.2306196689605713,-9.736021041870117,-0.5877765417098999,-0.1921827495098114,-0.7548896074295044,-0.1881900280714035
2949519127275,-1.2222399711608887,-9.727641105651855,-0.5997475385665894,-0.1959092915058136,-0.7530263066291809,-0.186859130859375
2949520364575,-1.215057373046875,-9.683348655700684,-0.6129156351089478,-0.1927151083946228,-0.752227783203125,-0.1924489289522171
2949521601862,-1.2401964664459229,-9.695320129394531,-0.6021417379379272,-0.1903194785118103,-0.7498321533203125,-0.1924489289522171
2949522839175,-1.2449848651885986,-9.720458984375,-0.6272808313369751,-0.1932474672794342,-0.7418466806411743,-0.1900532990694046
2949524076487,-1.235408067703247,-9.690531730651855,-0.6500257849693298,-0.1959092915058136,-0.7450408935546875,-0.1929812878370285
2949525313787,-1.1994950771331787,-9.68694019317627,-0.6356605291366577,-0.1975063681602478,-0.7445085048675537,-0.1948445588350296
2949526551087,-1.171961784362793,-9.716867446899414,-0.6021417379379272,-0.1993696391582489,-0.7415805459022522,-0.1945783793926239
2949527788400,-1.215057373046875,-9.738415718078613,-0.6476315855979919,-0.20123291015625,-0.7450408935546875,-0.196441650390625
2949529025687,-1.2461819648742676,-9.75158405303955,-0.6141127347946167,-0.2070888876914978,-0.7375878095626831,-0.1972401887178421
2949530263000,-1.2054805755615234,-9.728838920593262,-0.6799532771110535,-0.206024169921875,-0.7410481572151184,-0.1983049213886261
2949531500300,-1.2090718746185303,-9.743204116821289,-0.6823474764823914,-0.2052256166934967,-0.7407819628715515,-0.1951107382774353
2949532737612,-1.215057373046875,-9.736021041870117,-0.6607996821403503,-0.2105492502450943,-0.7351921796798706,-0.195376917719841
2949533974925,-1.2737152576446533,-9.736021041870117,-0.667982280254364,-0.2065565288066864,-0.7333289384841919,-0.1975063681602478
2949535212225,-1.1982979774475098,-9.730035781860352,-0.6775590777397156,-0.2057579904794693,-0.7327965497970581,-0.1993696391582489
2949536449525,-1.1671733856201172,-9.715670585632324,-0.6607996821403503,-0.2129448801279068,-0.7306671142578125,-0.1999019980430603
2949537686800,-1.2090718746185303,-9.732430458068848,-0.6619967818260193,-0.2132110595703125,-0.7277390956878662,-0.2009667307138443
2949538924137,-1.1899182796478271,-9.747992515563965,-0.689530074596405,-0.2142757773399353,-0.7258758544921875,-0.1993696391582489
2949540161412,-1.212663173675537,-9.77672290802002,-0.6476315855979919,-0.2129448801279068,-0.7253434658050537,-0.2020314484834671
2949541398737,-1.2114660739898682,-9.780314445495605,-0.6715735793113708,-0.2118801474571228,-0.7309333086013794,-0.1961754709482193
2949542636050,-1.2102689743041992,-9.81143856048584,-0.6811503767967224,-0.2148081362247467,-0.7298685312271118,-0.1980387270450592
2949543873337,-1.2222399711608887,-9.80904483795166,-0.6548141837120056,-0.2078874409198761,-0.7250772714614868,-0.1993696391582489
2949545110637,-1.193509578704834,-9.770737648010254,-0.6655880808830261,-0.2182684987783432,-0.723480224609375,-0.1959092915058136
2949546347950,-1.170764684677124,-9.80904483795166,-0.6811503767967224,-0.2219950258731842,-0.7218831181526184,-0.1996358186006546
2949547585250,-1.170764684677124,-9.732430458068848,-0.6380547285079956,-0.2214626669883728,-0.7202860116958618,-0.195376917719841
2949548822550,-1.1432312726974487,-9.75158405303955,-0.6500257849693298,-0.2214626669883728,-0.7178903818130493,-0.1903194785118103
2949550059837,-1.1121066808700562,-9.787496566772461,-0.6823474764823914,-0.2190670371055603,-0.719221293926239,-0.1932474672794342
2949551297175,-1.0893617868423462,-9.793481826782227,-0.7003040313720703,-0.2153405100107193,-0.7197536826133728,-0.1897871196269989
2949552534462,-1.1049240827560425,-9.77791976928711,-0.6667851805686951,-0.2177361398935318,-0.7136315107345581,-0.1932474672794342
2949553771775,-1.0522516965866089,-9.787496566772461,-0.667982280254364,-0.2190670371055603,-0.7176242470741272,-0.1929812878370285
2949555009062,-1.095347285270691,-9.780314445495605,-0.6811503767967224,-0.2172037661075592,-0.7216169238090515,-0.1895209401845932
2949556246375,-1.072602391242981,-9.793481826782227,-0.707486629486084,-0.2116139680147171,-0.7115020751953125,-0.1876576691865921
2949557483662,-1.0654197931289673,-9.770737648010254,-0.6572083830833435,-0.2182684987783432,-0.713897705078125,-0.1863267719745636
2949558721000,-1.0534487962722778,-9.75397777557373,-0.6619967818260193,-0.2142757773399353,-0.7141638994216919,-0.1828664094209671
2949559958287,-1.0127472877502441,-9.774328231811523,-0.6775590777397156,-0.2153405100107193,-0.7117682695388794,-0.1826002299785614
2949561195587,-1.0223240852355957,-9.765949249267578,-0.646434485912323,-0.2121463268995285,-0.7154947519302368,-0.1799384206533432
2949562432887,-1.0007762908935547,-9.801861763000488,-0.690727174282074,-0.2113477885723114,-0.7085740566253662,-0.1823340505361557
2949563670212,-0.993593692779541,-9.786299705505371,-0.7086837291717529,-0.2108154296875,-0.7056460976600647,-0.1849958598613739
2949564907500,-1.0079588890075684,-9.797073364257812,-0.7158663272857666,-0.2046932578086853,-0.7117682695388794,-0.1818016916513443
2949566144787,-1.01753568649292,-9.738415718078613,-0.7170634269714355,-0.2076212465763092,-0.7141638994216919,-0.1791398823261261
2949567382100,-1.0043675899505615,-9.783905029296875,-0.6967126727104187,-0.2169375866651535,-0.7117682695388794,-0.181003138422966
2949568619400,-0.9684545993804932,-9.759963035583496,-0.7050924301147461,-0.2190670371055603,-0.7133653163909912,-0.1791398823261261
2949569856700,-0.9660604000091553,-9.738415718078613,-0.7613561749458313,-0.2089521586894989,-0.7149624228477478,-0.1756795197725296
2949571094012,-0.9528923034667969,-9.734824180603027,-0.7422025203704834,-0.2070888876914978,-0.7120344042778015,-0.1743486225605011
2949572331325,-0.9840168952941895,-9.733627319335938,-0.690727174282074,-0.2065565288066864,-0.7120344042778015,-0.177276611328125
2949573568625,-0.9888052940368652,-9.725247383117676,-0.7350199222564697,-0.2073550671339035,-0.7136315107345581,-0.1724853515625
2949574805925,-0.93254154920578,-9.727641105651855,-0.7218518257141113,-0.1985711008310318,-0.7128329873085022,-0.1708882600069046
2949576043237,-0.9636662006378174,-9.700108528137207,-0.727837324142456,-0.2004343569278717,-0.7125667929649353,-0.1703559011220932
2949577280550,-0.9409212470054626,-9.704896926879883,-0.7422025203704834,-0.1999019980430603,-0.7157609462738037,-0.1660970002412796
2949578517837,-0.910993754863739,-9.649829864501953,-0.7242460250854492,-0.2017652690410614,-0.7149624228477478,-0.1703559011220932
2949579755150,-0.9540894031524658,-9.643844604492188,-0.7050924301147461,-0.1993696391582489,-0.7112358808517456,-0.1716867983341217
2949580992450,-0.8846575617790222,-9.668983459472656,-0.7410054206848145,-0.1929812878370285,-0.7080417275428772,-0.166629359126091
2949582229750,-0.9217676520347595,-9.617507934570312,-0.7158663272857666,-0.186859130859375,-0.7146962285041809,-0.1655646413564682
2949583467050,-0.8954314589500427,-9.619902610778809,-0.7266402244567871,-0.1895209401845932,-0.7115020751953125,-0.1652984619140625
2949584704325,-0.8978256583213806,-9.554061889648438,-0.6979097723960876,-0.1895209401845932,-0.7136315107345581,-0.161838099360466
2949585941662,-0.8762778043746948,-9.57201862335205,-0.730231523513794,-0.1831325888633728,-0.7130991220474243,-0.1533203125
2949587178962,-0.8918401598930359,-9.560047149658203,-0.7146692276000977,-0.1828664094209671,-0.7168256640434265,-0.1597086638212204
2949588416250,-0.888248860836029,-9.581595420837402,-0.7230489253997803,-0.18206787109375,-0.7170918583869934,-0.1613057404756546
2949589653562,-0.8954314589500427,-9.59596061706543,-0.6835445761680603,-0.1770104318857193,-0.7141638994216919,-0.1578453928232193
2949590890862,-0.9026140570640564,-9.62947940826416,-0.7326257228851318,-0.1730177104473114,-0.7120344042778015,-0.152255579829216
2949592128175,-0.8595184087753296,-9.586383819580078,-0.7182605266571045,-0.1690249890089035,-0.7115020751953125,-0.1535864919424057
2949593365462,-0.9265560507774353,-9.579200744628906,-0.7134721279144287,-0.1655646413564682,-0.7141638994216919,-0.1479966938495636
2949594602775,-0.9397241473197937,-9.586383819580078,-0.6871358752250671,-0.1639675498008728,-0.7165595293045044,-0.1450686901807785
2949595840075,-0.9385270476341248,-9.643844604492188,-0.7481880187988281,-0.1623704731464386,-0.7093726396560669,-0.1469319611787796
2949597077387,-0.9205705523490906,-9.59715747833252,-0.7206547260284424,-0.1554497629404068,-0.7160271406173706,-0.1471981406211853
2949598314687,-0.9205705523490906,-9.607931137084961,-0.7721300721168518,-0.1567806601524353,-0.7216169238090515,-0.1413421630859375
2949599552000,-0.950498104095459,-9.622296333312988,-0.8056488633155823,-0.1551835834980011,-0.7160271406173706,-0.1408098042011261
2949600789287,-0.8774749040603638,-9.642647743225098,-0.7876923680305481,-0.1538526713848114,-0.7149624228477478,-0.1384141743183136
2949602026587,-0.9038111567497253,-9.65222454071045,-0.7553706169128418,-0.1503923237323761,-0.7128329873085022,-0.1394788920879364
2949603263912,-0.9217676520347595,-9.677363395690918,-0.7697358727455139,-0.1493275910615921,-0.7133653163909912,-0.138946533203125
2949604501175,-0.9253589510917664,-9.66299819946289,-0.8176198601722717,-0.1503923237323761,-0.7125667929649353,-0.1405436247587204
2949605738512,-0.9085995554924011,-9.6989107131958,-0.8224083185195923,-0.1493275910615921,-0.713897705078125,-0.1336229145526886
2949606975812,-0.8906430602073669,-9.694122314453125,-0.8331822156906128,-0.1463996022939682,-0.7125667929649353,-0.1354861706495285
2949608213112,-0.9062053561210632,-9.727641105651855,-0.8391677141189575,-0.148529052734375,-0.714430034160614,-0.1357523649930954
2949609450412,-0.8870517611503601,-9.730035781860352,-0.8786720037460327,-0.1466657817363739,-0.7136315107345581,-0.1306949108839035
2949610687712,-0.9277531504631042,-9.77791976928711,-0.8212112188339233,-0.1434716135263443,-0.7173580527305603,-0.1280331015586853
2949611925025,-0.8834604620933533,-9.791088104248047,-0.8355764150619507,-0.1456010639667511,-0.7133653163909912,-0.1301625519990921
2949613162337,-0.8343793153762817,-9.794679641723633,-0.8200140595436096,-0.1482628732919693,-0.7154947519302368,-0.1328243613243103
2949614399625,-0.8918401598930359,-9.75517463684082,-0.7817068696022034,-0.1469319611787796,-0.7125667929649353,-0.1288316547870636
2949615636937,-0.8798691034317017,-9.81143856048584,-0.8367735147476196,-0.1482628732919693,-0.7154947519302368,-0.1256374716758728
2949616874225,-0.871489405632019,-9.793481826782227,-0.8319851160049438,-0.1479966938495636,-0.7170918583869934,-0.124040387570858
2949618111537,-0.889445960521698,-9.829395294189453,-0.7936778664588928,-0.1482628732919693,-0.7112358808517456,-0.119249127805233
2949619348850,-0.889445960521698,-9.853337287902832,-0.7972691655158997,-0.1517232209444046,-0.7120344042778015,-0.1189829483628273
2949620586150,-0.8774749040603638,-9.822212219238281,-0.7829039692878723,-0.1554497629404068,-0.7210845947265625,-0.1131269633769989
2949621823450,-0.8990227580070496,-9.81263542175293,-0.7661445736885071,-0.1573130339384079,-0.7154947519302368,-0.1213785782456398
2949623060750,-0.9157821536064148,-9.744400978088379,-0.8236054182052612,-0.1573130339384079,-0.7141638994216919,-0.114990234375
2949624298050,-0.912190854549408,-9.738415718078613,-0.8092401623725891,-0.1533203125,-0.7160271406173706,-0.1125946044921875
2949625535350,-0.8738836050033569,-9.745597839355469,-0.7745242714881897,-0.1535864919424057,-0.7133653163909912,-0.1165873184800148
2949626772675,-0.9062053561210632,-9.743204116821289,-0.7996633648872375,-0.1597086638212204,-0.7154947519302368,-0.1139255091547966
2949628009937,-0.8738836050033569,-9.727641105651855,-0.8056488633155823,-0.1594424694776535,-0.7133653163909912,-0.1072709783911705
2949629247262,-0.9014169573783875,-9.691728591918945,-0.8559271097183228,-0.1621042937040329,-0.7115020751953125,-0.1032782644033432
2949630484562,-0.8822633624076843,-9.712079048156738,-0.8200140595436096,-0.1589101105928421,-0.7130991220474243,-0.1024797186255455
2949631721875,-0.849941611289978,-9.725247383117676,-0.8140285611152649,-0.1557159423828125,-0.7109696865081787,-0.0984870046377182
2949632959187,-0.9241618514060974,-9.714473724365234,-0.871489405632019,-0.1573130339384079,-0.7088402509689331,-0.0998179093003273
2949634196487,-0.912190854549408,-9.71926212310791,-0.8559271097183228,-0.1663631796836853,-0.7170918583869934,-0.100616455078125
2949635433787,-0.9241618514060974,-9.770737648010254,-0.8008604645729065,-0.1610395610332489,-0.7104373574256897,-0.0944942906498909
2949636671075,-0.9552865028381348,-9.763554573059082,-0.8367735147476196,-0.1565144807100296,-0.7115020751953125,-0.091033935546875
2949637908387,-0.9840168952941895,-9.75158405303955,-0.8379706144332886,-0.1623704731464386,-0.7104373574256897,-0.091033935546875
2949639145712,-0.9744400978088379,-9.747992515563965,-0.8415619134902954,-0.1615719199180603,-0.7091064453125,-0.090501569211483
2949640383000,-0.9648633003234863,-9.738415718078613,-0.8176198601722717,-0.1578453928232193,-0.7128329873085022,-0.0894368439912796
2949641620300,-1.0019733905792236,-9.774328231811523,-0.8547300100326538,-0.1594424694776535,-0.7083078622817993,-0.081451416015625
2949642857600,-0.9876081943511963,-9.764751434326172,-0.8427590131759644,-0.1605072021484375,-0.709638774394989,-0.0843794047832489
2949644094900,-1.0031704902648926,-9.756372451782227,-0.8427590131759644,-0.1668955385684967,-0.7093726396560669,-0.0830485001206398
2949645332200,-1.0115501880645752,-9.764751434326172,-0.849941611289978,-0.1613057404756546,-0.7053799033164978,-0.0747968852519989
2949646569512,-1.0091559886932373,-9.7420072555542,-0.8439561128616333,-0.1615719199180603,-0.7083078622817993,-0.0771925151348114
2949647806825,-0.9756371974945068,-9.734824180603027,-0.829590916633606,-0.1634351909160614,-0.7101711630821228,-0.0726674422621727
2949649044112,-0.9672574996948242,-9.731232643127441,-0.8008604645729065,-0.1615719199180603,-0.7059122323989868,-0.0694732666015625
2949650281425,-0.9301473498344421,-9.703699111938477,-0.8343793153762817,-0.1586439311504364,-0.704847514629364,-0.0702718123793602
2949651518712,-0.950498104095459,-9.747992515563965,-0.8200140595436096,-0.1591762900352478,-0.7032504677772522,-0.066545270383358
2949652756025,-0.9648633003234863,-9.726444244384766,-0.8331822156906128,-0.1602410227060318,-0.7021857500076294,-0.062286376953125
2949653993337,-0.9373299479484558,-9.720458984375,-0.7984662652015686,-0.1567806601524353,-0.7045813798904419,-0.0636172816157341
2949655230637,-0.8966285586357117,-9.75278091430664,-0.8032546639442444,-0.1586439311504364,-0.7053799033164978,-0.0630849227309227
2949656467937,-0.9133879542350769,-9.740809440612793,-0.8379706144332886,-0.1575792133808136,-0.7019195556640625,-0.0577612966299057
2949657705262,-0.910993754863739,-9.756372451782227,-0.8307880163192749,-0.1591762900352478,-0.7013871669769287,-0.057228934019804
2949658942562,-0.8978256583213806,-9.710882186889648,-0.7398083209991455,-0.1557159423828125,-0.7085740566253662,-0.0574951171875
2949660179850,-0.9361328482627869,-9.704896926879883,-0.7960720658302307,-0.1538526713848114,-0.7035166025161743,-0.057228934019804
2949661417162,-0.8858546614646912,-9.7791166305542,-0.829590916633606,-0.1578453928232193,-0.6989915370941162,-0.0612216517329216
2949662654462,-0.9229647517204285,-9.7791166305542,-0.8307880163192749,-0.1541188508272171,-0.6989915370941162,-0.0604231096804142
2949663891762,-0.9133879542350769,-9.763554573059082,-0.7936778664588928,-0.1605072021484375,-0.700056254863739,-0.0577612966299057
2949665129050,-0.9181763529777527,-9.860519409179688,-0.7912836670875549,-0.1615719199180603,-0.7003224492073059,-0.0598907470703125
2949666366375,-0.9169792532920837,-9.876082420349121,-0.8248025178909302,-0.1546512097120285,-0.7027180790901184,-0.0556318499147892
2949667603675,-0.9576807022094727,-9.850942611694336,-0.8343793153762817,-0.1554497629404068,-0.7008548378944397,-0.0630849227309227
2949668840987,-0.9911994934082031,-9.828198432922363,-0.8690952062606812,-0.1613057404756546,-0.6989915370941162,-0.0646820068359375
2949670078287,-1.0103530883789062,-9.837775230407715,-0.851138710975647,-0.1615719199180603,-0.6992577314376831,-0.0638834610581398
2949671315587,-1.0103530883789062,-9.880870819091797,-0.8690952062606812,-0.1615719199180603,-0.6979268193244934,-0.0636172816157341
2949672552875,-1.016338586807251,-9.888052940368652,-0.8547300100326538,-0.1583777517080307,-0.6984592080116272,-0.0588260218501091
2949673790175,-1.047463297843933,-9.855731010437012,-0.8667010068893433,-0.1644999235868454,-0.6928693652153015,-0.0625525563955307
2949675027500,-1.072602391242981,-9.917980194091797,-0.8870517611503601,-0.1655646413564682,-0.690473735332489,-0.071868896484375
2949676264812,-1.0558429956436157,-9.890447616577148,-0.8619126081466675,-0.1634351909160614,-0.6918046474456787,-0.0684085413813591
2949677502125,-1.0606313943862915,-9.84376049041748,-0.8595184087753296,-0.1631690114736557,-0.6926032304763794,-0.0684085413813591
2949678739412,-1.072602391242981,-9.90361499786377,-0.8655039072036743,-0.1642337292432785,-0.6875457763671875,-0.0689409002661705
2949679976712,-1.0809820890426636,-9.898826599121094,-0.8918401598930359,-0.1652984619140625,-0.6830207109451294,-0.0678761824965477
2949681214012,-1.0462661981582642,-9.886856079101562,-0.8140285611152649,-0.1652984619140625,-0.690473735332489,-0.0729336217045784
2949682451312,-1.0187327861785889,-9.920374870300293,-0.8655039072036743,-0.1634351909160614,-0.6840854287147522,-0.071868896484375
2949683688625,-1.049857497215271,-9.884461402893066,-0.8307880163192749,-0.1607733815908432,-0.6846177577972412,-0.0737321600317955
2949684925925,-1.0570400953292847,-9.832986831665039,-0.8391677141189575,-0.1613057404756546,-0.6822221279144287,-0.0700056254863739
2949686163225,-1.0426748991012573,-9.852140426635742,-0.8200140595436096,-0.1644999235868454,-0.6800926923751831,-0.0747968852519989
2949687400537,-1.0067617893218994,-9.889249801635742,-0.8200140595436096,-0.1631690114736557,-0.6806250810623169,-0.0782572403550148
2949688637850,-1.049857497215271,-9.880870819091797,-0.8343793153762817,-0.1642337292432785,-0.6768985390663147,-0.080919049680233
2949689875137,-1.0342952013015747,-9.861717224121094,-0.8391677141189575,-0.1642337292432785,-0.6705101728439331,-0.0798543319106102
2949691112437,-0.9600749015808105,-9.853337287902832,-0.829590916633606,-0.1631690114736557,-0.6699777841567993,-0.0817175954580307
2949692349737,-1.0259153842926025,-9.884461402893066,-0.8750807046890259,-0.16290283203125,-0.6705101728439331,-0.081451416015625
2949693587075,-1.0271124839782715,-9.877279281616211,-0.8331822156906128,-0.1567806601524353,-0.6699777841567993,-0.0774587020277977
2949694824350,-1.0235211849212646,-9.860519409179688,-0.8415619134902954,-0.1605072021484375,-0.6742367148399353,-0.0795881450176239
2949696061662,-1.0342952013015747,-9.865307807922363,-0.8918401598930359,-0.1647661030292511,-0.665985107421875,-0.0878397598862648
2949697298962,-1.0115501880645752,-9.894038200378418,-0.9469068050384521,-0.166629359126091,-0.6625247597694397,-0.0843794047832489
2949698536250,-1.0570400953292847,-9.874884605407715,-0.829590916633606,-0.1655646413564682,-0.6579996943473816,-0.0865088552236557
2949699773575,-1.0618284940719604,-9.880870819091797,-0.8870517611503601,-0.1623704731464386,-0.6587982177734375,-0.0838470458984375
2949701010875,-1.0570400953292847,-9.90122127532959,-0.9205705523490906,-0.1621042937040329,-0.6601291298866272,-0.0865088552236557
2949702248200,-1.0366894006729126,-9.911994934082031,-0.9050082564353943,-0.1690249890089035,-0.6537407636642456,-0.0883721262216568
2949703485462,-1.0199298858642578,-9.861717224121094,-0.8942343592643738,-0.1708882600069046,-0.6550716757774353,-0.0883721262216568
2949704722762,-1.0330979824066162,-9.855731010437012,-0.849941611289978,-0.166629359126091,-0.6537407636642456,-0.0899692103266716
2949705960075,-1.0067617893218994,-9.895236015319824,-0.8870517611503601,-0.1674279123544693,-0.6510789394378662,-0.091033935546875
2949707197400,-0.9564836025238037,-9.86770248413086,-0.8535329103469849,-0.167694091796875,-0.6497480273246765,-0.0920986607670784
2949708434700,-0.9588778018951416,-9.870096206665039,-0.8487445116043091,-0.167694091796875,-0.6505466103553772,-0.090501569211483
2949709672000,-0.993593692779541,-9.834183692932129,-0.8655039072036743,-0.1719529926776886,-0.6505466103553772,-0.0907677561044693
2949710909300,-0.993593692779541,-9.850942611694336,-0.8678981065750122,-0.1690249890089035,-0.6478847861289978,-0.0902353897690773
2949712146600,-1.0390836000442505,-9.77672290802002,-0.8439561128616333,-0.1647661030292511,-0.6438920497894287,-0.0950266495347023
2949713383900,-0.9852139949798584,-9.797073364257812,-0.8535329103469849,-0.16290283203125,-0.6449567675590515,-0.0915662944316864
2949714621200,-0.9923965930938721,-9.77672290802002,-0.8750807046890259,-0.166629359126091,-0.6380360722541809,-0.0942281037569046
2949715858500,-0.94930100440979,-9.692925453186035,-0.871489405632019,-0.1658308207988739,-0.6375037431716919,-0.0931633859872818
2949717095825,-0.9696516990661621,-9.697713851928711,-0.8870517611503601,-0.1663631796836853,-0.6412302851676941,-0.0944942906498909
2949718333137,-1.0019733905792236,-9.682151794433594,-0.829590916633606,-0.1674279123544693,-0.6398993730545044,-0.0870412141084671
2949719570412,-0.950498104095459,-9.63067626953125,-0.8104372620582581,-0.1623704731464386,-0.6303168535232544,-0.0897030308842659
2949720807725,-0.9588778018951416,-9.59835433959961,-0.8080430626869202,-0.1546512097120285,-0.6340433955192566,-0.0934295654296875
2949722045050,-0.9481039047241211,-9.552865028381348,-0.8583213090896606,-0.152255579829216,-0.637237548828125,-0.0873074010014534
2949723282337,-0.9385270476341248,-9.570821762084961,-0.8403648138046265,-0.1557159423828125,-0.6367051601409912,-0.0891706645488739
2949724519650,-1.0055646896362305,-9.519346237182617,-0.8379706144332886,-0.1549174040555954,-0.6332448124885559,-0.0923648402094841
2949725756950,-0.9816226959228516,-9.521739959716797,-0.8655039072036743,-0.1495937705039978,-0.6279212236404419,-0.090501569211483
2949726994250,-0.9852139949798584,-9.446322441101074,-0.8391677141189575,-0.1527879536151886,-0.6244608759880066,-0.0878397598862648
2949728231562,-0.9876081943511963,-9.481039047241211,-0.8487445116043091,-0.1501261442899704,-0.6287197470664978,-0.0920986607670784
2949729468850,-0.9900023937225342,-9.477447509765625,-0.8415619134902954,-0.1448025107383728,-0.6223313808441162,-0.0891706645488739
2949730706175,-0.9516952037811279,-9.419986724853516,-0.8176198601722717,-0.1477305144071579,-0.618072509765625,-0.0881059393286705
2949731943450,-0.9720458984375,-9.457097053527832,-0.849941611289978,-0.147464320063591,-0.6223313808441162,-0.0886383056640625
2949733180775,-0.993593692779541,-9.436745643615723,-0.8140285611152649,-0.1384141743183136,-0.6231299638748169,-0.090501569211483
2949734418075,-1.0007762908935547,-9.429563522338867,-0.8523358106613159,-0.1360185444355011,-0.6175401210784912,-0.0899692103266716
2949735655375,-0.9911994934082031,-9.44871711730957,-0.889445960521698,-0.1349538117647171,-0.6154106855392456,-0.0891706645488739
2949736892687,-0.9983820915222168,-9.469067573547363,-0.8678981065750122,-0.1354861706495285,-0.6159430742263794,-0.0891706645488739
2949738129987,-1.015141487121582,-9.434351921081543,-0.8475474119186401,-0.1256374716758728,-0.6196696162223816,-0.0883721262216568
2949739367287,-1.0091559886932373,-9.44752025604248,-0.9385270476341248,-0.1219109445810318,-0.6156768798828125,-0.0915662944316864
2949740604600,-1.0103530883789062,-9.50498104095459,-0.8930372595787048,-0.1229756623506546,-0.6127488613128662,-0.0923648402094841
2949741841900,-1.0438719987869263,-9.466673851013184,-0.8906430602073669,-0.1184505894780159,-0.6108856201171875,-0.0897030308842659
2949743079200,-1.0211269855499268,-9.479841232299805,-0.888248860836029,-0.1141916885972023,-0.6106194257736206,-0.0934295654296875
2949744316500,-1.015141487121582,-9.47146224975586,-0.8307880163192749,-0.1094004288315773,-0.6087561845779419,-0.0931633859872818
2949745553787,-1.0283095836639404,-9.458293914794922,-0.8667010068893433,-0.1070047989487648,-0.6119503378868103,-0.090501569211483
2949746791112,-1.0283095836639404,-9.467870712280273,-0.871489405632019,-0.109666608273983,-0.604231059551239,-0.0936957448720932
2949748028412,-1.0247182846069336,-9.465476036071777,-0.8583213090896606,-0.1027459055185318,-0.60369873046875,-0.0944942906498909
2949749265712,-1.0666168928146362,-9.445125579833984,-0.8248025178909302,-0.0982208251953125,-0.6015692949295044,-0.0915662944316864
2949750503025,-1.0319008827209473,-9.50617790222168,-0.8307880163192749,-0.1008826345205307,-0.5999721884727478,-0.0960913747549057
2949751740312,-1.0414777994155884,-9.515754699707031,-0.871489405632019,-0.0992855504155159,-0.5962456464767456,-0.0955590158700943
2949752977612,-1.0450690984725952,-9.515754699707031,-0.7960720658302307,-0.0926310196518898,-0.5933176875114441,-0.0873074010014534
2949754214937,-1.0007762908935547,-9.501389503479004,-0.7769184708595276,-0.0883721262216568,-0.5986412763595581,-0.0894368439912796
2949755452237,-0.9983820915222168,-9.485827445983887,-0.8032546639442444,-0.0899692103266716,-0.5887925624847412,-0.0960913747549057
2949756689550,-1.0354923009872437,-9.528923034667969,-0.8331822156906128,-0.0851779505610466,-0.5858646035194397,-0.0931633859872818
2949757926837,-1.0043675899505615,-9.542091369628906,-0.7781155705451965,-0.0838470458984375,-0.5911881923675537,-0.0955590158700943
2949759164137,-0.9828197956085205,-9.53969669342041,-0.7972691655158997,-0.080919049680233,-0.5919867753982544,-0.0928971990942955
2949760401462,-1.0259153842926025,-9.5624418258667,-0.8020575642585754,-0.07666015625,-0.5834689736366272,-0.0923648402094841
2949761638750,-1.0342952013015747,-9.544485092163086,-0.8164227604866028,-0.076127789914608,-0.5786777138710022,-0.0934295654296875
2949762876062,-1.0390836000442505,-9.554061889648438,-0.7733271718025208,-0.0716027170419693,-0.5778791308403015,-0.0947604700922966
2949764113362,-0.9911994934082031,-9.526528358459473,-0.8176198601722717,-0.0662790909409523,-0.5736202597618103,-0.0928971990942955
2949765350675,-1.0558429956436157,-9.53969669342041,-0.8236054182052612,-0.0657467320561409,-0.574951171875,-0.0926310196518898
2949766587975,-1.0642226934432983,-9.53849983215332,-0.8415619134902954,-0.0660129114985466,-0.575483500957489,-0.0920986607670784
2949767825262,-1.072602391242981,-9.548076629638672,-0.8451532125473022,-0.0601569265127182,-0.5661671757698059,-0.0960913747549057
2949769062575,-1.1025298833847046,-9.567230224609375,-0.8200140595436096,-0.0636172816157341,-0.5677642822265625,-0.0974222794175148
2949770299875,-1.1312602758407593,-9.591172218322754,-0.8259996175765991,-0.0606892891228199,-0.5635053515434265,-0.0947604700922966
2949771537175,-1.1468225717544556,-9.57201862335205,-0.8403648138046265,-0.0598907470703125,-0.5592464804649353,-0.100084088742733
2949772774487,-1.1001356840133667,-9.588777542114258,-0.8607155084609985,-0.0617540143430233,-0.5568508505821228,-0.1014149934053421
2949774011787,-1.1563994884490967,-9.625887870788574,-0.8439561128616333,-0.0593583844602108,-0.5525919795036316,-0.0971560999751091
2949775249087,-1.1516109704971313,-9.615114212036133,-0.8810662031173706,-0.0553656667470932,-0.5488654375076294,-0.0974222794175148
2949776486387,-1.1300631761550903,-9.623494148254395,-0.8990227580070496,-0.0540347620844841,-0.5440741777420044,-0.0960913747549057
2949777723712,-1.1480196714401245,-9.623494148254395,-0.9133879542350769,-0.0535023994743824,-0.5424770712852478,-0.0976884588599205
2949778961000,-1.1587936878204346,-9.627084732055664,-0.9038111567497253,-0.0513729527592659,-0.5368872880935669,-0.0982208251953125
2949780198325,-1.1635820865631104,-9.639056205749512,-0.9097966551780701,-0.0529700368642807,-0.5416785478591919,-0.0939619243144989
2949781435600,-1.094150185585022,-9.658209800720215,-0.9085995554924011,-0.0511067695915699,-0.5310313105583191,-0.0966237336397171
2949782672900,-1.1767501831054688,-9.647436141967773,-0.8858546614646912,-0.0481787770986557,-0.5267723798751831,-0.0979546457529068
2949783910200,-1.1528080701828003,-9.697713851928711,-0.8798691034317017,-0.0503082275390625,-0.5281032919883728,-0.0968899205327034
2949785147525,-1.1432312726974487,-9.66419506072998,-0.8248025178909302,-0.0535023994743824,-0.5166575312614441,-0.0992855504155159
2949786384825,-1.136048674583435,-9.646238327026367,-0.8750807046890259,-0.0492435023188591,-0.5198516845703125,-0.1043429896235466
2949787622112,-1.1408370733261108,-9.670180320739746,-0.8475474119186401,-0.0417904332280159,-0.517988383769989,-0.1056738942861557
2949788859425,-1.1803414821624756,-9.633070945739746,-0.8822633624076843,-0.0449846051633358,-0.512664794921875,-0.1014149934053421
2949790096737,-1.115697979927063,-9.621099472045898,-0.8822633624076843,-0.0492435023188591,-0.5110676884651184,-0.0984870046377182
2949791334037,-1.1288660764694214,-9.640253067016602,-0.8978256583213806,-0.0441860631108284,-0.508405864238739,-0.0976884588599205
2949792571350,-1.1312602758407593,-9.623494148254395,-0.9181763529777527,-0.0415242500603199,-0.5014851689338684,-0.1014149934053421
2949793808650,-1.1049240827560425,-9.65222454071045,-0.8583213090896606,-0.0452507846057415,-0.4953630268573761,-0.1075371652841568
2949795045937,-1.0965443849563599,-9.696516990661621,-0.8858546614646912,-0.0452507846057415,-0.4974924623966217,-0.1072709783911705
2949796283237,-1.0989385843276978,-9.657012939453125,-0.9133879542350769,-0.0415242500603199,-0.4956291913986206,-0.1019473597407341
2949797520550,-1.1180921792984009,-9.658209800720215,-0.8834604620933533,-0.0412580706179142,-0.4927012026309967,-0.0992855504155159
2949798757862,-1.0797849893569946,-9.68933391571045,-0.8690952062606812,-0.0415242500603199,-0.4847157597541809,-0.0995517298579216
2949799995150,-1.0546458959579468,-9.68694019317627,-0.9038111567497253,-0.038330078125,-0.4815216064453125,-0.100084088742733
2949801232462,-1.0809820890426636,-9.672574996948242,-0.93254154920578,-0.0412580706179142,-0.4799244999885559,-0.0984870046377182
2949802469762,-1.1001356840133667,-9.674968719482422,-0.9014169573783875,-0.0417904332280159,-0.4788597822189331,-0.1035444438457489
2949803707075,-1.0833762884140015,-9.727641105651855,-0.8738836050033569,-0.0375315360724926,-0.4746008813381195,-0.1032782644033432
2949804944375,-1.0905588865280151,-9.736021041870117,-0.8906430602073669,-0.0396609827876091,-0.4655507206916809,-0.0990193635225296
2949806181675,-1.0869675874710083,-9.773131370544434,-0.8822633624076843,-0.0367329902946949,-0.4668816328048706,-0.0976884588599205
2949807418987,-1.1061211824417114,-9.739612579345703,-0.8906430602073669,-0.0409918874502182,-0.467413991689682,-0.0947604700922966
2949808656287,-1.0594342947006226,-9.801861763000488,-0.9421183466911316,-0.0385962575674057,-0.4618242084980011,-0.0971560999751091
2949809893600,-1.1180921792984009,-9.803058624267578,-0.9217676520347595,-0.038330078125,-0.4610256552696228,-0.0966237336397171
2949811130900,-1.0977414846420288,-9.771934509277344,-0.8930372595787048,-0.0425889752805233,-0.4570329487323761,-0.0966237336397171
2949812368187,-1.0761936902999878,-9.837775230407715,-0.8810662031173706,-0.0372653529047966,-0.4554358422756195,-0.0950266495347023
2949813605512,-1.0618284940719604,-9.850942611694336,-0.9133879542350769,-0.0412580706179142,-0.4477165937423706,-0.091033935546875
2949814842800,-1.0630255937576294,-9.856928825378418,-0.9241618514060974,-0.0407257080078125,-0.4431915283203125,-0.0894368439912796
2949816080125,-1.0809820890426636,-9.862914085388184,-0.9038111567497253,-0.0441860631108284,-0.4429253339767456,-0.0851779505610466
2949817317412,-1.1085153818130493,-9.888052940368652,-0.8224083185195923,-0.0417904332280159,-0.4381340742111206,-0.0886383056640625
2949818554712,-1.091755986213684,-9.854534149169922,-0.811634361743927,-0.0399271659553051,-0.4384002685546875,-0.091033935546875
2949819792025,-1.1001356840133667,-9.84376049041748,-0.8248025178909302,-0.0439198799431324,-0.4346737265586853,-0.0854441300034523
2949821029312,-1.1180921792984009,-9.860519409179688,-0.8571242094039917,-0.0468478724360466,-0.4322780966758728,-0.0835808664560318
2949822266625,-1.0534487962722778,-9.794679641723633,-0.8619126081466675,-0.0452507846057415,-0.4317457377910614,-0.0790557861328125
2949823503925,-1.0558429956436157,-9.813833236694336,-0.872686505317688,-0.0463155098259449,-0.4229617714881897,-0.0750630721449852
2949824741237,-1.072602391242981,-9.787496566772461,-0.8870517611503601,-0.0489773228764534,-0.4187028706073761,-0.0742645263671875
2949825978537,-1.0426748991012573,-9.734824180603027,-0.851138710975647,-0.0439198799431324,-0.4205661416053772,-0.0710703507065773
2949827215862,-1.0522516965866089,-9.709685325622559,-0.8918401598930359,-0.0407257080078125,-0.416839599609375,-0.0747968852519989
2949828453175,-1.0414777994155884,-9.714473724365234,-0.9002198576927185,-0.0465816929936409,-0.4104512333869934,-0.0750630721449852
2949829690462,-1.049857497215271,-9.678560256958008,-0.8259996175765991,-0.0553656667470932,-0.4024658203125,-0.0755954310297966
2949830927762,-1.0965443849563599,-9.666589736938477,-0.8858546614646912,-0.0484449602663517,-0.4040628969669342,-0.071336530148983
2949832165062,-1.1013327836990356,-9.648633003234863,-0.8750807046890259,-0.0409918874502182,-0.4053938090801239,-0.0724012553691864
2949833402375,-1.092953085899353,-9.674968719482422,-0.9421183466911316,-0.0436537005007267,-0.3934156596660614,-0.0753292515873909
2949834639675,-1.1109095811843872,-9.613917350769043,-0.9145850539207458,-0.0492435023188591,-0.3926171064376831,-0.0716027170419693
2949835876962,-1.0390836000442505,-9.599552154541016,-0.9516952037811279,-0.0503082275390625,-0.3915523886680603,-0.0721350759267807
2949837114275,-1.0582371950149536,-9.617507934570312,-0.9744400978088379,-0.0481787770986557,-0.3899553120136261,-0.0700056254863739
2949838351587,-1.0654197931289673,-9.615114212036133,-0.9840168952941895,-0.0436537005007267,-0.3883582055568695,-0.0702718123793602
2949839588887,-1.0893617868423462,-9.622296333312988,-1.0031704902648926,-0.0468478724360466,-0.3779771625995636,-0.0662790909409523
2949840826187,-1.0785878896713257,-9.563638687133789,-0.9660604000091553,-0.0471140518784523,-0.3761138916015625,-0.0702718123793602
2949842063487,-1.0546458959579468,-9.603142738342285,-0.970848798751831,-0.0444522425532341,-0.3734520673751831,-0.0726674422621727
2949843300800,-1.0761936902999878,-9.570821762084961,-0.9840168952941895,-0.0356682650744915,-0.3705240786075592,-0.0694732666015625
2949844538100,-1.0857704877853394,-9.583989143371582,-0.9349357485771179,-0.0356682650744915,-0.3683946430683136,-0.0676099956035614
2949845775400,-1.0881646871566772,-9.657012939453125,-0.9421183466911316,-0.033538818359375,-0.3598768413066864,-0.0654805526137352
2949847012712,-1.07379949092865,-9.642647743225098,-0.9409212470054626,-0.0354020856320858,-0.3550855815410614,-0.0686747208237648
2949848250025,-1.0965443849563599,-9.65222454071045,-0.9780313968658447,-0.0385962575674057,-0.3529561161994934,-0.071868896484375
2949849487312,-1.0833762884140015,-9.704896926879883,-0.94930100440979,-0.0354020856320858,-0.3502943217754364,-0.0702718123793602
2949850724612,-1.0881646871566772,-9.728838920593262,-0.94930100440979,-0.0338049978017807,-0.3513590395450592,-0.066545270383358
2949851961925,-1.070208191871643,-9.745597839355469,-0.9301473498344421,-0.0276828333735466,-0.3441721498966217,-0.0686747208237648
2949853199250,-1.1228805780410767,-9.708487510681152,-0.9253589510917664,-0.02874755859375,-0.3415103554725647,-0.0708041712641716
2949854436525,-1.095347285270691,-9.720458984375,-0.9205705523490906,-0.02794901467859745,-0.333258718252182,-0.0654805526137352
2949855673837,-1.0462661981582642,-9.720458984375,-0.8906430602073669,-0.02794901467859745,-0.3324601948261261,-0.0644158273935318
2949856911125,-1.0690110921859741,-9.786299705505371,-0.9373299479484558,-0.03034464456140995,-0.3297983705997467,-0.062286376953125
2949858148450,-1.0905588865280151,-9.774328231811523,-0.9026140570640564,-0.03087700717151165,-0.3287336528301239,-0.0628187358379364
2949859385737,-1.0845733880996704,-9.745597839355469,-0.889445960521698,-0.0306108258664608,-0.3234100341796875,-0.0638834610581398
2949860623050,-1.048660397529602,-9.762357711791992,-0.9277531504631042,-0.02901373989880085,-0.3220791220664978,-0.0601569265127182
2949861860362,-1.0582371950149536,-9.782708168029785,-0.9217676520347595,-0.0282151959836483,-0.3156907856464386,-0.0652143657207489
2949863097650,-1.0618284940719604,-9.803058624267578,-0.8678981065750122,-0.02901373989880085,-0.3127627968788147,-0.0649481862783432
2949864334962,-0.9983820915222168,-9.765949249267578,-0.9026140570640564,-0.0276828333735466,-0.3122304379940033,-0.0561642125248909
2949865572262,-1.01753568649292,-9.77552604675293,-0.828393816947937,-0.03087700717151165,-0.3124966025352478,-0.0511067695915699
2949866809575,-1.0522516965866089,-9.785102844238281,-0.8978256583213806,-0.02608574740588665,-0.299719899892807,-0.0580274797976017
2949868046887,-1.1013327836990356,-9.793481826782227,-0.8583213090896606,-0.02608574740588665,-0.3005184531211853,-0.0543009415268898
2949869284187,-1.0666168928146362,-9.769539833068848,-0.8870517611503601,-0.02502102218568325,-0.2975904643535614,-0.0561642125248909
2949870521500,-1.0845733880996704,-9.792284965515137,-0.8906430602073669,-0.0252872034907341,-0.2938639223575592,-0.0590922012925148
2949871758787,-1.0462661981582642,-9.770737648010254,-0.8846575617790222,-0.02555338479578495,-0.2888064980506897,-0.0540347620844841
2949872996112,-1.0450690984725952,-9.749189376831055,-0.9157821536064148,-0.02794901467859745,-0.2888064980506897,-0.052703857421875
2949874233400,-1.0833762884140015,-9.761160850524902,-0.9193734526634216,-0.02874755859375,-0.2829504907131195,-0.0550994873046875
2949875470712,-1.0989385843276978,-9.745597839355469,-0.8607155084609985,-0.02608574740588665,-0.2797563374042511,-0.057228934019804
2949876708000,-1.0402806997299194,-9.706093788146973,-0.8487445116043091,-0.0258195661008358,-0.2773607075214386,-0.0495096817612648
2949877945312,-1.0570400953292847,-9.68694019317627,-0.9277531504631042,-0.02182685025036335,-0.2725694477558136,-0.0529700368642807
2949879182612,-1.071405291557312,-9.657012939453125,-0.871489405632019,-0.0234239362180233,-0.2675119936466217,-0.0577612966299057
2949880419912,-1.0690110921859741,-9.678560256958008,-0.9014169573783875,-0.0252872034907341,-0.2616560161113739,-0.0545671246945858
2949881657225,-1.0749965906143188,-9.690531730651855,-0.9397241473197937,-0.0247548408806324,-0.2544691264629364,-0.0569627545773983
2949882894525,-0.9900023937225342,-9.633070945739746,-0.9074024558067322,-0.0210283063352108,-0.2558000385761261,-0.0590922012925148
2949884131837,-0.9792284965515137,-9.643844604492188,-0.8906430602073669,-0.01756795309484005,-0.2581956684589386,-0.0569627545773983
2949885369137,-1.0366894006729126,-9.621099472045898,-0.912190854549408,-0.02076212503015995,-0.2504764199256897,-0.0585598424077034
2949886606437,-1.070208191871643,-9.586383819580078,-0.8942343592643738,-0.01943122036755085,-0.2456851452589035,-0.062286376953125
2949887843737,-1.0330979824066162,-9.587580680847168,-0.9349357485771179,-0.01943122036755085,-0.2448866069316864,-0.0617540143430233
2949889081050,-0.9852139949798584,-9.625887870788574,-0.9660604000091553,-0.0181003138422966,-0.2390306293964386,-0.0641496405005455
2949890318350,-1.0462661981582642,-9.618705749511719,-0.9636662006378174,-0.013042873702943325,-0.2326422780752182,-0.0654805526137352
2949891555675,-1.0319008827209473,-9.613917350769043,-0.9469068050384521,-0.0114457868039608,-0.2345055490732193,-0.0636172816157341
2949892792950,-1.048660397529602,-9.62947940826416,-0.9457097053527832,-0.007453070487827063,-0.2297142893075943,-0.0601569265127182
2949894030262,-1.0438719987869263,-9.611522674560547,-0.9660604000091553,-0.00958251953125,-0.2297142893075943,-0.0628187358379364
2949895267550,-1.0319008827209473,-9.618705749511719,-0.9002198576927185,-0.013042873702943325,-0.2321099191904068,-0.0673438161611557
2949896504875,-1.0642226934432983,-9.65222454071045,-0.9349357485771179,-0.00692070834338665,-0.2238582968711853,-0.0657467320561409
2949897742150,-1.070208191871643,-9.640253067016602,-0.9756371974945068,-0.005855984054505825,-0.2201317697763443,-0.0676099956035614
2949898979487,-1.0031704902648926,-9.712079048156738,-0.9792284965515137,-0.0090501569211483,-0.2158728688955307,-0.0676099956035614
2949900216775,-1.0450690984725952,-9.692925453186035,-0.9457097053527832,-0.004791259765625,-0.2108154296875,-0.0700056254863739
2949901454087,-1.0115501880645752,-9.71926212310791,-0.9074024558067322,0.0,-0.2081536203622818,-0.0646820068359375
2949902691400,-1.0019733905792236,-9.734824180603027,-0.9062053561210632,0.0037265352439135313,-0.2092183381319046,-0.0681423619389534
2949903928687,-1.0307037830352783,-9.740809440612793,-0.9074024558067322,0.008251613937318325,-0.2041608989238739,-0.0692070871591568
2949905166012,-0.99479079246521,-9.744400978088379,-0.8786720037460327,0.0015970865497365594,-0.200168177485466,-0.0684085413813591
2949906403300,-0.9481039047241211,-9.706093788146973,-0.9648633003234863,0.0037265352439135313,-0.2028299868106842,-0.0700056254863739
2949907640612,-0.9576807022094727,-9.75517463684082,-0.9540894031524658,0.007985432632267475,-0.2007005512714386,-0.0668114572763443
2949908877912,-0.9361328482627869,-9.763554573059082,-0.9684545993804932,0.010913425125181675,-0.196441650390625,-0.0668114572763443
2949910115225,-0.94930100440979,-9.749189376831055,-0.9445126056671143,0.0066545275039970875,-0.1937798410654068,-0.0652143657207489
2949911352512,-0.9349357485771179,-9.746795654296875,-0.9062053561210632,0.0090501569211483,-0.1847296804189682,-0.0710703507065773
2949912589825,-0.9481039047241211,-9.715670585632324,-0.910993754863739,0.0119781494140625,-0.1794060617685318,-0.076127789914608
2949913827150,-0.93254154920578,-9.730035781860352,-0.9253589510917664,0.008517795242369175,-0.1836649477481842,-0.0755954310297966
2949915064437,-0.9253589510917664,-9.77791976928711,-0.8906430602073669,0.0071868896484375,-0.1826002299785614,-0.0726674422621727
2949916301750,-0.9074024558067322,-9.743204116821289,-0.8834604620933533,0.010647243820130825,-0.1804707795381546,-0.0726674422621727
2949917539050,-0.8762778043746948,-9.733627319335938,-0.8966285586357117,0.00931633822619915,-0.171420618891716,-0.0710703507065773
2949918776350,-0.8331822156906128,-9.695320129394531,-0.9002198576927185,0.00692070834338665,-0.1708882600069046,-0.0726674422621727
2949920013650,-0.8535329103469849,-9.704896926879883,-0.849941611289978,0.0162370465695858,-0.1759456992149353,-0.0700056254863739
2949921250925,-0.8415619134902954,-9.670180320739746,-0.9038111567497253,0.0157046839594841,-0.177276611328125,-0.0705379918217659
2949922488262,-0.8475474119186401,-9.643844604492188,-0.8798691034317017,0.012776692397892475,-0.1684926301240921,-0.0676099956035614
2949923725562,-0.872686505317688,-9.6618013381958,-0.888248860836029,0.012510511092841625,-0.1647661030292511,-0.0716027170419693
2949924962887,-0.8583213090896606,-9.63067626953125,-0.9014169573783875,0.015172322280704975,-0.1631690114736557,-0.0739983469247818
2949926200175,-0.8463503122329712,-9.624691009521484,-0.8930372595787048,0.0181003138422966,-0.1655646413564682,-0.0702718123793602
2949927437475,-0.8415619134902954,-9.62947940826416,-0.9169792532920837,0.015172322280704975,-0.1660970002412796,-0.0753292515873909
2949928674787,-0.8080430626869202,-9.63067626953125,-0.9528923034667969,0.02182685025036335,-0.1613057404756546,-0.0755954310297966
2949929912100,-0.829590916633606,-9.613917350769043,-0.9217676520347595,0.02262539230287075,-0.1621042937040329,-0.0721350759267807
2949931149387,-0.8547300100326538,-9.607931137084961,-0.9133879542350769,0.0210283063352108,-0.1559821218252182,-0.0745307058095932
2949932386687,-0.8439561128616333,-9.637859344482422,-0.8990227580070496,0.02555338479578495,-0.1565144807100296,-0.0742645263671875
2949933623987,-0.7852981686592102,-9.612719535827637,-0.8822633624076843,0.02874755859375,-0.1530541330575943,-0.0705379918217659
2949934861312,-0.7984662652015686,-9.57441234588623,-0.8631097078323364,0.0322079136967659,-0.1559821218252182,-0.0716027170419693
2949936098625,-0.788889467716217,-9.613917350769043,-0.9014169573783875,0.0319417305290699,-0.1525217741727829,-0.0684085413813591
2949937335912,-0.7996633648872375,-9.610325813293457,-0.888248860836029,0.0322079136967659,-0.1479966938495636,-0.0705379918217659
2949938573212,-0.7721300721168518,-9.57441234588623,-0.849941611289978,0.0362006276845932,-0.1501261442899704,-0.0755954310297966
2949939810512,-0.7876923680305481,-9.564835548400879,-0.8762778043746948,0.0385962575674057,-0.1503923237323761,-0.071868896484375
2949941047812,-0.7912836670875549,-9.585186958312988,-0.8535329103469849,0.0375315360724926,-0.1445363312959671,-0.0702718123793602
2949942285125,-0.8212112188339233,-9.546879768371582,-0.7984662652015686,0.0372653529047966,-0.1466657817363739,-0.0694732666015625
2949943522425,-0.7805097699165344,-9.526528358459473,-0.8559271097183228,0.0401933453977108,-0.1495937705039978,-0.0697394460439682
2949944759737,-0.7984662652015686,-9.527726173400879,-0.8595184087753296,0.0471140518784523,-0.1509246826171875,-0.0721350759267807
2949945997025,-0.7314286231994629,-9.501389503479004,-0.8738836050033569,0.0441860631108284,-0.1463996022939682,-0.0726674422621727
2949947234350,-0.7793126702308655,-9.542091369628906,-0.8475474119186401,0.0452507846057415,-0.1479966938495636,-0.0774587020277977
2949948471662,-0.7589619159698486,-9.4822359085083,-0.872686505317688,0.0500420443713665,-0.147464320063591,-0.0745307058095932
2949949708950,-0.7625532746315002,-9.476250648498535,-0.8439561128616333,0.0497758649289608,-0.142673060297966,-0.0734659805893898
2949950946250,-0.7769184708595276,-9.509769439697266,-0.8535329103469849,0.0505744069814682,-0.1408098042011261,-0.0787896066904068
2949952183575,-0.7721300721168518,-9.530119895935059,-0.8415619134902954,0.057228934019804,-0.1418745219707489,-0.0782572403550148
2949953420862,-0.7864952683448792,-9.519346237182617,-0.8655039072036743,0.0604231096804142,-0.1442701518535614,-0.0692070871591568
2949954658175,-0.7589619159698486,-9.501389503479004,-0.8655039072036743,0.0582936592400074,-0.1458672434091568,-0.0702718123793602
2949955895462,-0.7386112213134766,-9.510966300964355,-0.8559271097183228,0.062286376953125,-0.1463996022939682,-0.0742645263671875
2949957132787,-0.751779317855835,-9.50498104095459,-0.8643068075180054,0.0638834610581398,-0.1394788920879364,-0.0753292515873909
2949958370087,-0.7410054206848145,-9.544485092163086,-0.871489405632019,0.0678761824965477,-0.1384141743183136,-0.0700056254863739
2949959607387,-0.7122750282287598,-9.575610160827637,-0.8487445116043091,0.0729336217045784,-0.1397450715303421,-0.0724012553691864
2949960844687,-0.7003040313720703,-9.549273490905762,-0.8367735147476196,0.0702718123793602,-0.1400112509727478,-0.0753292515873909
2949962081987,-0.6943184733390808,-9.549273490905762,-0.8702923059463501,0.0721350759267807,-0.1418745219707489,-0.071868896484375
2949963319287,-0.6967126727104187,-9.57441234588623,-0.888248860836029,0.0747968852519989,-0.1405436247587204,-0.07666015625
2949964556612,-0.7158663272857666,-9.604340553283691,-0.8331822156906128,0.0769263356924057,-0.1365509033203125,-0.076127789914608
2949965793912,-0.727837324142456,-9.558850288391113,-0.8690952062606812,0.0758616104722023,-0.1410759836435318,-0.0758616104722023
2949967031212,-0.706289529800415,-9.582792282104492,-0.8367735147476196,0.0771925151348114,-0.1416083425283432,-0.0771925151348114
2949968268525,-0.727837324142456,-9.615114212036133,-0.8439561128616333,0.0785234197974205,-0.1400112509727478,-0.0745307058095932
2949969505825,-0.6584054827690125,-9.604340553283691,-0.8056488633155823,0.0819837749004364,-0.1384141743183136,-0.0750630721449852
2949970743125,-0.707486629486084,-9.63067626953125,-0.8331822156906128,0.0822499617934227,-0.1413421630859375,-0.0742645263671875
2949971980425,-0.707486629486084,-9.609128952026367,-0.829590916633606,0.0825161412358284,-0.1402774304151535,-0.0827823206782341
2949973217725,-0.7218518257141113,-9.625887870788574,-0.7841010689735413,0.0843794047832489,-0.1432054340839386,-0.0846455842256546
2949974455037,-0.7362170219421387,-9.642647743225098,-0.8259996175765991,0.0801205113530159,-0.1373494416475296,-0.0841132253408432
2949975692337,-0.7230489253997803,-9.653421401977539,-0.828393816947937,0.08624267578125,-0.1442701518535614,-0.0795881450176239
2949976929637,-0.7374141216278076,-9.670180320739746,-0.8451532125473022,0.0873074010014534,-0.1434716135263443,-0.0817175954580307
2949978166937,-0.707486629486084,-9.7420072555542,-0.8080430626869202,0.0889044851064682,-0.1429392546415329,-0.0835808664560318
2949979404250,-0.7146692276000977,-9.759963035583496,-0.8439561128616333,0.0913001149892807,-0.1418745219707489,-0.0777248814702034
2949980641550,-0.7422025203704834,-9.732430458068848,-0.8834604620933533,0.0939619243144989,-0.1458672434091568,-0.0790557861328125
2949981878862,-0.7410054206848145,-9.732430458068848,-0.8463503122329712,0.0950266495347023,-0.1434716135263443,-0.07666015625
2949983116175,-0.7649474740028381,-9.758766174316406,-0.872686505317688,0.0958251953125,-0.1429392546415329,-0.0747968852519989
2949984353475,-0.7996633648872375,-9.757569313049316,-0.8702923059463501,0.0873074010014534,-0.1445363312959671,-0.0777248814702034
2949985590775,-0.7613561749458313,-9.792284965515137,-0.8678981065750122,0.0881059393286705,-0.1440039724111557,-0.0755954310297966
2949986828062,-0.7541735172271729,-9.787496566772461,-0.8583213090896606,0.0942281037569046,-0.1442701518535614,-0.0750630721449852
2949988065375,-0.7697358727455139,-9.764751434326172,-0.8667010068893433,0.0955590158700943,-0.1450686901807785,-0.0745307058095932
2949989302700,-0.7457938194274902,-9.819818496704102,-0.8427590131759644,0.0950266495347023,-0.1456010639667511,-0.0710703507065773
2949990540000,-0.7410054206848145,-9.813833236694336,-0.851138710975647,0.0936957448720932,-0.1429392546415329,-0.0700056254863739
2949991777287,-0.7374141216278076,-9.756372451782227,-0.8834604620933533,0.0963575541973114,-0.1442701518535614,-0.0689409002661705
2949993014600,-0.7098808288574219,-9.803058624267578,-0.8343793153762817,0.0974222794175148,-0.1434716135263443,-0.066545270383358
2949994251912,-0.7194576263427734,-9.824606895446777,-0.8307880163192749,0.0942281037569046,-0.1440039724111557,-0.0662790909409523
2949995489200,-0.7146692276000977,-9.86650562286377,-0.8152256608009338,0.0915662944316864,-0.1432054340839386,-0.0649481862783432
2949996726512,-0.7242460250854492,-9.888052940368652,-0.8319851160049438,0.0923648402094841,-0.1394788920879364,-0.0649481862783432
2949997963812,-0.7170634269714355,-9.898826599121094,-0.8200140595436096,0.0928971990942955,-0.1442701518535614,-0.066545270383358
2949999201112,-0.706289529800415,-9.852140426635742,-0.8774749040603638,0.0942281037569046,-0.1394788920879364,-0.0657467320561409
2950000438425,-0.7637503743171692,-9.921571731567383,-0.8355764150619507,0.0928971990942955,-0.148529052734375,-0.0588260218501091
2950001675725,-0.7050924301147461,-9.938331604003906,-0.8750807046890259,0.090501569211483,-0.1493275910615921,-0.0588260218501091
2950002913025,-0.7326257228851318,-9.931148529052734,-0.8224083185195923,0.0870412141084671,-0.1432054340839386,-0.0590922012925148
2950004150325,-0.7194576263427734,-9.932345390319824,-0.8702923059463501,0.0875735804438591,-0.1434716135263443,-0.0529700368642807
2950005387637,-0.7721300721168518,-9.943120002746582,-0.94930100440979,0.0854441300034523,-0.1434716135263443,-0.0561642125248909
2950006624925,-0.7170634269714355,-9.959878921508789,-0.8415619134902954,0.0841132253408432,-0.147464320063591,-0.0593583844602108
2950007862237,-0.7015011310577393,-9.898826599121094,-0.8439561128616333,0.0838470458984375,-0.1495937705039978,-0.0580274797976017
2950009099537,-0.6703764796257019,-9.947908401489258,-0.7829039692878723,0.0825161412358284,-0.1463996022939682,-0.0558980293571949
2950010336837,-0.6931213736534119,-9.971850395202637,-0.7793126702308655,0.0841132253408432,-0.1461334228515625,-0.0561642125248909
2950011574137,-0.6943184733390808,-9.922768592834473,-0.7972691655158997,0.0803866907954216,-0.1493275910615921,-0.0540347620844841
2950012811462,-0.6979097723960876,-9.9371337890625,-0.8559271097183228,0.0779910609126091,-0.1463996022939682,-0.0590922012925148
2950014048775,-0.6715735793113708,-9.876082420349121,-0.7745242714881897,0.076127789914608,-0.1477305144071579,-0.0553656667470932
2950015286075,-0.6919242739677429,-9.9000244140625,-0.7960720658302307,0.0787896066904068,-0.1479966938495636,-0.0492435023188591
2950016523362,-0.6799532771110535,-9.856928825378418,-0.7841010689735413,0.0692070871591568,-0.1519894003868103,-0.0553656667470932
2950017760675,-0.6967126727104187,-9.921571731567383,-0.7493851184844971,0.0697394460439682,-0.1503923237323761,-0.052703857421875
2950018997975,-0.6763619780540466,-9.8784761428833,-0.767341673374176,0.0731998011469841,-0.1482628732919693,-0.0495096817612648
2950020235287,-0.6643909811973572,-9.849745750427246,-0.7422025203704834,0.0652143657207489,-0.1501261442899704,-0.0492435023188591
2950021472587,-0.690727174282074,-9.834183692932129,-0.7745242714881897,0.0617540143430233,-0.1498599499464035,-0.0487111397087574
2950022709887,-0.7026982307434082,-9.823410034179688,-0.811634361743927,0.0606892891228199,-0.1466657817363739,-0.0492435023188591
2950023947187,-0.6931213736534119,-9.840168952941895,-0.829590916633606,0.0638834610581398,-0.1541188508272171,-0.0521714948117733
2950025184512,-0.706289529800415,-9.761160850524902,-0.8391677141189575,0.0601569265127182,-0.1517232209444046,-0.0465816929936409
2950026421812,-0.6919242739677429,-9.801861763000488,-0.8379706144332886,0.0577612966299057,-0.1509246826171875,-0.0468478724360466
2950027659125,-0.7445967197418213,-9.797073364257812,-0.8403648138046265,0.0577612966299057,-0.1567806601524353,-0.0535023994743824
2950028896412,-0.6655880808830261,-9.813833236694336,-0.811634361743927,0.0574951171875,-0.1493275910615921,-0.0511067695915699
2950030133725,-0.6799532771110535,-9.81024169921875,-0.8307880163192749,0.0577612966299057,-0.1469319611787796,-0.0473802350461483
2950031371025,-0.706289529800415,-9.81143856048584,-0.8702923059463501,0.052437674254179,-0.1538526713848114,-0.047646414488554
2950032608325,-0.729034423828125,-9.816226959228516,-0.8463503122329712,0.047646414488554,-0.1543850302696228,-0.0500420443713665
2950033845625,-0.7805097699165344,-9.838972091674805,-0.8355764150619507,0.0535023994743824,-0.1461334228515625,-0.0513729527592659
2950035082925,-0.7314286231994629,-9.87967300415039,-0.8212112188339233,0.0553656667470932,-0.1530541330575943,-0.0412580706179142
2950036320237,-0.7098808288574219,-9.84615421295166,-0.8583213090896606,0.0508405901491642,-0.1610395610332489,-0.0449846051633358
2950037557550,-0.6823474764823914,-9.883264541625977,-0.8403648138046265,0.0463155098259449,-0.1498599499464035,-0.0487111397087574
2950038794850,-0.689530074596405,-9.870096206665039,-0.828393816947937,0.0471140518784523,-0.1549174040555954,-0.0484449602663517
2950040032150,-0.6739677786827087,-9.87967300415039,-0.7876923680305481,0.0444522425532341,-0.1589101105928421,-0.043121337890625
2950041269450,-0.6584054827690125,-9.873687744140625,-0.7841010689735413,0.0393948033452034,-0.1511908620595932,-0.0399271659553051
2950042506750,-0.6787561774253845,-9.838972091674805,-0.7924807667732239,0.0433875173330307,-0.1549174040555954,-0.0449846051633358
2950043744050,-0.6548141837120056,-9.907206535339355,-0.7589619159698486,0.0417904332280159,-0.1605072021484375,-0.0489773228764534
2950044981362,-0.6356605291366577,-9.858125686645508,-0.7996633648872375,0.0354020856320858,-0.158111572265625,-0.042855154722929
2950046218675,-0.6380547285079956,-9.897629737854004,-0.7876923680305481,0.033538818359375,-0.1519894003868103,-0.0436537005007267
2950047455987,-0.5949591398239136,-9.926360130310059,-0.7697358727455139,0.0362006276845932,-0.1602410227060318,-0.0463155098259449
2950048693287,-0.608127236366272,-9.922768592834473,-0.7864952683448792,0.033538818359375,-0.1573130339384079,-0.0367329902946949
2950049930587,-0.608127236366272,-9.916783332824707,-0.7541735172271729,0.03087700717151165,-0.1639675498008728,-0.0367329902946949
2950051167887,-0.6177040338516235,-9.922768592834473,-0.7469909191131592,0.0316755510866642,-0.1634351909160614,-0.0399271659553051
2950052405187,-0.5793968439102173,-9.917980194091797,-0.7601590752601624,0.0306108258664608,-0.1623704731464386,-0.042855154722929
2950053642500,-0.5793968439102173,-9.925163269042969,-0.7661445736885071,0.0196974016726017,-0.1623704731464386,-0.0401933453977108
2950054879812,-0.5578489899635315,-9.880870819091797,-0.7529764175415039,0.0186326764523983,-0.1639675498008728,-0.0369991734623909
2950056117087,-0.52552729845047,-9.86650562286377,-0.768538773059845,0.0204959437251091,-0.1650322824716568,-0.0356682650744915
2950057354412,-0.4908113479614258,-9.862914085388184,-0.6787561774253845,0.0220930315554142,-0.1679602712392807,-0.038330078125
2950058591712,-0.4776432514190674,-9.799468040466309,-0.6667851805686951,0.0191650390625,-0.1658308207988739,-0.0369991734623909
2950059829037,-0.4596867263317108,-9.75158405303955,-0.6991068720817566,0.01836649514734745,-0.166629359126091,-0.0372653529047966
2950061066325,-0.4572925269603729,-9.701305389404297,-0.6835445761680603,0.01756795309484005,-0.1700897216796875,-0.0362006276845932
2950062303637,-0.38307228684425354,-9.695320129394531,-0.6607996821403503,0.0173017717897892,-0.1703559011220932,-0.0362006276845932
2950063540925,-0.42856210470199585,-9.65222454071045,-0.7134721279144287,0.0157046839594841,-0.1730177104473114,-0.0407257080078125
2950064778237,-0.40462008118629456,-9.672574996948242,-0.6751648783683777,0.01650322787463665,-0.1746148020029068,-0.0393948033452034
2950066015537,-0.44771572947502136,-9.65222454071045,-0.6955155730247498,0.0157046839594841,-0.177276611328125,-0.0401933453977108
2950067252837,-0.5003881454467773,-9.645041465759277,-0.6775590777397156,0.01463996060192585,-0.1818016916513443,-0.0367329902946949
2950068490137,-0.4752490520477295,-9.645041465759277,-0.6536170840263367,0.01836649514734745,-0.1863267719745636,-0.0319417305290699
2950069727462,-0.5746083855628967,-9.646238327026367,-0.7469909191131592,0.0173017717897892,-0.1841973215341568,-0.0391286201775074
2950070964750,-0.585382342338562,-9.65222454071045,-0.7469909191131592,0.01703559048473835,-0.1855282187461853,-0.0452507846057415
2950072202062,-0.5901707410812378,-9.712079048156738,-0.7469909191131592,0.0162370465695858,-0.1911180317401886,-0.0449846051633358
2950073439375,-0.5829881429672241,-9.762357711791992,-0.768538773059845,0.01650322787463665,-0.1929812878370285,-0.0447184219956398
2950074676662,-0.6344634294509888,-9.763554573059082,-0.790086567401886,0.0191650390625,-0.1943121999502182,-0.0404595248401165
2950075913987,-0.6380547285079956,-9.702502250671387,-0.7996633648872375,0.02129448764026165,-0.1967078298330307,-0.0388624407351017
2950077151287,-0.6045359373092651,-9.767146110534668,-0.790086567401886,0.02129448764026165,-0.1956430971622467,-0.0364668108522892
2950078388587,-0.6189011335372925,-9.765949249267578,-0.7936778664588928,0.0181003138422966,-0.1975063681602478,-0.0391286201775074
2950079625875,-0.5781997442245483,-9.84495735168457,-0.7996633648872375,0.01889885775744915,-0.1996358186006546,-0.0356682650744915
2950080863187,-0.5710170865058899,-9.834183692932129,-0.8104372620582581,0.0215606689453125,-0.2057579904794693,-0.0327402763068676
2950082100487,-0.545877993106842,-9.798270225524902,-0.7817068696022034,0.02422248013317585,-0.209750697016716,-0.0292799212038517
2950083337787,-0.5183447003364563,-9.853337287902832,-0.7410054206848145,0.02848137728869915,-0.2068227082490921,-0.02848137728869915
2950084575100,-0.49559974670410156,-9.880870819091797,-0.7026982307434082,0.0295461006462574,-0.2054918110370636,-0.02874755859375
2950085812412,-0.5291185975074768,-9.825803756713867,-0.7218518257141113,0.0263519287109375,-0.2068227082490921,-0.02555338479578495
2950087049712,-0.44771572947502136,-9.817423820495605,-0.6643909811973572,0.02502102218568325,-0.2108154296875,-0.0292799212038517
2950088287012,-0.4668693244457245,-9.838972091674805,-0.6584054827690125,0.02315775491297245,-0.2100168764591217,-0.0258195661008358
2950089524312,-0.5123591423034668,-9.84495735168457,-0.6440402865409851,0.02422248013317585,-0.2118801474571228,-0.0276828333735466
2950090761625,-0.4668693244457245,-9.818621635437012,-0.6057330369949341,0.02661811001598835,-0.2153405100107193,-0.02661811001598835
2950091998937,-0.46088382601737976,-9.787496566772461,-0.629675030708313,0.023956298828125,-0.2161390483379364,-0.0268842913210392
2950093236225,-0.47165775299072266,-9.794679641723633,-0.5829881429672241,0.0252872034907341,-0.2180023193359375,-0.0244886614382267
2950094473537,-0.456095427274704,-9.780314445495605,-0.606930136680603,0.02848137728869915,-0.2217288464307785,-0.01836649514734745
2950095710850,-0.4692635238170624,-9.759963035583496,-0.6021417379379272,0.02741665206849575,-0.2233259379863739,-0.01783413253724575
2950096948150,-0.47405195236206055,-9.785102844238281,-0.608127236366272,0.0220930315554142,-0.2243906557559967,-0.01463996060192585
2950098185450,-0.5231330990791321,-9.749189376831055,-0.6033388376235962,0.02315775491297245,-0.2246568500995636,-0.0157046839594841
2950099422762,-0.5267243981361389,-9.747992515563965,-0.6476315855979919,0.02315775491297245,-0.2291819155216217,-0.01996358297765255
2950100660075,-0.50876784324646,-9.709685325622559,-0.6200982332229614,0.02555338479578495,-0.2334408164024353,-0.01463996060192585
2950101897387,-0.4776432514190674,-9.704896926879883,-0.6751648783683777,0.0282151959836483,-0.2278510183095932,-0.014373779296875
2950103134675,-0.47644615173339844,-9.708487510681152,-0.669179379940033,0.0247548408806324,-0.2345055490732193,-0.0204959437251091
2950104371975,-0.5518634915351868,-9.703699111938477,-0.6344634294509888,0.0271504707634449,-0.2342393696308136,-0.01597086526453495
2950105609275,-0.5410895943641663,-9.720458984375,-0.6703764796257019,0.02848137728869915,-0.2358364462852478,-0.010114881210029125
2950106846575,-0.4908113479614258,-9.703699111938477,-0.6428431868553162,0.0314093679189682,-0.2408938854932785,-0.01357523538172245
2950108083887,-0.48722004890441895,-9.66539192199707,-0.6560112833976746,0.0351359061896801,-0.2435556948184967,-0.00958251953125
2950109321175,-0.5003881454467773,-9.658209800720215,-0.6476315855979919,0.0375315360724926,-0.2454189658164978,-0.008517795242369175
2950110558500,-0.48482584953308105,-9.62828254699707,-0.6847416758537292,0.038330078125,-0.2496778666973114,-0.00984870083630085
2950111795800,-0.48961424827575684,-9.654618263244629,-0.6248866319656372,0.0364668108522892,-0.2507425844669342,-0.0039927163161337376
2950113033125,-0.49559974670410156,-9.660603523254395,-0.6392518877983093,0.038063894957304,-0.2504764199256897,-0.005855984054505825
2950114270412,-0.48961424827575684,-9.677363395690918,-0.645237386226654,0.0412580706179142,-0.2523396909236908,-0.008783976547420025
2950115507700,-0.4908113479614258,-9.645041465759277,-0.628477931022644,0.0460493303835392,-0.2531382143497467,-0.0053236219100654125
2950116745037,-0.4800374507904053,-9.692925453186035,-0.5973533391952515,0.0473802350461483,-0.2555338442325592,-0.006122165359556675
2950117982337,-0.48722004890441895,-9.68574333190918,-0.6344634294509888,0.0495096817612648,-0.2576633095741272,-0.0037265352439135313
2950119219637,-0.52552729845047,-9.666589736938477,-0.6380547285079956,0.0521714948117733,-0.2624545693397522,-0.008783976547420025
2950120456937,-0.4692635238170624,-9.712079048156738,-0.6536170840263367,0.0550994873046875,-0.2712385356426239,-0.004791259765625
2950121694250,-0.47644615173339844,-9.743204116821289,-0.6931213736534119,0.0558980293571949,-0.2672458291053772,-0.005057440605014563
2950122931562,-0.4465186297893524,-9.781511306762695,-0.7026982307434082,0.0508405901491642,-0.2669796347618103,-0.004791259765625
2950124168862,-0.40462008118629456,-9.763554573059082,-0.6703764796257019,0.0574951171875,-0.2675119936466217,0.0013309054775163531
2950125406150,-0.45489832758903503,-9.759963035583496,-0.6596025824546814,0.0585598424077034,-0.2693752646446228,0.0021294488105922937
2950126643462,-0.45250412821769714,-9.77552604675293,-0.6919242739677429,0.0505744069814682,-0.2717708945274353,0.0015970865497365594
2950127880750,-0.4692635238170624,-9.806650161743164,-0.6177040338516235,0.0511067695915699,-0.2723032534122467,-0.0053236219100654125
2950129118075,-0.4034229815006256,-9.7791166305542,-0.5985504388809204,0.0649481862783432,-0.2850799560546875,-0.0002661811013240367
2950130355362,-0.4345476031303406,-9.78869342803955,-0.6236895322799683,0.062020193785429,-0.2834828794002533,0.0015970865497365594
2950131592675,-0.40940847992897034,-9.793481826782227,-0.5997475385665894,0.0556318499147892,-0.2810872495174408,0.0031941730994731188
2950132829962,-0.3998316824436188,-9.793481826782227,-0.5961562395095825,0.052703857421875,-0.285346120595932,0.0029279920272529125
2950134067287,-0.39863458275794983,-9.816226959228516,-0.5973533391952515,0.0574951171875,-0.2850799560546875,0.0013309054775163531
2950135304575,-0.3842693865299225,-9.822212219238281,-0.6057330369949341,0.0566965714097023,-0.2920006513595581,0.0
2950136541887,-0.39624038338661194,-9.78869342803955,-0.6153098344802856,0.0492435023188591,-0.29705810546875,0.0013309054775163531
2950137779212,-0.3866635859012604,-9.794679641723633,-0.6332663297653198,0.0535023994743824,-0.2954610288143158,0.0013309054775163531
2950139016487,-0.3663128614425659,-9.813833236694336,-0.5997475385665894,0.0505744069814682,-0.294928640127182,-0.0002661811013240367
2950140253812,-0.3579331636428833,-9.832986831665039,-0.606930136680603,0.0497758649289608,-0.2973242700099945,-0.0026618109550327063
2950141491112,-0.35673606395721436,-9.81263542175293,-0.6224924325942993,0.0529700368642807,-0.3026479184627533,-0.0039927163161337376
2950142728412,-0.36750996112823486,-9.836577415466309,-0.586579442024231,0.0452507846057415,-0.3050435483455658,-0.0015970865497365594
2950143965737,-0.3711012601852417,-9.821015357971191,-0.5506663918495178,0.0487111397087574,-0.3111656904220581,-0.0042588976211845875
2950145203025,-0.40462008118629456,-9.838972091674805,-0.6165069341659546,0.0513729527592659,-0.3132951557636261,-0.0039927163161337376
2950146440337,-0.38905778527259827,-9.807847023010254,-0.6045359373092651,0.04791259765625,-0.3159569501876831,-0.003460354171693325
2950147677650,-0.43933600187301636,-9.817423820495605,-0.628477931022644,0.0447184219956398,-0.3175540566444397,-0.0053236219100654125
2950148914950,-0.45489832758903503,-9.830592155456543,-0.6153098344802856,0.042855154722929,-0.3180864155292511,-0.00452507846057415
2950150152237,-0.43335050344467163,-9.782708168029785,-0.6584054827690125,0.0396609827876091,-0.3212805688381195,-0.0029279920272529125
2950151389550,-0.43095630407333374,-9.761160850524902,-0.6105214357376099,0.0404595248401165,-0.3244747519493103,-0.0066545275039970875
2950152626875,-0.4405331015586853,-9.786299705505371,-0.6847416758537292,0.0388624407351017,-0.3268703818321228,-0.007453070487827063
2950153864162,-0.43933600187301636,-9.781511306762695,-0.645237386226654,0.0420566126704216,-0.3271365761756897,-0.003460354171693325
2950155101487,-0.48482584953308105,-9.749189376831055,-0.6009446382522583,0.0417904332280159,-0.3279350996017456,-0.0015970865497365594
2950156338775,-0.4836287498474121,-9.744400978088379,-0.5913678407669067,0.0425889752805233,-0.3289998471736908,-0.0071868896484375
2950157576087,-0.43335050344467163,-9.746795654296875,-0.6200982332229614,0.0391286201775074,-0.3319278359413147,-0.006122165359556675
2950158813387,-0.4429273307323456,-9.756372451782227,-0.6248866319656372,0.0396609827876091,-0.3351219892501831,-0.0071868896484375
2950160050687,-0.46567222476005554,-9.731232643127441,-0.6404489874839783,0.0401933453977108,-0.3337910771369934,-0.0042588976211845875
2950161287987,-0.45848962664604187,-9.744400978088379,-0.6093243360519409,0.0385962575674057,-0.3345896303653717,-0.008517795242369175
2950162525300,-0.44532153010368347,-9.743204116821289,-0.6200982332229614,0.0362006276845932,-0.3372514545917511,-0.0138414166867733
2950163762600,-0.4704606235027313,-9.77672290802002,-0.6835445761680603,0.0354020856320858,-0.3372514545917511,-0.01224433071911335
2950164999912,-0.4465186297893524,-9.799468040466309,-0.6153098344802856,0.0351359061896801,-0.3447045087814331,-0.008517795242369175
2950166237212,-0.43095630407333374,-9.819818496704102,-0.5949591398239136,0.0322079136967659,-0.3455030620098114,-0.008251613937318325
2950167474525,-0.4572925269603729,-9.767146110534668,-0.6596025824546814,0.0316755510866642,-0.3465677797794342,-0.00958251953125
2950168711825,-0.4513070285320282,-9.801861763000488,-0.6272808313369751,0.02901373989880085,-0.3471001386642456,-0.013309055007994175
2950169949125,-0.5351040959358215,-9.81143856048584,-0.628477931022644,0.0276828333735466,-0.3492296040058136,-0.0119781494140625
2950171186450,-0.48602294921875,-9.791088104248047,-0.5925649404525757,0.02874755859375,-0.3492296040058136,-0.010114881210029125
2950172423737,-0.52552729845047,-9.888052940368652,-0.524330198764801,0.02661811001598835,-0.3518913984298706,-0.014906140975654125
2950173661050,-0.4800374507904053,-9.852140426635742,-0.5722141861915588,0.02315775491297245,-0.3566826581954956,-0.015438503585755825
2950174898350,-0.4800374507904053,-9.849745750427246,-0.5770025849342346,0.0223592109978199,-0.3609415590763092,-0.0167694091796875
2950176135650,-0.5051765441894531,-9.813833236694336,-0.6368576288223267,0.0210283063352108,-0.3590782880783081,-0.01783413253724575
2950177372962,-0.5219359993934631,-9.81263542175293,-0.5985504388809204,0.015438503585755825,-0.3622724711894989,-0.015172322280704975
2950178610262,-0.4944026470184326,-9.838972091674805,-0.5758054852485657,0.01996358297765255,-0.3638695478439331,-0.01703559048473835
2950179847562,-0.46567222476005554,-9.880870819091797,-0.6117185354232788,0.02315775491297245,-0.3654666543006897,-0.013309055007994175
2950181084875,-0.5159504413604736,-9.891644477844238,-0.606930136680603,0.0186326764523983,-0.3662651777267456,-0.01650322787463665
2950182322175,-0.5339069962501526,-9.856928825378418,-0.6153098344802856,0.01597086526453495,-0.368927001953125,-0.0204959437251091
2950183559487,-0.5530605912208557,-9.894038200378418,-0.585382342338562,0.01171196810901165,-0.3705240786075592,-0.0186326764523983
2950184796787,-0.5770025849342346,-9.9371337890625,-0.6057330369949341,0.010114881210029125,-0.3686608076095581,-0.01889885775744915
2950186034075,-0.6165069341659546,-9.928754806518555,-0.6141127347946167,0.00931633822619915,-0.3729197084903717,-0.01836649514734745
2950187271400,-0.606930136680603,-9.955090522766113,-0.6141127347946167,0.0042588976211845875,-0.3699917197227478,-0.01650322787463665
2950188508687,-0.667982280254364,-9.93474006652832,-0.585382342338562,0.0015970865497365594,-0.3707902729511261,-0.015172322280704975
2950189746012,-0.6763619780540466,-10.001777648925781,-0.6332663297653198,0.0018632676219567657,-0.3683946430683136,-0.01410759799182415
2950190983312,-0.628477931022644,-10.001777648925781,-0.6177040338516235,-0.0013309054775163531,-0.3713226318359375,-0.01943122036755085
2950192220600,-0.6775590777397156,-10.008960723876953,-0.6105214357376099,-0.0018632676219567657,-0.3793080449104309,-0.0181003138422966
2950193457925,-0.7038953304290771,-10.02452278137207,-0.6177040338516235,-0.0071868896484375,-0.3782433271408081,-0.01597086526453495
2950194695225,-0.7314286231994629,-10.011354446411133,-0.6129156351089478,-0.0071868896484375,-0.3769124150276184,-0.01836649514734745
2950195932537,-0.7038953304290771,-10.032902717590332,-0.5781997442245483,-0.007985432632267475,-0.3753153383731842,-0.014906140975654125
2950197169837,-0.6763619780540466,-10.056844711303711,-0.6105214357376099,-0.00931633822619915,-0.3758476972579956,-0.01357523538172245
2950198407137,-0.646434485912323,-10.011354446411133,-0.6033388376235962,-0.01224433071911335,-0.3766462504863739,-0.00931633822619915
2950199644437,-0.667982280254364,-10.042479515075684,-0.6548141837120056,-0.01650322787463665,-0.3809051513671875,-0.0077192517928779125
2950200881737,-0.6715735793113708,-10.013749122619629,-0.6404489874839783,-0.01650322787463665,-0.3771786093711853,-0.01171196810901165
2950202119062,-0.6548141837120056,-10.019734382629395,-0.629675030708313,-0.0196974016726017,-0.3790418803691864,-0.013042873702943325
2950203356362,-0.706289529800415,-10.004172325134277,-0.5781997442245483,-0.0247548408806324,-0.3747829794883728,-0.00452507846057415
2950204593675,-0.6919242739677429,-10.029311180114746,-0.5770025849342346,-0.0276828333735466,-0.3822360634803772,-0.008517795242369175
2950205830975,-0.6536170840263367,-9.996989250183105,-0.5817910432815552,-0.03087700717151165,-0.3795742392539978,-0.0002661811013240367
2950207068275,-0.7015011310577393,-9.973047256469727,-0.608127236366272,-0.0316755510866642,-0.381171315908432,-0.0007985432748682797
2950208305587,-0.7003040313720703,-10.018537521362305,-0.5901707410812378,-0.0356682650744915,-0.3817036747932434,-0.0010647244052961469
2950209542887,-0.7230489253997803,-9.95748519897461,-0.5817910432815552,-0.038063894957304,-0.3774448037147522,0.0007985432748682797
2950210780187,-0.7026982307434082,-9.961075782775879,-0.6093243360519409,-0.0401933453977108,-0.3803727924823761,0.005057440605014563
2950212017487,-0.6643909811973572,-9.962273597717285,-0.6416460871696472,-0.038063894957304,-0.3822360634803772,0.005855984054505825
2950213254800,-0.6991068720817566,-9.911994934082031,-0.6165069341659546,-0.0409918874502182,-0.378509521484375,0.0031941730994731188
2950214492100,-0.7050924301147461,-9.941922187805176,-0.6105214357376099,-0.0425889752805233,-0.3782433271408081,0.00984870083630085
2950215729400,-0.707486629486084,-9.916783332824707,-0.6272808313369751,-0.0463155098259449,-0.3769124150276184,0.01410759799182415
2950216966712,-0.707486629486084,-9.910798072814941,-0.6129156351089478,-0.0473802350461483,-0.3793080449104309,0.0071868896484375
2950218204025,-0.6991068720817566,-9.86650562286377,-0.6488286852836609,-0.0481787770986557,-0.3798404335975647,0.0114457868039608
2950219441312,-0.7362170219421387,-9.86889934539795,-0.628477931022644,-0.0487111397087574,-0.3803727924823761,0.013309055007994175
2950220678637,-0.7637503743171692,-9.896432876586914,-0.5997475385665894,-0.0497758649289608,-0.3787756860256195,0.0119781494140625
2950221915925,-0.7362170219421387,-9.862914085388184,-0.6332663297653198,-0.0535023994743824,-0.3817036747932434,0.013309055007994175
2950223153237,-0.7314286231994629,-9.90122127532959,-0.6440402865409851,-0.0564303919672966,-0.3766462504863739,0.014373779296875
2950224390537,-0.751779317855835,-9.86889934539795,-0.6224924325942993,-0.0577612966299057,-0.3777109682559967,0.01357523538172245
2950225627850,-0.7481880187988281,-9.873687744140625,-0.6536170840263367,-0.0588260218501091,-0.3817036747932434,0.013042873702943325
2950226865150,-0.7170634269714355,-9.862914085388184,-0.6631938815116882,-0.0532362200319767,-0.3782433271408081,0.01463996060192585
2950228102450,-0.7457938194274902,-9.849745750427246,-0.6177040338516235,-0.0593583844602108,-0.3734520673751831,0.0196974016726017
2950229339775,-0.7625532746315002,-9.86889934539795,-0.5913678407669067,-0.0596245639026165,-0.3747829794883728,0.01703559048473835
2950230577075,-0.7757213711738586,-9.874884605407715,-0.6344634294509888,-0.0585598424077034,-0.3771786093711853,0.01463996060192585
2950231814375,-0.7314286231994629,-9.87967300415039,-0.586579442024231,-0.0646820068359375,-0.3742506206035614,0.0157046839594841
2950233051662,-0.7541735172271729,-9.914389610290527,-0.6272808313369751,-0.0676099956035614,-0.3731859028339386,0.0210283063352108
2950234288987,-0.7445967197418213,-9.914389610290527,-0.545877993106842,-0.0676099956035614,-0.3806389570236206,0.01996358297765255
2950235526287,-0.7924807667732239,-9.9000244140625,-0.5817910432815552,-0.0633511021733284,-0.3758476972579956,0.0186326764523983
2950236763587,-0.788889467716217,-9.895236015319824,-0.585382342338562,-0.0684085413813591,-0.3742506206035614,0.0215606689453125
2950238000875,-0.790086567401886,-9.9000244140625,-0.6093243360519409,-0.0721350759267807,-0.3745167851448059,0.0210283063352108
2950239238187,-0.8080430626869202,-9.929951667785645,-0.6224924325942993,-0.0737321600317955,-0.3721211552619934,0.0191650390625
2950240475512,-0.851138710975647,-9.923966407775879,-0.6200982332229614,-0.0700056254863739,-0.3755815327167511,0.02315775491297245
2950241712812,-0.7769184708595276,-9.888052940368652,-0.606930136680603,-0.0694732666015625,-0.37371826171875,0.02608574740588665
2950242950112,-0.7852981686592102,-9.909601211547852,-0.6224924325942993,-0.0750630721449852,-0.3691931664943695,0.02422248013317585
2950244187425,-0.8391677141189575,-9.950302124023438,-0.5829881429672241,-0.0739983469247818,-0.3742506206035614,0.0263519287109375
2950245424737,-0.7625532746315002,-9.9000244140625,-0.6189011335372925,-0.0739983469247818,-0.3697255253791809,0.0306108258664608
2950246662012,-0.7793126702308655,-9.931148529052734,-0.5973533391952515,-0.0737321600317955,-0.3702579140663147,0.0356682650744915
2950247899337,-0.7637503743171692,-9.916783332824707,-0.628477931022644,-0.0833146795630455,-0.3707902729511261,0.0359344482421875
2950249136637,-0.7841010689735413,-9.894038200378418,-0.5793968439102173,-0.0795881450176239,-0.3649342656135559,0.0343373604118824
2950250373950,-0.8224083185195923,-9.907206535339355,-0.6212953329086304,-0.0793219655752182,-0.3694593608379364,0.0356682650744915
2950251611250,-0.8212112188339233,-9.877279281616211,-0.5889736413955688,-0.0825161412358284,-0.366797536611557,0.0324740931391716
2950252848575,-0.8236054182052612,-9.831789016723633,-0.6189011335372925,-0.0779910609126091,-0.3612077534198761,0.0364668108522892
2950254085875,-0.8188169598579407,-9.822212219238281,-0.5913678407669067,-0.0790557861328125,-0.3659990131855011,0.0415242500603199
2950255323175,-0.8044517636299133,-9.805453300476074,-0.6655880808830261,-0.0782572403550148,-0.3630710244178772,0.0415242500603199
2950256560475,-0.8248025178909302,-9.835380554199219,-0.5913678407669067,-0.081451416015625,-0.3630710244178772,0.0364668108522892
2950257797787,-0.8463503122329712,-9.792284965515137,-0.5925649404525757,-0.0846455842256546,-0.3654666543006897,0.04791259765625
2950259035075,-0.8104372620582581,-9.806650161743164,-0.6428431868553162,-0.0851779505610466,-0.3617401123046875,0.0511067695915699
2950260272387,-0.7829039692878723,-9.771934509277344,-0.6404489874839783,-0.085710309445858,-0.3601430058479309,0.043121337890625
2950261509687,-0.8020575642585754,-9.769539833068848,-0.6021417379379272,-0.0883721262216568,-0.3612077534198761,0.0449846051633358
2950262747000,-0.788889467716217,-9.797073364257812,-0.6177040338516235,-0.0883721262216568,-0.3548193871974945,0.0487111397087574
2950263984300,-0.8391677141189575,-9.762357711791992,-0.5997475385665894,-0.0835808664560318,-0.3569488525390625,0.0463155098259449
2950265221625,-0.8080430626869202,-9.728838920593262,-0.6703764796257019,-0.0846455842256546,-0.3556179404258728,0.0503082275390625
2950266458925,-0.811634361743927,-9.696516990661621,-0.6212953329086304,-0.0878397598862648,-0.3558841347694397,0.0471140518784523
2950267696225,-0.8702923059463501,-9.718064308166504,-0.6165069341659546,-0.0782572403550148,-0.3585459291934967,0.0492435023188591
2950268933525,-0.851138710975647,-9.743204116821289,-0.586579442024231,-0.0793219655752182,-0.3566826581954956,0.0495096817612648
2950270170837,-0.8164227604866028,-9.749189376831055,-0.5817910432815552,-0.0830485001206398,-0.3566826581954956,0.0513729527592659
2950271408137,-0.8583213090896606,-9.740809440612793,-0.5841852426528931,-0.0806528702378273,-0.3550855815410614,0.0521714948117733
2950272645437,-0.8463503122329712,-9.731232643127441,-0.6584054827690125,-0.0817175954580307,-0.3566826581954956,0.0465816929936409
2950273882750,-0.812831461429596,-9.732430458068848,-0.6667851805686951,-0.0787896066904068,-0.3550855815410614,0.0519053116440773
2950275120050,-0.8319851160049438,-9.728838920593262,-0.6655880808830261,-0.07666015625,-0.3556179404258728,0.0535023994743824
2950276357362,-0.8415619134902954,-9.714473724365234,-0.6392518877983093,-0.0811852365732193,-0.3534885048866272,0.0566965714097023
2950277594662,-0.8631097078323364,-9.726444244384766,-0.6536170840263367,-0.0753292515873909,-0.3521575927734375,0.0569627545773983
2950278831975,-0.8810662031173706,-9.75158405303955,-0.6200982332229614,-0.0774587020277977,-0.3478986918926239,0.0513729527592659
2950280069262,-0.8810662031173706,-9.745597839355469,-0.6392518877983093,-0.0801205113530159,-0.3521575927734375,0.0519053116440773
2950281306575,-0.8906430602073669,-9.774328231811523,-0.6512228846549988,-0.0787896066904068,-0.349761962890625,0.0540347620844841
2950282543887,-0.8846575617790222,-9.767146110534668,-0.6596025824546814,-0.0801205113530159,-0.3441721498966217,0.057228934019804
2950283781175,-0.9205705523490906,-9.763554573059082,-0.6260837316513062,-0.0798543319106102,-0.3457692265510559,0.0564303919672966
2950285018487,-0.93254154920578,-9.77672290802002,-0.6380547285079956,-0.0742645263671875,-0.3425750732421875,0.0550994873046875
2950286255800,-0.9050082564353943,-9.763554573059082,-0.6931213736534119,-0.0793219655752182,-0.3433735966682434,0.0561642125248909
2950287493112,-0.9229647517204285,-9.813833236694336,-0.6596025824546814,-0.0801205113530159,-0.338049978017807,0.0569627545773983
2950288730412,-0.912190854549408,-9.801861763000488,-0.6931213736534119,-0.0819837749004364,-0.3396470844745636,0.0593583844602108
2950289967712,-0.9193734526634216,-9.835380554199219,-0.669179379940033,-0.0819837749004364,-0.3372514545917511,0.0521714948117733
2950291205025,-0.950498104095459,-9.852140426635742,-0.6919242739677429,-0.0873074010014534,-0.3316616415977478,0.0505744069814682
2950292442325,-0.9624691009521484,-9.86650562286377,-0.6500257849693298,-0.0790557861328125,-0.3327263593673706,0.057228934019804
2950293679625,-0.993593692779541,-9.871294021606445,-0.6919242739677429,-0.0763939768075943,-0.3359205424785614,0.0564303919672966
2950294916925,-0.9552865028381348,-9.865307807922363,-0.669179379940033,-0.0771925151348114,-0.3271365761756897,0.0532362200319767
2950296154237,-0.9313444495201111,-9.871294021606445,-0.6787561774253845,-0.0787896066904068,-0.3279350996017456,0.0529700368642807
2950297391550,-0.9074024558067322,-9.856928825378418,-0.690727174282074,-0.0793219655752182,-0.3292660117149353,0.0550994873046875
2950298628850,-0.9145850539207458,-9.876082420349121,-0.6751648783683777,-0.0822499617934227,-0.3215467631816864,0.0500420443713665
2950299866162,-0.9373299479484558,-9.910798072814941,-0.6703764796257019,-0.0830485001206398,-0.3207482099533081,0.0511067695915699
2950301103462,-0.9373299479484558,-9.926360130310059,-0.6524199843406677,-0.080919049680233,-0.3183525800704956,0.0521714948117733
2950302340762,-0.9373299479484558,-9.921571731567383,-0.6727706789970398,-0.081451416015625,-0.3202158510684967,0.052437674254179
2950303578062,-0.9026140570640564,-9.90122127532959,-0.706289529800415,-0.0790557861328125,-0.3252733051776886,0.0511067695915699
2950304815362,-0.8858546614646912,-9.859322547912598,-0.6548141837120056,-0.080919049680233,-0.3191511332988739,0.0505744069814682
2950306052662,-0.8667010068893433,-9.832986831665039,-0.6703764796257019,-0.0822499617934227,-0.3172878623008728,0.047646414488554
2950307289987,-0.888248860836029,-9.850942611694336,-0.6739677786827087,-0.0870412141084671,-0.3148922324180603,0.0495096817612648
2950308527300,-0.9014169573783875,-9.830592155456543,-0.6368576288223267,-0.08624267578125,-0.3135613203048706,0.0513729527592659
2950309764587,-0.9301473498344421,-9.834183692932129,-0.6404489874839783,-0.0833146795630455,-0.3167555034160614,0.0455169677734375
2950311001887,-0.8774749040603638,-9.850942611694336,-0.7158663272857666,-0.0827823206782341,-0.3124966025352478,0.0425889752805233
2950312239212,-0.9289502501487732,-9.853337287902832,-0.7110779285430908,-0.0851779505610466,-0.3082377016544342,0.0471140518784523
2950313476500,-0.9385270476341248,-9.84495735168457,-0.6524199843406677,-0.0830485001206398,-0.3111656904220581,0.0449846051633358
2950314713812,-0.9145850539207458,-9.798270225524902,-0.7015011310577393,-0.0811852365732193,-0.3119642436504364,0.0460493303835392
2950315951137,-0.9576807022094727,-9.794679641723633,-0.6847416758537292,-0.0841132253408432,-0.3079715371131897,0.0447184219956398
2950317188425,-0.9349357485771179,-9.787496566772461,-0.7050924301147461,-0.0870412141084671,-0.3023817241191864,0.0433875173330307
2950318425725,-0.9540894031524658,-9.825803756713867,-0.706289529800415,-0.0865088552236557,-0.3002522885799408,0.0423227921128273
2950319663050,-0.9576807022094727,-9.847352027893066,-0.6871358752250671,-0.0870412141084671,-0.3015831708908081,0.0404595248401165
2950320900337,-0.9397241473197937,-9.793481826782227,-0.7422025203704834,-0.0899692103266716,-0.2933315634727478,0.0364668108522892
2950322137650,-0.970848798751831,-9.797073364257812,-0.7098808288574219,-0.0851779505610466,-0.3026479184627533,0.038063894957304
2950323374950,-0.9193734526634216,-9.813833236694336,-0.7003040313720703,-0.0827823206782341,-0.3029140830039978,0.0396609827876091
2950324612262,-0.9385270476341248,-9.832986831665039,-0.689530074596405,-0.0838470458984375,-0.2951948344707489,0.0391286201775074
2950325849562,-0.933738648891449,-9.804256439208984,-0.7158663272857666,-0.085710309445858,-0.2962595522403717,0.0377977155148983
2950327086862,-0.9624691009521484,-9.840168952941895,-0.7493851184844971,-0.0854441300034523,-0.2914682924747467,0.033538818359375
2950328324162,-0.9696516990661621,-9.821015357971191,-0.7146692276000977,-0.0859764963388443,-0.2864108681678772,0.0319417305290699
2950329561475,-0.9445126056671143,-9.78869342803955,-0.7122750282287598,-0.08624267578125,-0.2880079448223114,0.0354020856320858
2950330798762,-0.933738648891449,-9.797073364257812,-0.6476315855979919,-0.0833146795630455,-0.2829504907131195,0.0314093679189682
2950332036087,-0.9744400978088379,-9.789891242980957,-0.6799532771110535,-0.0873074010014534,-0.2885403037071228,0.03087700717151165
2950333273387,-0.910993754863739,-9.780314445495605,-0.6655880808830261,-0.0907677561044693,-0.2872093915939331,0.03034464456140995
2950334510700,-0.9373299479484558,-9.77672290802002,-0.6607996821403503,-0.0822499617934227,-0.2874755859375,0.0354020856320858
2950335748025,-0.9540894031524658,-9.774328231811523,-0.6787561774253845,-0.0843794047832489,-0.2864108681678772,0.02848137728869915
2950336985300,-0.9612720012664795,-9.785102844238281,-0.7015011310577393,-0.0835808664560318,-0.2837490439414978,0.0258195661008358
2950338222625,-0.9445126056671143,-9.746795654296875,-0.7266402244567871,-0.0875735804438591,-0.2818857729434967,0.02555338479578495
2950339459937,-0.9648633003234863,-9.715670585632324,-0.7098808288574219,-0.0873074010014534,-0.2821519672870636,0.0247548408806324
2950340697212,-0.9014169573783875,-9.758766174316406,-0.7182605266571045,-0.0849117711186409,-0.2821519672870636,0.02555338479578495
2950341934512,-0.9696516990661621,-9.7791166305542,-0.7577648162841797,-0.0875735804438591,-0.2800225019454956,0.02422248013317585
2950343171825,-0.9217676520347595,-9.745597839355469,-0.7338228225708008,-0.0825161412358284,-0.2773607075214386,0.0223592109978199
2950344409137,-0.950498104095459,-9.787496566772461,-0.7661445736885071,-0.0833146795630455,-0.2754974365234375,0.02129448764026165
2950345646450,-0.9516952037811279,-9.780314445495605,-0.7493851184844971,-0.0846455842256546,-0.2749650776386261,0.01836649514734745
2950346883775,-0.9876081943511963,-9.763554573059082,-0.768538773059845,-0.0825161412358284,-0.2715047299861908,0.01597086526453495
2950348121050,-0.9983820915222168,-9.801861763000488,-0.7122750282287598,-0.0790557861328125,-0.2746988832950592,0.01836649514734745
2950349358350,-0.9540894031524658,-9.793481826782227,-0.7266402244567871,-0.0817175954580307,-0.2739003598690033,0.02129448764026165
2950350595662,-0.933738648891449,-9.728838920593262,-0.727837324142456,-0.0843794047832489,-0.2701738178730011,0.0204959437251091
2950351832962,-0.9540894031524658,-9.75397777557373,-0.7433996200561523,-0.0835808664560318,-0.2675119936466217,0.015172322280704975
2950353070275,-0.9409212470054626,-9.77791976928711,-0.7972691655158997,-0.0838470458984375,-0.2645840048789978,0.0119781494140625
2950354307587,-0.9481039047241211,-9.774328231811523,-0.7398083209991455,-0.080919049680233,-0.2672458291053772,0.01171196810901165
2950355544900,-0.9301473498344421,-9.763554573059082,-0.751779317855835,-0.0838470458984375,-0.2629869282245636,0.0114457868039608
2950356782175,-0.9409212470054626,-9.747992515563965,-0.7254431247711182,-0.0838470458984375,-0.261389821767807,0.00931633822619915
2950358019487,-0.9528923034667969,-9.764751434326172,-0.7553706169128418,-0.0846455842256546,-0.2611236572265625,0.008783976547420025
2950359256800,-0.9349357485771179,-9.805453300476074,-0.7769184708595276,-0.0870412141084671,-0.2640516459941864,0.008783976547420025
2950360494112,-0.9648633003234863,-9.786299705505371,-0.7709329724311829,-0.0846455842256546,-0.2611236572265625,0.0167694091796875
2950361731425,-0.9457097053527832,-9.799468040466309,-0.7422025203704834,-0.085710309445858,-0.2568647563457489,0.015438503585755825
2950362968712,-0.9756371974945068,-9.797073364257812,-0.7422025203704834,-0.0827823206782341,-0.2544691264629364,0.0090501569211483
2950364206025,-0.9983820915222168,-9.835380554199219,-0.7422025203704834,-0.0822499617934227,-0.2611236572265625,0.01171196810901165
2950365443350,-0.9301473498344421,-9.840168952941895,-0.729034423828125,-0.0811852365732193,-0.2608574628829956,0.013042873702943325
2950366680637,-0.9445126056671143,-9.805453300476074,-0.7577648162841797,-0.0851779505610466,-0.2531382143497467,0.0066545275039970875
2950367917937,-0.9648633003234863,-9.805453300476074,-0.7541735172271729,-0.0897030308842659,-0.2507425844669342,0.010381062515079975
2950369155237,-0.970848798751831,-9.860519409179688,-0.7326257228851318,-0.0841132253408432,-0.2547353208065033,0.0138414166867733
2950370392550,-0.9433155059814453,-9.816226959228516,-0.7852981686592102,-0.0865088552236557,-0.253936767578125,0.005855984054505825
2950371629862,-0.9229647517204285,-9.848548889160156,-0.7876923680305481,-0.0907677561044693,-0.2504764199256897,0.006122165359556675
2950372867162,-0.889445960521698,-9.858125686645508,-0.7493851184844971,-0.081451416015625,-0.2550014853477478,0.012510511092841625
2950374104462,-0.9385270476341248,-9.824606895446777,-0.7481880187988281,-0.0854441300034523,-0.2534044086933136,0.0066545275039970875
2950375341762,-0.9313444495201111,-9.81263542175293,-0.7481880187988281,-0.0846455842256546,-0.2456851452589035,0.015172322280704975
2950376579062,-0.9181763529777527,-9.864110946655273,-0.7386112213134766,-0.0881059393286705,-0.2475484162569046,0.013042873702943325
2950377816375,-0.912190854549408,-9.830592155456543,-0.7350199222564697,-0.0867750346660614,-0.2494116872549057,0.0138414166867733
2950379053687,-0.8738836050033569,-9.774328231811523,-0.6859387755393982,-0.0881059393286705,-0.2475484162569046,0.010647243820130825
2950380291000,-0.8738836050033569,-9.81024169921875,-0.707486629486084,-0.0819837749004364,-0.2499440461397171,0.01171196810901165
2950381528300,-0.8870517611503601,-9.770737648010254,-0.7386112213134766,-0.081451416015625,-0.2488793283700943,0.0162370465695858
2950382765625,-0.9457097053527832,-9.744400978088379,-0.7110779285430908,-0.0827823206782341,-0.2512749433517456,0.01597086526453495
2950384002900,-0.8750807046890259,-9.759963035583496,-0.727837324142456,-0.0870412141084671,-0.2558000385761261,0.01410759799182415
2950385240225,-0.8762778043746948,-9.747992515563965,-0.7565677165985107,-0.081451416015625,-0.2491455078125,0.01224433071911335
2950386477512,-0.8523358106613159,-9.716867446899414,-0.7350199222564697,-0.0859764963388443,-0.2416924387216568,0.012510511092841625
2950387714825,-0.9074024558067322,-9.71926212310791,-0.7050924301147461,-0.0870412141084671,-0.2339731752872467,0.010647243820130825
2950388952125,-0.9457097053527832,-9.734824180603027,-0.7769184708595276,-0.0822499617934227,-0.2392968088388443,0.01463996060192585
2950390189450,-0.8678981065750122,-9.674968719482422,-0.7410054206848145,-0.0833146795630455,-0.2419586181640625,0.01410759799182415
2950391426737,-0.9014169573783875,-9.710882186889648,-0.7374141216278076,-0.0835808664560318,-0.2376997172832489,0.01703559048473835
2950392664037,-0.8978256583213806,-9.694122314453125,-0.7709329724311829,-0.0819837749004364,-0.2398291677236557,0.0157046839594841
2950393901362,-0.8870517611503601,-9.709685325622559,-0.7912836670875549,-0.0782572403550148,-0.2358364462852478,0.007453070487827063
2950395138662,-0.9720458984375,-9.724050521850586,-0.7709329724311829,-0.0793219655752182,-0.2382320761680603,0.010647243820130825
2950396375962,-0.9265560507774353,-9.6989107131958,-0.8056488633155823,-0.0806528702378273,-0.2353040874004364,0.008783976547420025
2950397613262,-0.9648633003234863,-9.703699111938477,-0.7649474740028381,-0.0787896066904068,-0.2326422780752182,0.0037265352439135313
2950398850562,-0.9217676520347595,-9.683348655700684,-0.7649474740028381,-0.0790557861328125,-0.2358364462852478,0.01171196810901165
2950400087887,-0.9313444495201111,-9.68933391571045,-0.730231523513794,-0.0755954310297966,-0.2390306293964386,0.008251613937318325
2950401325175,-0.9469068050384521,-9.682151794433594,-0.7709329724311829,-0.0779910609126091,-0.2376997172832489,0.004791259765625
2950402562500,-0.9720458984375,-9.651026725769043,-0.7529764175415039,-0.0811852365732193,-0.2326422780752182,0.00692070834338665
2950403799800,-0.9600749015808105,-9.622296333312988,-0.7960720658302307,-0.0785234197974205,-0.228915736079216,0.0071868896484375
2950405037112,-0.9768342971801758,-9.621099472045898,-0.788889467716217,-0.0795881450176239,-0.2278510183095932,0.007985432632267475
2950406274425,-0.9588778018951416,-9.611522674560547,-0.7733271718025208,-0.0755954310297966,-0.228915736079216,0.010381062515079975
2950407511712,-0.9457097053527832,-9.591172218322754,-0.7661445736885071,-0.0742645263671875,-0.2273186594247818,0.005589802749454975
2950408749000,-0.9576807022094727,-9.676166534423828,-0.8044517636299133,-0.0742645263671875,-0.2315775454044342,0.00692070834338665
2950409986325,-0.9540894031524658,-9.658209800720215,-0.7541735172271729,-0.0737321600317955,-0.2307790070772171,0.00692070834338665
2950411223612,-0.9576807022094727,-9.637859344482422,-0.7817068696022034,-0.0654805526137352,-0.2302466481924057,0.010381062515079975
2950412460950,-0.9145850539207458,-9.618705749511719,-0.767341673374176,-0.0694732666015625,-0.2275848388671875,0.0119781494140625
2950413698237,-0.9241618514060974,-9.637859344482422,-0.7697358727455139,-0.0710703507065773,-0.2211964875459671,0.01117960549890995
2950414935550,-0.94930100440979,-9.66539192199707,-0.7661445736885071,-0.0673438161611557,-0.2235921174287796,0.010114881210029125
2950416172850,-0.9349357485771179,-9.673771858215332,-0.7410054206848145,-0.0652143657207489,-0.2233259379863739,0.01117960549890995
2950417410162,-0.9660604000091553,-9.671378135681152,-0.7721300721168518,-0.0705379918217659,-0.2230597585439682,0.010913425125181675
2950418647475,-0.970848798751831,-9.697713851928711,-0.8200140595436096,-0.0710703507065773,-0.2230597585439682,0.013309055007994175
2950419884787,-0.9612720012664795,-9.704896926879883,-0.788889467716217,-0.071336530148983,-0.2227935791015625,0.012776692397892475
2950421122062,-1.0043675899505615,-9.72165584564209,-0.7912836670875549,-0.0676099956035614,-0.2222612202167511,0.01783413253724575
2950422359375,-0.9648633003234863,-9.68694019317627,-0.7817068696022034,-0.0644158273935318,-0.2188008576631546,0.01996358297765255
2950423596675,-0.9744400978088379,-9.718064308166504,-0.7757213711738586,-0.0660129114985466,-0.2211964875459671,0.01357523538172245
2950424833987,-0.9624691009521484,-9.734824180603027,-0.8020575642585754,-0.0598907470703125,-0.2166714072227478,0.0114457868039608
2950426071300,-0.9469068050384521,-9.730035781860352,-0.7864952683448792,-0.0612216517329216,-0.2201317697763443,0.01783413253724575
2950427308625,-0.933738648891449,-9.750386238098145,-0.8583213090896606,-0.0633511021733284,-0.2195993959903717,0.01703559048473835
2950428545925,-0.9169792532920837,-9.746795654296875,-0.8463503122329712,-0.0633511021733284,-0.2217288464307785,0.0196974016726017
2950429783200,-0.912190854549408,-9.756372451782227,-0.8044517636299133,-0.0668114572763443,-0.2134772390127182,0.02129448764026165
2950431020525,-0.9481039047241211,-9.75278091430664,-0.8224083185195923,-0.0636172816157341,-0.2129448801279068,0.0191650390625
2950432257825,-0.9481039047241211,-9.763554573059082,-0.7912836670875549,-0.0604231096804142,-0.2142757773399353,0.01597086526453495
