timestamp_ns,accel_x,accel_y,accel_z,gyro_x,gyro_y,gyro_z
18476320828687,2.8419175148010254,-8.323442459106445,4.7189717292785645,0.003460354171693325,-0.023956298828125,0.013042873702943325
18476322065837,2.8191726207733154,-8.333019256591797,4.702212333679199,0.0042588976211845875,-0.02315775491297245,0.012510511092841625
18476323303000,2.8227639198303223,-8.334216117858887,4.67946720123291,0.0023956298828125,-0.0268842913210392,0.0077192517928779125
18476324540175,2.8670566082000732,-8.307880401611328,4.727351188659668,0.0005323622026480734,-0.02741665206849575,0.006122165359556675
18476325777337,2.8670566082000732,-8.327033996582031,4.6938323974609375,-0.0010647244052961469,-0.0215606689453125,0.0138414166867733
18476327014500,2.8443117141723633,-8.307880401611328,4.711789131164551,0.0007985432748682797,-0.0252872034907341,0.0138414166867733
18476328251662,2.8443117141723633,-8.340201377868652,4.710591793060303,0.0010647244052961469,-0.0191650390625,0.0114457868039608
18476329488825,2.8203697204589844,-8.334216117858887,4.683058738708496,0.00452507846057415,-0.02661811001598835,0.013042873702943325
18476330725987,2.82515811920166,-8.31865406036377,4.703409194946289,0.0042588976211845875,-0.02874755859375,0.007985432632267475
18476331963150,2.832340717315674,-8.341399192810059,4.701014995574951,0.0071868896484375,-0.0228915736079216,0.008251613937318325
18476333200312,2.7964274883270264,-8.336610794067383,4.727351188659668,0.0063883461989462376,-0.0234239362180233,0.010913425125181675
18476334437475,2.804807424545288,-8.343792915344238,4.717774391174316,0.0031941730994731188,-0.0300784632563591,0.01357523538172245
18476335674637,2.829946517944336,-8.31985092163086,4.720168590545654,-0.0031941730994731188,-0.0268842913210392,0.0063883461989462376
18476336911787,2.8371291160583496,-8.322245597839355,4.711789131164551,0.0002661811013240367,-0.02794901467859745,0.00931633822619915
18476338148962,2.808398723602295,-8.364143371582031,4.717774391174316,0.004791259765625,-0.02874755859375,0.013309055007994175
18476339386125,2.7509377002716064,-8.324639320373535,4.722562789916992,0.0039927163161337376,-0.0252872034907341,0.0138414166867733
18476340623300,2.7976248264312744,-8.365341186523438,4.685452938079834,0.0007985432748682797,-0.02076212503015995,0.0167694091796875
18476341860462,2.786850690841675,-8.343792915344238,4.692635536193848,-0.0007985432748682797,-0.023956298828125,0.01597086526453495
18476343097612,2.7964274883270264,-8.370129585266113,4.734533786773682,0.0042588976211845875,-0.02555338479578495,0.01410759799182415
18476344334775,2.8143842220306396,-8.316259384155273,4.732139587402344,0.0039927163161337376,-0.02981228195130825,0.01171196810901165
18476345571912,2.8131871223449707,-8.339004516601562,4.707000732421875,0.0023956298828125,-0.02608574740588665,0.0138414166867733
18476346809112,2.8179755210876465,-8.339004516601562,4.751293182373047,0.0018632676219567657,-0.0258195661008358,0.01463996060192585
18476348046287,2.7952303886413574,-8.368931770324707,4.704606533050537,-0.0002661811013240367,-0.02741665206849575,0.01410759799182415
18476349283437,2.7760767936706543,-8.376114845275879,4.714183330535889,0.0015970865497365594,-0.02741665206849575,0.0138414166867733
18476350520600,2.762908697128296,-8.367734909057617,4.716577529907227,0.0,-0.02661811001598835,0.01889885775744915
18476351757762,2.8335378170013428,-8.349778175354004,4.729745388031006,0.0026618109550327063,-0.0244886614382267,0.0157046839594841
18476352994925,2.7916390895843506,-8.361749649047852,4.712985992431641,-0.0007985432748682797,-0.02315775491297245,0.0114457868039608
18476354232112,2.756923198699951,-8.344989776611328,4.6950297355651855,0.0015970865497365594,-0.0252872034907341,0.01650322787463665
18476355469237,2.7664999961853027,-8.376114845275879,4.680664539337158,-0.0013309054775163531,-0.0252872034907341,0.0173017717897892
18476356706412,2.756923198699951,-8.371326446533203,4.7153801918029785,-0.0007985432748682797,-0.02794901467859745,0.0181003138422966
18476357943550,2.715024709701538,-8.340201377868652,4.716577529907227,-0.0018632676219567657,-0.02661811001598835,0.01597086526453495
18476359180750,2.760514497756958,-8.38449478149414,4.707000732421875,0.0018632676219567657,-0.02741665206849575,0.0157046839594841
18476360417887,2.78086519241333,-8.349778175354004,4.6914381980896,0.0015970865497365594,-0.02794901467859745,0.012776692397892475
18476361655062,2.7485435009002686,-8.374917984008789,4.734533786773682,-0.0007985432748682797,-0.0247548408806324,0.0157046839594841
18476362892200,2.7305870056152344,-8.391676902770996,4.707000732421875,-0.00452507846057415,-0.01756795309484005,0.01117960549890995
18476364129387,2.7102363109588623,-8.366538047790527,4.67827033996582,-0.0018632676219567657,-0.01703559048473835,0.007985432632267475
18476365366550,2.7030537128448486,-8.344989776611328,4.717774391174316,-0.0066545275039970875,-0.02422248013317585,0.015438503585755825
18476366603700,2.7485435009002686,-8.347384452819824,4.6722846031188965,-0.004791259765625,-0.02262539230287075,0.0090501569211483
18476367840862,2.740163803100586,-8.373720169067383,4.671087741851807,-0.0018632676219567657,-0.02129448764026165,0.01463996060192585
18476369078025,2.7736825942993164,-8.342596054077148,4.686649799346924,-0.008251613937318325,-0.0204959437251091,0.0167694091796875
18476370315187,2.7461493015289307,-8.322245597839355,4.660313606262207,-0.0071868896484375,-0.01703559048473835,0.01224433071911335
18476371552362,2.738966703414917,-8.372523307800293,4.626794815063477,-0.00958251953125,-0.0186326764523983,0.01224433071911335
18476372789525,2.721010208129883,-8.365341186523438,4.72376012802124,-0.00958251953125,-0.01650322787463665,0.010114881210029125
18476374026687,2.6874914169311523,-8.325836181640625,4.698620796203613,-0.005057440605014563,-0.013042873702943325,0.01171196810901165
18476375263862,2.6862943172454834,-8.342596054077148,4.702212333679199,-0.0031941730994731188,-0.01703559048473835,0.01117960549890995
18476376501012,2.740163803100586,-8.376114845275879,4.683058738708496,-0.0071868896484375,-0.0138414166867733,0.008517795242369175
18476377738175,2.699462413787842,-8.347384452819824,4.6914381980896,-0.007453070487827063,-0.014373779296875,0.008783976547420025
18476378975337,2.6815059185028076,-8.35336971282959,4.699818134307861,-0.0039927163161337376,-0.01996358297765255,0.00931633822619915
18476380212512,2.698265314102173,-8.292317390441895,4.687847137451172,-0.0037265352439135313,-0.010647243820130825,0.008251613937318325
18476381449675,2.740163803100586,-8.35336971282959,4.6734819412231445,-0.005057440605014563,-0.010114881210029125,0.0071868896484375
18476382686825,2.7006595134735107,-8.35336971282959,4.63397741317749,-0.0090501569211483,-0.00931633822619915,0.007985432632267475
18476383924000,2.7257986068725586,-8.35336971282959,4.675876140594482,-0.008251613937318325,-0.00984870083630085,0.0066545275039970875
18476385161162,2.691082715988159,-8.324639320373535,4.657919406890869,-0.005057440605014563,-0.0063883461989462376,0.0031941730994731188
18476386398325,2.717418909072876,-8.356961250305176,4.648342609405518,-0.0018632676219567657,-0.004791259765625,0.00452507846057415
18476387635487,2.7090392112731934,-8.292317390441895,4.6938323974609375,-0.005057440605014563,-0.0039927163161337376,0.0023956298828125
18476388872637,2.698265314102173,-8.304288864135742,4.707000732421875,-0.008251613937318325,-0.0015970865497365594,-0.0023956298828125
18476390109812,2.715024709701538,-8.273163795471191,4.669890403747559,-0.0077192517928779125,-0.0037265352439135313,-0.0042588976211845875
18476391346962,2.692279815673828,-8.32104778289795,4.716577529907227,-0.0090501569211483,-0.0031941730994731188,0.0015970865497365594
18476392584137,2.7042508125305176,-8.312668800354004,4.7153801918029785,-0.0071868896484375,-0.005057440605014563,0.0021294488105922937
18476393821312,2.6815059185028076,-8.310274124145508,4.729745388031006,-0.0021294488105922937,-0.0007985432748682797,-0.0002661811013240367
18476395058450,2.7317841053009033,-8.300697326660156,4.6950297355651855,-0.0077192517928779125,0.0002661811013240367,-0.0023956298828125
18476396295625,2.7090392112731934,-8.310274124145508,4.684255599975586,-0.007453070487827063,-0.0007985432748682797,-0.0015970865497365594
18476397532787,2.715024709701538,-8.28393840789795,4.698620796203613,-0.0029279920272529125,0.0010647244052961469,-0.005855984054505825
18476398769950,2.713827610015869,-8.304288864135742,4.685452938079834,-0.0018632676219567657,0.0042588976211845875,-0.0077192517928779125
18476400007100,2.674323320388794,-8.31985092163086,4.654328346252441,-0.003460354171693325,0.007453070487827063,-0.0063883461989462376
18476401244262,2.695871114730835,-8.288726806640625,4.6507368087768555,-0.00452507846057415,0.0066545275039970875,-0.0037265352439135313
18476402481437,2.716221809387207,-8.32104778289795,4.698620796203613,-0.00452507846057415,0.00931633822619915,-0.003460354171693325
18476403718612,2.7066450119018555,-8.291120529174805,4.64475154876709,-0.0010647244052961469,0.010647243820130825,-0.0002661811013240367
18476404955750,2.7305870056152344,-8.281543731689453,4.639963150024414,-0.00692070834338665,0.010381062515079975,-0.01171196810901165
18476406192925,2.6850972175598145,-8.299500465393066,4.708197593688965,-0.007985432632267475,0.00984870083630085,-0.005057440605014563
18476407430087,2.7126305103302,-8.289923667907715,4.6327805519104,-0.0037265352439135313,0.0023956298828125,-0.005589802749454975
18476408667262,2.7126305103302,-8.29471206665039,4.7189717292785645,-0.0029279920272529125,0.0039927163161337376,-0.004791259765625
18476409904412,2.760514497756958,-8.265981674194336,4.67946720123291,-0.0018632676219567657,0.00958251953125,-0.0063883461989462376
18476411141562,2.7222073078155518,-8.239645004272461,4.625597953796387,-0.0005323622026480734,0.013042873702943325,-0.008783976547420025
18476412378737,2.736572504043579,-8.255207061767578,4.647145748138428,0.0013309054775163531,0.01703559048473835,-0.010381062515079975
18476413615900,2.7437551021575928,-8.273163795471191,4.662707805633545,-0.0037265352439135313,0.01357523538172245,-0.008517795242369175
18476414853075,2.7473464012145996,-8.255207061767578,4.648342609405518,0.0002661811013240367,0.0167694091796875,-0.01224433071911335
18476416090237,2.7473464012145996,-8.292317390441895,4.639963150024414,-0.0023956298828125,0.01783413253724575,-0.014906140975654125
18476417327387,2.7090392112731934,-8.29590892791748,4.6507368087768555,0.0018632676219567657,0.010381062515079975,-0.0138414166867733
18476418564537,2.761711597442627,-8.243236541748047,4.665102005004883,0.0066545275039970875,0.012510511092841625,-0.0119781494140625
18476419801737,2.7497406005859375,-8.249221801757812,4.67946720123291,0.0013309054775163531,0.02076212503015995,-0.0167694091796875
18476421038862,2.804807424545288,-8.26358699798584,4.687847137451172,0.0037265352439135313,0.01996358297765255,-0.015172322280704975
18476422276050,2.764105796813965,-8.270770072937012,4.684255599975586,0.0029279920272529125,0.0191650390625,-0.01650322787463665
18476423513212,2.786850690841675,-8.276755332946777,4.622006416320801,0.0023956298828125,0.0223592109978199,-0.01889885775744915
18476424750362,2.7664999961853027,-8.275558471679688,4.667496204376221,0.0018632676219567657,0.01943122036755085,-0.015438503585755825
18476425987537,2.782062292098999,-8.282740592956543,4.674678802490234,-0.0021294488105922937,0.0220930315554142,-0.01117960549890995
18476427224687,2.7317841053009033,-8.289923667907715,4.6734819412231445,0.0007985432748682797,0.0234239362180233,-0.02076212503015995
18476428461862,2.762908697128296,-8.309077262878418,4.669890403747559,0.0063883461989462376,0.0210283063352108,-0.01703559048473835
18476429699025,2.8167784214019775,-8.282740592956543,4.689043998718262,0.0029279920272529125,0.0204959437251091,-0.01224433071911335
18476430936200,2.8012161254882812,-8.31865406036377,4.669890403747559,0.0053236219100654125,0.0138414166867733,-0.0167694091796875
18476432173350,2.8000190258026123,-8.29590892791748,4.6734819412231445,0.010913425125181675,0.0181003138422966,-0.02182685025036335
18476433410512,2.810792922973633,-8.289923667907715,4.67946720123291,0.00984870083630085,0.0247548408806324,-0.0191650390625
18476434647687,2.8143842220306396,-8.279150009155273,4.707000732421875,0.008251613937318325,0.02502102218568325,-0.0196974016726017
18476435884850,2.8203697204589844,-8.31865406036377,4.657919406890869,0.005057440605014563,0.023956298828125,-0.01943122036755085
18476437122000,2.8143842220306396,-8.339004516601562,4.669890403747559,0.003460354171693325,0.0210283063352108,-0.02076212503015995
18476438359162,2.8000190258026123,-8.258798599243164,4.739322185516357,0.006122165359556675,0.02182685025036335,-0.01943122036755085
18476439596350,2.804807424545288,-8.303092002868652,4.663905143737793,0.010913425125181675,0.0173017717897892,-0.0223592109978199
18476440833487,2.8012161254882812,-8.325836181640625,4.677073001861572,0.0114457868039608,0.0210283063352108,-0.0263519287109375
18476442070662,2.8227639198303223,-8.268375396728516,4.680664539337158,0.010381062515079975,0.0263519287109375,-0.02661811001598835
18476443307812,2.8143842220306396,-8.303092002868652,4.657919406890869,0.0066545275039970875,0.02661811001598835,-0.0300784632563591
18476444544987,2.855085611343384,-8.3306245803833,4.689043998718262,0.0042588976211845875,0.0263519287109375,-0.02848137728869915
18476445782150,2.889801502227783,-8.305485725402832,4.685452938079834,0.0037265352439135313,0.0191650390625,-0.0268842913210392
18476447019312,2.8610711097717285,-8.26119327545166,4.702212333679199,0.00931633822619915,0.0186326764523983,-0.0215606689453125
18476448256462,2.827552318572998,-8.31865406036377,4.648342609405518,0.008783976547420025,0.01996358297765255,-0.0223592109978199
18476449493637,2.895787000656128,-8.327033996582031,4.665102005004883,0.00958251953125,0.02369011752307415,-0.02874755859375
18476450730800,2.8838160037994385,-8.31985092163086,4.667496204376221,0.008783976547420025,0.0234239362180233,-0.02741665206849575
18476451967975,2.8646624088287354,-8.344989776611328,4.675876140594482,0.01224433071911335,0.0228915736079216,-0.02874755859375
18476453205125,2.8371291160583496,-8.334216117858887,4.63397741317749,0.01171196810901165,0.015438503585755825,-0.0282151959836483
18476454442287,2.8407204151153564,-8.309077262878418,4.656722545623779,0.010913425125181675,0.015438503585755825,-0.02848137728869915
18476455679450,2.8371291160583496,-8.316259384155273,4.72376012802124,0.0119781494140625,0.0196974016726017,-0.02874755859375
18476456916612,2.8562827110290527,-8.346187591552734,4.708197593688965,0.010381062515079975,0.01996358297765255,-0.02794901467859745
18476458153762,2.8574798107147217,-8.361749649047852,4.686649799346924,0.0077192517928779125,0.0196974016726017,-0.0300784632563591
18476459390950,2.8562827110290527,-8.365341186523438,4.655525207519531,0.00692070834338665,0.01943122036755085,-0.0324740931391716
18476460628112,2.871845006942749,-8.367734909057617,4.709394931793213,0.010647243820130825,0.02369011752307415,-0.033538818359375
18476461865262,2.8670566082000732,-8.35456657409668,4.709394931793213,0.00958251953125,0.0252872034907341,-0.033538818359375
18476463102412,2.84790301322937,-8.355764389038086,4.708197593688965,0.012510511092841625,0.0223592109978199,-0.0324740931391716
18476464339587,2.850297212600708,-8.372523307800293,4.69024133682251,0.00958251953125,0.0167694091796875,-0.0316755510866642
18476465576762,2.8850131034851074,-8.364143371582031,4.67946720123291,0.013309055007994175,0.012776692397892475,-0.0271504707634449
18476466813912,2.8874073028564453,-8.328230857849121,4.714183330535889,0.00931633822619915,0.013309055007994175,-0.0271504707634449
18476468051075,2.853888511657715,-8.324639320373535,4.728548526763916,0.0071868896484375,0.0162370465695858,-0.02874755859375
18476469288237,2.8838160037994385,-8.329427719116211,4.684255599975586,0.008251613937318325,0.012776692397892475,-0.02422248013317585
18476470525412,2.9077579975128174,-8.348581314086914,4.69024133682251,0.0077192517928779125,0.015172322280704975,-0.02901373989880085
18476471762587,2.890998601913452,-8.35456657409668,4.692635536193848,0.008783976547420025,0.01836649514734745,-0.0311431884765625
18476472999725,2.89339280128479,-8.360552787780762,4.728548526763916,0.0023956298828125,0.0157046839594841,-0.0314093679189682
18476474236900,2.87064790725708,-8.348581314086914,4.705803394317627,0.005855984054505825,0.015172322280704975,-0.0276828333735466
18476475474062,2.9029695987701416,-8.341399192810059,4.6914381980896,0.00958251953125,0.013309055007994175,-0.0292799212038517
18476476711212,2.8862102031707764,-8.342596054077148,4.720168590545654,0.00984870083630085,0.0173017717897892,-0.0271504707634449
18476477948375,2.8874073028564453,-8.35336971282959,4.683058738708496,0.010647243820130825,0.0196974016726017,-0.0247548408806324
18476479185550,2.8886044025421143,-8.35336971282959,4.669890403747559,0.00692070834338665,0.0119781494140625,-0.02741665206849575
18476480422712,2.9089550971984863,-8.340201377868652,4.69024133682251,0.0039927163161337376,0.010913425125181675,-0.02422248013317585
18476481659875,2.9448680877685547,-8.377311706542969,4.6950297355651855,0.00958251953125,0.0114457868039608,-0.0247548408806324
18476482897025,2.9077579975128174,-8.324639320373535,4.696226596832275,0.007985432632267475,0.013042873702943325,-0.0268842913210392
18476484134200,2.9053637981414795,-8.336610794067383,4.686649799346924,0.005589802749454975,0.010114881210029125,-0.02315775491297245
18476485371350,2.935291290283203,-8.364143371582031,4.698620796203613,0.010647243820130825,0.007985432632267475,-0.02502102218568325
18476486608525,2.894589900970459,-8.3306245803833,4.689043998718262,0.008517795242369175,0.013042873702943325,-0.0300784632563591
18476487845675,2.935291290283203,-8.329427719116211,4.729745388031006,0.0071868896484375,0.008517795242369175,-0.02741665206849575
18476489082850,2.8874073028564453,-8.35336971282959,4.707000732421875,0.004791259765625,0.012510511092841625,-0.0210283063352108
18476490320000,2.920926094055176,-8.38808536529541,4.712985992431641,0.00958251953125,0.010647243820130825,-0.0220930315554142
18476491557175,2.8862102031707764,-8.362946510314941,4.701014995574951,0.00452507846057415,0.0071868896484375,-0.0258195661008358
18476492794350,2.8658595085144043,-8.372523307800293,4.751293182373047,0.0005323622026480734,0.008783976547420025,-0.0228915736079216
18476494031487,2.9101521968841553,-8.334216117858887,4.720168590545654,0.008251613937318325,0.00931633822619915,-0.02315775491297245
18476495268650,2.917334794998169,-8.337807655334473,4.709394931793213,0.007453070487827063,0.013042873702943325,-0.01756795309484005
18476496505837,2.873042106628418,-8.391676902770996,4.705803394317627,0.0013309054775163531,0.0066545275039970875,-0.0196974016726017
18476497742987,2.918531894683838,-8.38688850402832,4.680664539337158,0.0015970865497365594,0.0023956298828125,-0.0244886614382267
18476498980150,2.918531894683838,-8.407238960266113,4.709394931793213,0.0029279920272529125,0.005855984054505825,-0.02182685025036335
18476500217312,2.895787000656128,-8.394071578979492,4.69024133682251,-0.0042588976211845875,0.007985432632267475,-0.01703559048473835
18476501454487,2.918531894683838,-8.38808536529541,4.7369279861450195,0.0021294488105922937,0.006122165359556675,-0.0196974016726017
18476502691637,2.8993782997131348,-8.372523307800293,4.7369279861450195,0.0013309054775163531,0.00958251953125,-0.01836649514734745
18476503928812,2.9077579975128174,-8.371326446533203,4.72495698928833,-0.0013309054775163531,0.00984870083630085,-0.015172322280704975
18476505165962,2.8814218044281006,-8.371326446533203,4.757278919219971,0.0005323622026480734,0.008783976547420025,-0.01410759799182415
18476506403137,2.8886044025421143,-8.372523307800293,4.757278919219971,-0.0005323622026480734,0.0071868896484375,-0.0157046839594841
18476507640300,2.9089550971984863,-8.432378768920898,4.721365928649902,0.0010647244052961469,0.005855984054505825,-0.01463996060192585
18476508877462,2.9089550971984863,-8.403648376464844,4.7153801918029785,0.0010647244052961469,0.0031941730994731188,-0.01703559048473835
18476510114625,2.9041666984558105,-8.38569164276123,4.7369279861450195,0.0007985432748682797,0.0042588976211845875,-0.01597086526453495
18476511351787,2.914940595626831,-8.365341186523438,4.727351188659668,-0.0021294488105922937,0.0066545275039970875,-0.01756795309484005
18476512588962,2.940079689025879,-8.382100105285645,4.744110584259033,-0.0026618109550327063,0.008251613937318325,-0.015438503585755825
18476513826112,2.9484593868255615,-8.376114845275879,4.7405195236206055,-0.0029279920272529125,0.0071868896484375,-0.01650322787463665
18476515063275,2.9472622871398926,-8.390480041503906,4.7153801918029785,0.005057440605014563,0.0071868896484375,-0.0181003138422966
18476516300437,2.9460651874542236,-8.361749649047852,4.707000732421875,0.0037265352439135313,0.0039927163161337376,-0.01650322787463665
18476517537612,2.9245173931121826,-8.374917984008789,4.717774391174316,0.0013309054775163531,0.0071868896484375,-0.010647243820130825
18476518774762,2.9269115924835205,-8.382100105285645,4.6950297355651855,0.0023956298828125,0.0037265352439135313,-0.006122165359556675
18476520011912,2.918531894683838,-8.341399192810059,4.712985992431641,0.0,0.0029279920272529125,-0.00692070834338665
18476521249087,2.9724013805389404,-8.355764389038086,4.710591793060303,0.0002661811013240367,0.0037265352439135313,-0.00692070834338665
18476522486262,2.93888258934021,-8.346187591552734,4.739322185516357,0.0010647244052961469,0.008783976547420025,-0.007453070487827063
18476523723412,2.960430383682251,-8.335412979125977,4.692635536193848,0.0002661811013240367,0.0053236219100654125,-0.015172322280704975
18476524960587,2.955641984939575,-8.343792915344238,4.759673118591309,0.0010647244052961469,0.005057440605014563,-0.013042873702943325
18476526197737,2.936488389968872,-8.312668800354004,4.701014995574951,0.0002661811013240367,0.008517795242369175,-0.0053236219100654125
18476527434912,2.9005753993988037,-8.289923667907715,4.717774391174316,-0.008251613937318325,0.0066545275039970875,-0.0029279920272529125
18476528672062,2.937685489654541,-8.335412979125977,4.744110584259033,-0.0015970865497365594,-0.0015970865497365594,-0.0053236219100654125
18476529909237,2.8886044025421143,-8.309077262878418,4.738125324249268,0.004791259765625,0.0037265352439135313,-0.005057440605014563
18476531146387,2.936488389968872,-8.323442459106445,4.703409194946289,0.0071868896484375,0.008783976547420025,-0.006122165359556675
18476532383575,2.9077579975128174,-8.292317390441895,4.699818134307861,0.003460354171693325,0.004791259765625,-0.0042588976211845875
18476533620737,2.8993782997131348,-8.315062522888184,4.727351188659668,0.0010647244052961469,0.003460354171693325,-0.007453070487827063
18476534857887,2.913743495941162,-8.334216117858887,4.697423934936523,0.0015970865497365594,0.0015970865497365594,-0.0023956298828125
18476536095050,2.89339280128479,-8.374917984008789,4.703409194946289,0.0026618109550327063,0.0037265352439135313,0.0005323622026480734
18476537332225,2.8886044025421143,-8.367734909057617,4.701014995574951,0.0010647244052961469,0.005855984054505825,-0.0026618109550327063
18476538569387,2.8814218044281006,-8.392873764038086,4.6950297355651855,0.0013309054775163531,0.007985432632267475,-0.004791259765625
18476539806537,2.9233202934265137,-8.38688850402832,4.663905143737793,-0.0005323622026480734,0.0023956298828125,-0.0042588976211845875
18476541043700,2.895787000656128,-8.401253700256348,4.697423934936523,-0.0023956298828125,-0.0021294488105922937,-0.0031941730994731188
18476542280862,2.8622682094573975,-8.40843677520752,4.732139587402344,-0.0018632676219567657,0.0015970865497365594,-0.0007985432748682797
18476543518050,2.9041666984558105,-8.38808536529541,4.774038314819336,-0.0015970865497365594,0.0002661811013240367,-0.003460354171693325
18476544755187,2.8850131034851074,-8.4108304977417,4.707000732421875,0.0002661811013240367,0.0005323622026480734,-0.0071868896484375
18476545992350,2.895787000656128,-8.419210433959961,4.712985992431641,-0.0015970865497365594,0.0021294488105922937,-0.00452507846057415
18476547229512,2.8838160037994385,-8.488641738891602,4.72495698928833,-0.005855984054505825,0.00692070834338665,-0.005589802749454975
18476548466687,2.8778305053710938,-8.44434928894043,4.710591793060303,-0.0077192517928779125,0.005057440605014563,-0.0002661811013240367
18476549703850,2.895787000656128,-8.428787231445312,4.7189717292785645,-0.0063883461989462376,0.0031941730994731188,0.0031941730994731188
18476550940987,2.8610711097717285,-8.465897560119629,4.771644115447998,-0.0031941730994731188,0.00692070834338665,0.0023956298828125
18476552178162,2.8443117141723633,-8.474276542663574,4.67946720123291,0.0002661811013240367,0.00452507846057415,0.0042588976211845875
18476553415350,2.894589900970459,-8.44195556640625,4.707000732421875,-0.0071868896484375,0.0013309054775163531,0.0039927163161337376
18476554652500,2.8826189041137695,-8.483853340148926,4.732139587402344,-0.008517795242369175,0.005589802749454975,0.008783976547420025
18476555889662,2.8802247047424316,-8.449137687683105,4.675876140594482,-0.005589802749454975,0.013042873702943325,0.005589802749454975
18476557126812,2.850297212600708,-8.47906494140625,4.7189717292785645,-0.005589802749454975,0.0063883461989462376,0.0066545275039970875
18476558363987,2.9233202934265137,-8.497021675109863,4.730942726135254,-0.010647243820130825,0.004791259765625,0.0063883461989462376
18476559601162,2.8790276050567627,-8.47667121887207,4.72376012802124,-0.0114457868039608,0.0029279920272529125,0.0039927163161337376
18476560838312,2.8778305053710938,-8.467094421386719,4.744110584259033,-0.010114881210029125,0.0015970865497365594,0.012510511092841625
18476562075462,2.875436305999756,-8.438364028930664,4.7189717292785645,-0.00984870083630085,0.005855984054505825,0.01357523538172245
18476563312637,2.9161376953125,-8.457517623901367,4.714183330535889,-0.008783976547420025,0.004791259765625,0.0173017717897892
18476564549800,2.9089550971984863,-8.429984092712402,4.709394931793213,-0.00958251953125,0.005057440605014563,0.01943122036755085
18476565786950,2.8778305053710938,-8.431180953979492,4.707000732421875,-0.0138414166867733,0.0053236219100654125,0.02076212503015995
18476567024150,2.918531894683838,-8.429984092712402,4.742913722991943,-0.010913425125181675,0.006122165359556675,0.0173017717897892
18476568261300,2.8862102031707764,-8.397662162780762,4.73573112487793,-0.010381062515079975,0.0090501569211483,0.014906140975654125
18476569498475,2.873042106628418,-8.412027359008789,4.763264179229736,-0.01597086526453495,0.0042588976211845875,0.0234239362180233
18476570735612,2.87064790725708,-8.439560890197754,4.738125324249268,-0.01996358297765255,0.008517795242369175,0.02422248013317585
18476571972787,2.875436305999756,-8.440757751464844,4.712985992431641,-0.0173017717897892,0.008517795242369175,0.0263519287109375
18476573209950,2.831143617630005,-8.394071578979492,4.6938323974609375,-0.01836649514734745,0.005855984054505825,0.0282151959836483
18476574447125,2.9041666984558105,-8.35456657409668,4.720168590545654,-0.0162370465695858,0.010647243820130825,0.0271504707634449
18476575684275,2.892195701599121,-8.374917984008789,4.699818134307861,-0.01650322787463665,0.007453070487827063,0.03034464456140995
18476576921437,2.895787000656128,-8.359354972839355,4.711789131164551,-0.0204959437251091,0.0063883461989462376,0.02874755859375
18476578158612,2.9053637981414795,-8.370129585266113,4.685452938079834,-0.02502102218568325,0.00984870083630085,0.02848137728869915
18476579395750,2.8562827110290527,-8.364143371582031,4.639963150024414,-0.01836649514734745,0.0077192517928779125,0.02661811001598835
18476580632937,2.8203697204589844,-8.35336971282959,4.687847137451172,-0.0215606689453125,0.010114881210029125,0.0263519287109375
18476581870075,2.8826189041137695,-8.35456657409668,4.659116744995117,-0.0215606689453125,0.0063883461989462376,0.0295461006462574
18476583107250,2.8586769104003906,-8.38808536529541,4.726154327392578,-0.02315775491297245,0.007453070487827063,0.0316755510866642
18476584344400,2.8227639198303223,-8.299500465393066,4.648342609405518,-0.0204959437251091,0.006122165359556675,0.03087700717151165
18476585581587,2.826355218887329,-8.383296966552734,4.6950297355651855,-0.02369011752307415,0.008517795242369175,0.0300784632563591
18476586818762,2.8383262157440186,-8.342596054077148,4.704606533050537,-0.02182685025036335,0.007453070487827063,0.0311431884765625
18476588055925,2.875436305999756,-8.343792915344238,4.671087741851807,-0.02555338479578495,0.0031941730994731188,0.02555338479578495
18476589293075,2.8862102031707764,-8.347384452819824,4.698620796203613,-0.02315775491297245,0.0063883461989462376,0.02848137728869915
18476590530225,2.894589900970459,-8.3521728515625,4.64594841003418,-0.01889885775744915,0.0090501569211483,0.0327402763068676
18476591767387,2.87064790725708,-8.356961250305176,4.716577529907227,-0.02502102218568325,0.0063883461989462376,0.0300784632563591
18476593004575,2.850297212600708,-8.38569164276123,4.704606533050537,-0.0234239362180233,-0.0013309054775163531,0.033538818359375
18476594241725,2.8431146144866943,-8.365341186523438,4.699818134307861,-0.02129448764026165,0.0066545275039970875,0.03087700717151165
18476595478875,2.874239206314087,-8.379706382751465,4.716577529907227,-0.0228915736079216,0.01171196810901165,0.0258195661008358
18476596716062,2.8886044025421143,-8.364143371582031,4.742913722991943,-0.02315775491297245,0.0077192517928779125,0.0282151959836483
18476597953225,2.8443117141723633,-8.374917984008789,4.697423934936523,-0.0247548408806324,0.005855984054505825,0.0247548408806324
18476599190375,2.8790276050567627,-8.392873764038086,4.729745388031006,-0.02794901467859745,0.005057440605014563,0.0268842913210392
18476600427537,2.876633405685425,-8.397662162780762,4.69024133682251,-0.0295461006462574,0.0031941730994731188,0.02741665206849575
18476601664700,2.9029695987701416,-8.371326446533203,4.717774391174316,-0.0244886614382267,0.006122165359556675,0.02741665206849575
18476602901862,2.8670566082000732,-8.373720169067383,4.689043998718262,-0.0244886614382267,0.008783976547420025,0.0263519287109375
18476604139025,2.8407204151153564,-8.398859977722168,4.667496204376221,-0.0247548408806324,0.0042588976211845875,0.02369011752307415
18476605376187,2.87064790725708,-8.402450561523438,4.714183330535889,-0.0263519287109375,0.008517795242369175,0.02502102218568325
18476606613362,2.869450807571411,-8.341399192810059,4.641160011291504,-0.0295461006462574,0.0090501569211483,0.0271504707634449
18476607850525,2.806004524230957,-8.331822395324707,4.666299343109131,-0.0271504707634449,0.005855984054505825,0.02502102218568325
18476609087675,2.827552318572998,-8.329427719116211,4.683058738708496,-0.02422248013317585,0.0021294488105922937,0.02182685025036335
18476610324837,2.850297212600708,-8.361749649047852,4.677073001861572,-0.02874755859375,0.0042588976211845875,0.0252872034907341
18476611562012,2.8610711097717285,-8.305485725402832,4.659116744995117,-0.02901373989880085,0.0063883461989462376,0.02129448764026165
18476612799187,2.80241322517395,-8.268375396728516,4.720168590545654,-0.02981228195130825,0.004791259765625,0.02022976242005825
18476614036337,2.831143617630005,-8.292317390441895,4.667496204376221,-0.02794901467859745,0.010647243820130825,0.0196974016726017
18476615273512,2.7904419898986816,-8.29710578918457,4.660313606262207,-0.0292799212038517,0.0066545275039970875,0.014373779296875
18476616510675,2.8119900226593018,-8.244433403015137,4.655525207519531,-0.0276828333735466,0.0037265352439135313,0.0157046839594841
18476617747837,2.851494312286377,-8.26478385925293,4.69024133682251,-0.0220930315554142,0.0042588976211845875,0.02022976242005825
18476618984987,2.8335378170013428,-8.255207061767578,4.667496204376221,-0.0234239362180233,0.0071868896484375,0.01703559048473835
18476620222137,2.809595823287964,-8.23006820678711,4.6303863525390625,-0.03087700717151165,0.007453070487827063,0.01756795309484005
18476621459337,2.8371291160583496,-8.20612621307373,4.6734819412231445,-0.02369011752307415,0.00692070834338665,0.01117960549890995
18476622696475,2.8359320163726807,-8.166622161865234,4.669890403747559,-0.0186326764523983,0.008517795242369175,0.01171196810901165
18476623933637,2.8012161254882812,-8.179790496826172,4.6938323974609375,-0.02076212503015995,0.007985432632267475,0.0138414166867733
18476625170812,2.823961019515991,-8.213309288024902,4.653131008148193,-0.0173017717897892,0.005855984054505825,0.01463996060192585
18476626407975,2.8215668201446533,-8.218097686767578,4.649539947509766,-0.02076212503015995,0.00452507846057415,0.0162370465695858
18476627645150,2.8359320163726807,-8.208520889282227,4.657919406890869,-0.0173017717897892,0.010381062515079975,0.01224433071911335
18476628882300,2.809595823287964,-8.208520889282227,4.647145748138428,-0.01703559048473835,0.010381062515079975,0.0138414166867733
18476630119462,2.8574798107147217,-8.20732307434082,4.659116744995117,-0.0114457868039608,0.0037265352439135313,0.01224433071911335
18476631356637,2.7928361892700195,-8.190564155578613,4.643554210662842,-0.0114457868039608,0.00692070834338665,0.015172322280704975
18476632593800,2.8407204151153564,-8.215703010559082,4.699818134307861,-0.01224433071911335,0.003460354171693325,0.01410759799182415
18476633830962,2.8143842220306396,-8.1941556930542,4.716577529907227,-0.01117960549890995,0.0029279920272529125,0.01171196810901165
18476635068125,2.810792922973633,-8.20612621307373,4.6914381980896,-0.007453070487827063,0.0071868896484375,0.015438503585755825
18476636305275,2.78086519241333,-8.218097686767578,4.665102005004883,-0.0039927163161337376,0.008517795242369175,0.0119781494140625
18476637542437,2.809595823287964,-8.220491409301758,4.689043998718262,-0.003460354171693325,0.0023956298828125,0.01117960549890995
18476638779612,2.8455088138580322,-8.245630264282227,4.687847137451172,-0.0042588976211845875,0.0029279920272529125,0.01117960549890995
18476640016762,2.804807424545288,-8.258798599243164,4.668693542480469,-0.0018632676219567657,0.007985432632267475,0.013309055007994175
18476641253937,2.7904419898986816,-8.258798599243164,4.6722846031188965,0.0042588976211845875,0.008517795242369175,0.012776692397892475
18476642491087,2.849100112915039,-8.243236541748047,4.683058738708496,0.0002661811013240367,0.0039927163161337376,0.0162370465695858
18476643728262,2.828749418258667,-8.224082946777344,4.674678802490234,-0.0007985432748682797,0.0042588976211845875,0.0119781494140625
18476644965425,2.829946517944336,-8.301894187927246,4.668693542480469,0.005855984054505825,0.0031941730994731188,0.015438503585755825
18476646202587,2.7892448902130127,-8.238448143005371,4.668693542480469,0.010647243820130825,0.0015970865497365594,0.0204959437251091
18476647439750,2.829946517944336,-8.254010200500488,4.703409194946289,0.006122165359556675,0.0031941730994731188,0.0186326764523983
18476648676900,2.764105796813965,-8.245630264282227,4.6950297355651855,0.0023956298828125,0.0066545275039970875,0.014373779296875
18476649914075,2.8155813217163086,-8.29710578918457,4.654328346252441,0.0037265352439135313,0.007453070487827063,0.0077192517928779125
18476651151225,2.807201623916626,-8.292317390441895,4.667496204376221,0.0018632676219567657,0.005589802749454975,0.00984870083630085
18476652388400,2.778470993041992,-8.291120529174805,4.657919406890869,-0.0021294488105922937,0.0071868896484375,0.0039927163161337376
18476653625562,2.7916390895843506,-8.303092002868652,4.687847137451172,0.007985432632267475,0.008783976547420025,0.00958251953125
18476654862737,2.778470993041992,-8.304288864135742,4.665102005004883,0.0039927163161337376,0.005057440605014563,0.010647243820130825
18476656099887,2.7497406005859375,-8.331822395324707,4.663905143737793,0.0010647244052961469,0.003460354171693325,0.014373779296875
18476657337050,2.7940332889556885,-8.315062522888184,4.6914381980896,-0.0005323622026480734,0.0066545275039970875,0.0090501569211483
18476658574225,2.784456491470337,-8.281543731689453,4.67946720123291,0.0042588976211845875,0.0013309054775163531,0.008251613937318325
18476659811387,2.7916390895843506,-8.312668800354004,4.675876140594482,0.006122165359556675,0.0029279920272529125,0.0066545275039970875
18476661048575,2.7748796939849854,-8.32104778289795,4.656722545623779,0.005589802749454975,0.01597086526453495,-0.0002661811013240367
18476662285712,2.8012161254882812,-8.331822395324707,4.7153801918029785,0.0039927163161337376,0.010114881210029125,0.005057440605014563
18476663522875,2.7964274883270264,-8.311470985412598,4.722562789916992,0.0039927163161337376,0.010114881210029125,0.0039927163161337376
18476664760025,2.806004524230957,-8.310274124145508,4.667496204376221,0.005855984054505825,0.010114881210029125,0.0071868896484375
18476665997200,2.778470993041992,-8.323442459106445,4.712985992431641,0.005589802749454975,0.0090501569211483,0.0007985432748682797
18476667234375,2.8143842220306396,-8.335412979125977,4.702212333679199,0.005589802749454975,0.00931633822619915,0.0018632676219567657
18476668471512,2.82515811920166,-8.371326446533203,4.666299343109131,0.0018632676219567657,0.010114881210029125,0.0015970865497365594
18476669708700,2.804807424545288,-8.356961250305176,4.707000732421875,0.0063883461989462376,0.014373779296875,0.0029279920272529125
18476670945850,2.832340717315674,-8.379706382751465,4.671087741851807,0.005855984054505825,0.010381062515079975,-0.0002661811013240367
18476672183012,2.828749418258667,-8.35456657409668,4.697423934936523,0.005589802749454975,0.00692070834338665,0.0029279920272529125
18476673420175,2.7748796939849854,-8.389283180236816,4.654328346252441,0.003460354171693325,0.00984870083630085,0.01224433071911335
18476674657350,2.783259391784668,-8.395268440246582,4.689043998718262,-0.0002661811013240367,0.0119781494140625,0.0018632676219567657
18476675894500,2.7892448902130127,-8.383296966552734,4.685452938079834,0.0031941730994731188,0.008251613937318325,0.003460354171693325
18476677131662,2.7724854946136475,-8.395268440246582,4.6914381980896,-0.0002661811013240367,0.013042873702943325,0.008517795242369175
18476678368850,2.82515811920166,-8.396465301513672,4.680664539337158,-0.0010647244052961469,0.01650322787463665,0.0023956298828125
18476679606000,2.823961019515991,-8.395268440246582,4.7153801918029785,0.0007985432748682797,0.012776692397892475,-0.0010647244052961469
18476680843162,2.7964274883270264,-8.359354972839355,4.754884719848633,-0.0031941730994731188,0.014373779296875,0.0039927163161337376
18476682080325,2.7976248264312744,-8.377311706542969,4.703409194946289,0.0026618109550327063,0.0138414166867733,0.006122165359556675
18476683317487,2.7748796939849854,-8.392873764038086,4.698620796203613,0.0015970865497365594,0.01650322787463665,-0.0026618109550327063
18476684554637,2.778470993041992,-8.401253700256348,4.696226596832275,-0.003460354171693325,0.01756795309484005,-0.0021294488105922937
18476685791825,2.80241322517395,-8.412027359008789,4.677073001861572,-0.0023956298828125,0.012776692397892475,0.0010647244052961469
18476687028987,2.8347349166870117,-8.377311706542969,4.684255599975586,-0.004791259765625,0.010381062515079975,-0.0015970865497365594
18476688266125,2.808398723602295,-8.407238960266113,4.701014995574951,-0.0039927163161337376,0.01783413253724575,-0.005057440605014563
18476689503300,2.7892448902130127,-8.425195693969727,4.716577529907227,-0.0037265352439135313,0.0204959437251091,-0.0007985432748682797
18476690740475,2.8419175148010254,-8.394071578979492,4.711789131164551,-0.0071868896484375,0.013042873702943325,0.0015970865497365594
18476691977650,2.784456491470337,-8.418013572692871,4.708197593688965,-0.004791259765625,0.0157046839594841,0.0015970865497365594
18476693214812,2.8407204151153564,-8.358158111572266,4.748898983001709,-0.0066545275039970875,0.02182685025036335,-0.0021294488105922937
18476694451975,2.82515811920166,-8.406042098999023,4.744110584259033,-0.0077192517928779125,0.01943122036755085,0.0
18476695689112,2.8598740100860596,-8.396465301513672,4.72376012802124,-0.0071868896484375,0.0196974016726017,0.0
18476696926287,2.853888511657715,-8.40963363647461,4.733336925506592,-0.010647243820130825,0.01943122036755085,-0.0053236219100654125
18476698163462,2.8155813217163086,-8.406042098999023,4.711789131164551,-0.0071868896484375,0.02129448764026165,-0.0071868896484375
18476699400612,2.8155813217163086,-8.390480041503906,4.701014995574951,-0.0039927163161337376,0.0220930315554142,-0.006122165359556675
18476700637762,2.809595823287964,-8.390480041503906,4.6938323974609375,-0.00452507846057415,0.01703559048473835,-0.00452507846057415
18476701874950,2.7928361892700195,-8.383296966552734,4.67946720123291,-0.014373779296875,0.02022976242005825,-0.010114881210029125
18476703112100,2.809595823287964,-8.407238960266113,4.655525207519531,-0.010913425125181675,0.02502102218568325,-0.006122165359556675
18476704349250,2.846705913543701,-8.418013572692871,4.751293182373047,-0.012510511092841625,0.0220930315554142,0.0002661811013240367
18476705586437,2.896984100341797,-8.38449478149414,4.748898983001709,-0.0157046839594841,0.0196974016726017,-0.0007985432748682797
18476706823587,2.8371291160583496,-8.378508567810059,4.708197593688965,-0.01463996060192585,0.01650322787463665,0.0021294488105922937
18476708060762,2.8155813217163086,-8.431180953979492,4.711789131164551,-0.01357523538172245,0.0173017717897892,-0.0018632676219567657
18476709297937,2.8215668201446533,-8.392873764038086,4.655525207519531,-0.014906140975654125,0.02315775491297245,-0.0037265352439135313
18476710535087,2.826355218887329,-8.42160415649414,4.726154327392578,-0.02262539230287075,0.0223592109978199,-0.0031941730994731188
18476711772250,2.7988219261169434,-8.456320762634277,4.720168590545654,-0.02022976242005825,0.0223592109978199,-0.0013309054775163531
18476713009400,2.7688941955566406,-8.382100105285645,4.656722545623779,-0.0181003138422966,0.0215606689453125,-0.0031941730994731188
18476714246575,2.846705913543701,-8.397662162780762,4.714183330535889,-0.0204959437251091,0.0234239362180233,-0.0007985432748682797
18476715483750,2.853888511657715,-8.425195693969727,4.701014995574951,-0.0223592109978199,0.0173017717897892,-0.0005323622026480734
18476716720900,2.8347349166870117,-8.391676902770996,4.720168590545654,-0.01996358297765255,0.0223592109978199,-0.0010647244052961469
18476717958062,2.846705913543701,-8.366538047790527,4.6734819412231445,-0.02129448764026165,0.0228915736079216,0.0
18476719195212,2.827552318572998,-8.376114845275879,4.671087741851807,-0.0263519287109375,0.0220930315554142,-0.0013309054775163531
18476720432387,2.855085611343384,-8.378508567810059,4.667496204376221,-0.0196974016726017,0.0191650390625,-0.0021294488105922937
18476721669537,2.84790301322937,-8.373720169067383,4.665102005004883,-0.0196974016726017,0.02076212503015995,0.0018632676219567657
18476722906725,2.827552318572998,-8.367734909057617,4.67946720123291,-0.0186326764523983,0.0220930315554142,0.006122165359556675
18476724143875,2.869450807571411,-8.382100105285645,4.696226596832275,-0.01597086526453495,0.01756795309484005,0.0021294488105922937
18476725381037,2.8814218044281006,-8.38569164276123,4.707000732421875,-0.02315775491297245,0.0247548408806324,0.0031941730994731188
18476726618212,2.9029695987701416,-8.366538047790527,4.732139587402344,-0.02022976242005825,0.0210283063352108,0.005855984054505825
18476727855375,2.8646624088287354,-8.380903244018555,4.704606533050537,-0.01703559048473835,0.02076212503015995,0.0066545275039970875
18476729092537,2.853888511657715,-8.38569164276123,4.6507368087768555,-0.01463996060192585,0.02022976242005825,0.0071868896484375
18476730329700,2.8622682094573975,-8.391676902770996,4.712985992431641,-0.01650322787463665,0.02182685025036335,0.005057440605014563
18476731566850,2.855085611343384,-8.396465301513672,4.6507368087768555,-0.01703559048473835,0.0228915736079216,0.005589802749454975
18476732804037,2.873042106628418,-8.4108304977417,4.701014995574951,-0.01756795309484005,0.02022976242005825,0.006122165359556675
18476734041200,2.84790301322937,-8.374917984008789,4.738125324249268,-0.0223592109978199,0.0196974016726017,0.004791259765625
18476735278375,2.804807424545288,-8.400056838989258,4.7153801918029785,-0.01756795309484005,0.0204959437251091,0.005057440605014563
18476736515512,2.874239206314087,-8.404845237731934,4.6914381980896,-0.0162370465695858,0.01943122036755085,0.010114881210029125
18476737752675,2.876633405685425,-8.428787231445312,4.697423934936523,-0.0210283063352108,0.02022976242005825,0.007985432632267475
18476738989850,2.869450807571411,-8.394071578979492,4.712985992431641,-0.01889885775744915,0.01703559048473835,0.010114881210029125
18476740227000,2.8634653091430664,-8.423998832702637,4.684255599975586,-0.01943122036755085,0.01650322787463665,0.01117960549890995
18476741464175,2.8407204151153564,-8.370129585266113,4.675876140594482,-0.02262539230287075,0.01597086526453495,0.00984870083630085
18476742701350,2.9041666984558105,-8.347384452819824,4.661510944366455,-0.0220930315554142,0.01783413253724575,0.010381062515079975
18476743938500,2.89339280128479,-8.359354972839355,4.684255599975586,-0.0215606689453125,0.02129448764026165,0.010647243820130825
18476745175675,2.911349296569824,-8.38449478149414,4.67827033996582,-0.0223592109978199,0.02502102218568325,0.0157046839594841
18476746412812,2.894589900970459,-8.365341186523438,4.656722545623779,-0.02129448764026165,0.01463996060192585,0.0157046839594841
18476747650025,2.851494312286377,-8.361749649047852,4.631583213806152,-0.0186326764523983,0.01463996060192585,0.013042873702943325
18476748887150,2.895787000656128,-8.3521728515625,4.668693542480469,-0.02022976242005825,0.01703559048473835,0.0162370465695858
18476750124312,2.889801502227783,-8.366538047790527,4.656722545623779,-0.0228915736079216,0.015438503585755825,0.015438503585755825
18476751361500,2.8443117141723633,-8.372523307800293,4.656722545623779,-0.02076212503015995,0.01171196810901165,0.012510511092841625
18476752598637,2.876633405685425,-8.336610794067383,4.643554210662842,-0.0204959437251091,0.01597086526453495,0.0114457868039608
18476753835825,2.874239206314087,-8.360552787780762,4.668693542480469,-0.01889885775744915,0.013042873702943325,0.015172322280704975
18476755072987,2.829946517944336,-8.377311706542969,4.662707805633545,-0.02369011752307415,0.01410759799182415,0.0167694091796875
18476756310162,2.8227639198303223,-8.403648376464844,4.6327805519104,-0.02369011752307415,0.01410759799182415,0.014373779296875
18476757547275,2.828749418258667,-8.390480041503906,4.687847137451172,-0.0258195661008358,0.01703559048473835,0.012776692397892475
18476758784462,2.804807424545288,-8.40843677520752,4.610035419464111,-0.02794901467859745,0.010913425125181675,0.0138414166867733
18476760021637,2.8203697204589844,-8.433575630187988,4.638765811920166,-0.0215606689453125,0.010647243820130825,0.01171196810901165
18476761258775,2.8227639198303223,-8.403648376464844,4.659116744995117,-0.0228915736079216,0.01171196810901165,0.010913425125181675
18476762495950,2.7712883949279785,-8.423998832702637,4.63397741317749,-0.0268842913210392,0.006122165359556675,0.013042873702943325
18476763733112,2.829946517944336,-8.413225173950195,4.625597953796387,-0.02182685025036335,0.0066545275039970875,0.0114457868039608
18476764970287,2.8598740100860596,-8.398859977722168,4.623203754425049,-0.02315775491297245,0.005855984054505825,0.006122165359556675
18476766207462,2.8419175148010254,-8.400056838989258,4.64475154876709,-0.0244886614382267,0.01171196810901165,0.0090501569211483
18476767444600,2.8335378170013428,-8.416815757751465,4.653131008148193,-0.0247548408806324,0.010913425125181675,0.00958251953125
18476768681775,2.7976248264312744,-8.431180953979492,4.635174751281738,-0.0327402763068676,0.010381062515079975,0.0023956298828125
18476769918950,2.808398723602295,-8.394071578979492,4.635174751281738,-0.0292799212038517,0.010647243820130825,0.005057440605014563
18476771156112,2.782062292098999,-8.35456657409668,4.671087741851807,-0.02981228195130825,0.010913425125181675,0.0053236219100654125
18476772393262,2.826355218887329,-8.368931770324707,4.659116744995117,-0.0351359061896801,0.012776692397892475,0.005589802749454975
18476773630437,2.8455088138580322,-8.376114845275879,4.613626480102539,-0.0316755510866642,0.012776692397892475,0.0021294488105922937
18476774867587,2.8419175148010254,-8.373720169067383,4.620809078216553,-0.0268842913210392,0.01224433071911335,0.005855984054505825
18476776104762,2.8359320163726807,-8.334216117858887,4.619612216949463,-0.02794901467859745,0.007453070487827063,0.007453070487827063
18476777341925,2.832340717315674,-8.329427719116211,4.667496204376221,-0.02901373989880085,0.0037265352439135313,0.0031941730994731188
18476778579075,2.8622682094573975,-8.31865406036377,4.648342609405518,-0.02901373989880085,0.006122165359556675,0.004791259765625
18476779816237,2.851494312286377,-8.31985092163086,4.638765811920166,-0.0271504707634449,0.008517795242369175,0.0029279920272529125
18476781053437,2.8215668201446533,-8.280346870422363,4.63397741317749,-0.02848137728869915,0.010114881210029125,0.0018632676219567657
18476782290587,2.8215668201446533,-8.270770072937012,4.613626480102539,-0.0282151959836483,0.007453070487827063,0.0002661811013240367
18476783527750,2.871845006942749,-8.277952194213867,4.616020679473877,-0.02661811001598835,0.0026618109550327063,0.0029279920272529125
18476784764887,2.8826189041137695,-8.316259384155273,4.60165548324585,-0.02502102218568325,0.006122165359556675,0.0021294488105922937
18476786002062,2.942473888397217,-8.267178535461426,4.610035419464111,-0.02502102218568325,0.010381062515079975,-0.0013309054775163531
18476787239212,2.8395233154296875,-8.288726806640625,4.606443881988525,-0.0268842913210392,0.0090501569211483,-0.0002661811013240367
18476788476400,2.8143842220306396,-8.275558471679688,4.647145748138428,-0.0215606689453125,0.00692070834338665,-0.0007985432748682797
18476789713562,2.8431146144866943,-8.273163795471191,4.639963150024414,-0.0258195661008358,0.007453070487827063,-0.0007985432748682797
18476790950700,2.8383262157440186,-8.268375396728516,4.587290287017822,-0.0247548408806324,0.010647243820130825,0.0013309054775163531
18476792187887,2.8131871223449707,-8.29590892791748,4.635174751281738,-0.01783413253724575,0.0077192517928779125,0.0002661811013240367
18476793425050,2.7988219261169434,-8.29590892791748,4.5825018882751465,-0.01889885775744915,0.007453070487827063,-0.0023956298828125
18476794662212,2.827552318572998,-8.292317390441895,4.6040496826171875,-0.01996358297765255,0.0066545275039970875,0.0
18476795899375,2.7964274883270264,-8.274361610412598,4.599261283874512,-0.02129448764026165,0.00692070834338665,-0.0026618109550327063
18476797136525,2.849100112915039,-8.23006820678711,4.610035419464111,-0.01783413253724575,0.00692070834338665,0.0023956298828125
18476798373700,2.8119900226593018,-8.29590892791748,4.624400615692139,-0.01703559048473835,0.0077192517928779125,0.0015970865497365594
18476799610875,2.823961019515991,-8.280346870422363,4.599261283874512,-0.014373779296875,0.005855984054505825,0.005589802749454975
18476800848025,2.8634653091430664,-8.28393840789795,4.611232280731201,-0.01703559048473835,0.0066545275039970875,0.0010647244052961469
18476802085200,2.8215668201446533,-8.265981674194336,4.595670223236084,-0.015438503585755825,0.005057440605014563,0.005855984054505825
18476803322350,2.8119900226593018,-8.267178535461426,4.6052470207214355,-0.01597086526453495,0.00692070834338665,0.010647243820130825
18476804559500,2.8131871223449707,-8.274361610412598,4.596867084503174,-0.014906140975654125,0.007985432632267475,0.0026618109550327063
18476805796700,2.8143842220306396,-8.276755332946777,4.587290287017822,-0.013309055007994175,0.0013309054775163531,0.0023956298828125
18476807033837,2.8215668201446533,-8.301894187927246,4.614823818206787,-0.014373779296875,0.0005323622026480734,0.004791259765625
18476808271025,2.8000190258026123,-8.292317390441895,4.60165548324585,-0.012776692397892475,0.00452507846057415,-0.0042588976211845875
18476809508162,2.8586769104003906,-8.281543731689453,4.624400615692139,-0.012510511092841625,0.0053236219100654125,-0.0015970865497365594
18476810745337,2.8215668201446533,-8.26119327545166,4.6040496826171875,-0.0066545275039970875,-0.0015970865497365594,0.003460354171693325
18476811982500,2.8586769104003906,-8.291120529174805,4.592078685760498,-0.0090501569211483,0.003460354171693325,0.0015970865497365594
18476813219662,2.8598740100860596,-8.255207061767578,4.653131008148193,-0.010114881210029125,0.0066545275039970875,0.0007985432748682797
18476814456812,2.850297212600708,-8.269572257995605,4.5836992263793945,-0.007453070487827063,0.0026618109550327063,0.0026618109550327063
18476815694000,2.808398723602295,-8.268375396728516,4.5836992263793945,-0.00958251953125,0.0063883461989462376,0.0021294488105922937
18476816931150,2.80241322517395,-8.277952194213867,4.58848762512207,-0.010913425125181675,0.010913425125181675,0.0018632676219567657
18476818168312,2.8119900226593018,-8.257601737976074,4.593276023864746,-0.01224433071911335,0.0119781494140625,0.0037265352439135313
18476819405475,2.8155813217163086,-8.277952194213867,4.607641220092773,-0.00692070834338665,0.003460354171693325,0.007453070487827063
18476820642662,2.808398723602295,-8.28393840789795,4.5836992263793945,-0.005589802749454975,0.005589802749454975,0.0007985432748682797
18476821879812,2.7964274883270264,-8.259995460510254,4.596867084503174,-0.0063883461989462376,0.004791259765625,-0.0021294488105922937
18476823116975,2.8155813217163086,-8.286332130432129,4.606443881988525,-0.0053236219100654125,0.003460354171693325,0.003460354171693325
18476824354150,2.8191726207733154,-8.289923667907715,4.581305027008057,-0.003460354171693325,0.0031941730994731188,0.004791259765625
18476825591300,2.8012161254882812,-8.298303604125977,4.616020679473877,-0.0018632676219567657,0.004791259765625,-0.0013309054775163531
18476826828475,2.7724854946136475,-8.340201377868652,4.5836992263793945,-0.003460354171693325,0.006122165359556675,0.0013309054775163531
18476828065612,2.8383262157440186,-8.323442459106445,4.569334030151367,-0.0037265352439135313,0.0021294488105922937,0.0026618109550327063
18476829302812,2.7988219261169434,-8.28393840789795,4.599261283874512,-0.0018632676219567657,0.0021294488105922937,0.0013309054775163531
18476830539962,2.823961019515991,-8.29590892791748,4.6722846031188965,0.0,0.0029279920272529125,0.0
18476831777125,2.869450807571411,-8.237251281738281,4.6722846031188965,-0.0010647244052961469,0.0042588976211845875,-0.003460354171693325
18476833014287,2.82515811920166,-8.287528991699219,4.610035419464111,0.0029279920272529125,0.0029279920272529125,-0.0005323622026480734
18476834251450,2.8179755210876465,-8.281543731689453,4.607641220092773,0.0,0.003460354171693325,0.0005323622026480734
18476835488612,2.8143842220306396,-8.288726806640625,4.623203754425049,0.0,0.0053236219100654125,0.0021294488105922937
18476836725762,2.8431146144866943,-8.292317390441895,4.619612216949463,0.0015970865497365594,0.0023956298828125,-0.005057440605014563
18476837962937,2.8826189041137695,-8.277952194213867,4.595670223236084,-0.0010647244052961469,0.0037265352439135313,-0.0029279920272529125
18476839200087,2.8155813217163086,-8.280346870422363,4.636371612548828,0.0063883461989462376,0.0039927163161337376,0.0013309054775163531
18476840437262,2.8634653091430664,-8.349778175354004,4.665102005004883,0.005855984054505825,0.005855984054505825,-0.0002661811013240367
18476841674437,2.8670566082000732,-8.301894187927246,4.657919406890869,0.0039927163161337376,0.005057440605014563,-0.003460354171693325
18476842911587,2.806004524230957,-8.281543731689453,4.58848762512207,0.0042588976211845875,0.0090501569211483,-0.004791259765625
18476844148762,2.852691411972046,-8.310274124145508,4.622006416320801,0.0005323622026480734,0.008517795242369175,-0.0013309054775163531
18476845385925,2.809595823287964,-8.313865661621094,4.620809078216553,0.0029279920272529125,0.00692070834338665,-0.0042588976211845875
18476846623075,2.786850690841675,-8.31985092163086,4.641160011291504,0.005589802749454975,0.007453070487827063,-0.00452507846057415
18476847860262,2.831143617630005,-8.32104778289795,4.611232280731201,0.0037265352439135313,0.00692070834338665,-0.007453070487827063
18476849097412,2.829946517944336,-8.325836181640625,4.667496204376221,0.00452507846057415,0.0031941730994731188,-0.0066545275039970875
18476850334575,2.8395233154296875,-8.334216117858887,4.638765811920166,0.005589802749454975,0.0010647244052961469,-0.005855984054505825
18476851571737,2.8179755210876465,-8.299500465393066,4.6291890144348145,0.0029279920272529125,0.0077192517928779125,-0.0053236219100654125
18476852808912,2.8335378170013428,-8.285135269165039,4.626794815063477,0.00692070834338665,0.0114457868039608,-0.005057440605014563
18476854046062,2.873042106628418,-8.343792915344238,4.638765811920166,0.0090501569211483,0.00692070834338665,-0.0063883461989462376
18476855283225,2.8802247047424316,-8.359354972839355,4.661510944366455,0.0066545275039970875,0.00958251953125,-0.01117960549890995
18476856520387,2.850297212600708,-8.31745719909668,4.612429618835449,0.0090501569211483,0.01117960549890995,-0.0077192517928779125
18476857757562,2.7916390895843506,-8.341399192810059,4.614823818206787,0.007453070487827063,0.012776692397892475,-0.0042588976211845875
18476858994725,2.8646624088287354,-8.315062522888184,4.6303863525390625,0.0026618109550327063,0.0066545275039970875,-0.0039927163161337376
18476860231887,2.8455088138580322,-8.31985092163086,4.623203754425049,0.0077192517928779125,0.0090501569211483,-0.01171196810901165
18476861469050,2.8886044025421143,-8.325836181640625,4.667496204376221,0.0090501569211483,0.0053236219100654125,-0.008783976547420025
18476862706225,2.869450807571411,-8.35456657409668,4.607641220092773,0.01117960549890995,0.0071868896484375,-0.00452507846057415
18476863943375,2.8598740100860596,-8.367734909057617,4.613626480102539,0.00984870083630085,0.00931633822619915,-0.004791259765625
18476865180537,2.831143617630005,-8.31865406036377,4.636371612548828,0.01117960549890995,0.0037265352439135313,-0.010913425125181675
18476866417712,2.871845006942749,-8.31745719909668,4.614823818206787,0.0066545275039970875,0.005057440605014563,-0.0077192517928779125
18476867654862,2.9065608978271484,-8.285135269165039,4.618414878845215,0.010647243820130825,0.008251613937318325,-0.0053236219100654125
18476868892025,2.87064790725708,-8.339004516601562,4.67946720123291,0.0114457868039608,0.0042588976211845875,-0.008517795242369175
18476870129187,2.871845006942749,-8.333019256591797,4.655525207519531,0.010647243820130825,0.0037265352439135313,-0.00958251953125
18476871366362,2.850297212600708,-8.304288864135742,4.636371612548828,0.0114457868039608,0.00692070834338665,-0.0031941730994731188
18476872603512,2.8622682094573975,-8.32104778289795,4.661510944366455,0.0119781494140625,0.007453070487827063,-0.00692070834338665
18476873840687,2.8838160037994385,-8.3306245803833,4.637568950653076,0.00931633822619915,0.00452507846057415,-0.0066545275039970875
18476875077850,2.873042106628418,-8.3306245803833,4.659116744995117,0.0077192517928779125,0.005589802749454975,-0.00692070834338665
18476876315012,2.8562827110290527,-8.331822395324707,4.67827033996582,0.0063883461989462376,0.005855984054505825,-0.0077192517928779125
18476877552175,2.9041666984558105,-8.349778175354004,4.671087741851807,0.01224433071911335,0.0015970865497365594,-0.0063883461989462376
18476878789337,2.8646624088287354,-8.32104778289795,4.639963150024414,0.014373779296875,0.0005323622026480734,-0.0026618109550327063
18476880026500,2.9017724990844727,-8.306682586669922,4.64594841003418,0.013309055007994175,0.0021294488105922937,-0.005589802749454975
18476881263675,2.898181200027466,-8.358158111572266,4.617218017578125,0.01597086526453495,0.0018632676219567657,-0.003460354171693325
18476882500812,2.917334794998169,-8.339004516601562,4.643554210662842,0.01410759799182415,0.0039927163161337376,-0.0063883461989462376
18476883737975,2.898181200027466,-8.358158111572266,4.636371612548828,0.014906140975654125,0.0039927163161337376,-0.006122165359556675
18476884975162,2.9005753993988037,-8.3521728515625,4.6519341468811035,0.01410759799182415,-0.0029279920272529125,-0.004791259765625
18476886212312,2.87064790725708,-8.340201377868652,4.666299343109131,0.01357523538172245,0.0018632676219567657,-0.0007985432748682797
18476887449475,2.935291290283203,-8.383296966552734,4.671087741851807,0.00931633822619915,-0.0005323622026480734,0.0005323622026480734
18476888686637,2.917334794998169,-8.391676902770996,4.636371612548828,0.013042873702943325,0.0005323622026480734,-0.0023956298828125
18476889923800,2.9281086921691895,-8.348581314086914,4.656722545623779,0.015172322280704975,0.0037265352439135313,-0.0023956298828125
18476891160975,2.9101521968841553,-8.373720169067383,4.708197593688965,0.01597086526453495,0.003460354171693325,-0.0010647244052961469
18476892398125,2.913743495941162,-8.416815757751465,4.684255599975586,0.014906140975654125,0.0015970865497365594,0.0002661811013240367
18476893635287,2.896984100341797,-8.38569164276123,4.610035419464111,0.0090501569211483,0.0007985432748682797,-0.005589802749454975
18476894872462,2.8874073028564453,-8.346187591552734,4.639963150024414,0.014906140975654125,-0.0063883461989462376,-0.0029279920272529125
18476896109625,2.934094190597534,-8.343792915344238,4.6507368087768555,0.014373779296875,-0.010647243820130825,-0.0018632676219567657
18476897346800,2.9257144927978516,-8.3521728515625,4.696226596832275,0.007453070487827063,-0.0005323622026480734,-0.0029279920272529125
18476898583962,2.9245173931121826,-8.419210433959961,4.687847137451172,0.015172322280704975,-0.0021294488105922937,0.0005323622026480734
18476899821112,2.911349296569824,-8.425195693969727,4.677073001861572,0.0119781494140625,-0.0039927163161337376,-0.0018632676219567657
18476901058262,2.9328970909118652,-8.38808536529541,4.685452938079834,0.010114881210029125,-0.0026618109550327063,0.0
18476902295450,2.9161376953125,-8.360552787780762,4.67827033996582,0.01171196810901165,-0.0077192517928779125,-0.0002661811013240367
18476903532587,2.918531894683838,-8.422801971435547,4.708197593688965,0.012510511092841625,-0.003460354171693325,-0.00692070834338665
18476904769775,2.9065608978271484,-8.40963363647461,4.67946720123291,0.007453070487827063,-0.0023956298828125,-0.005855984054505825
18476906006937,2.919728994369507,-8.431180953979492,4.685452938079834,0.00692070834338665,-0.008251613937318325,-0.0010647244052961469
18476907244112,2.935291290283203,-8.406042098999023,4.674678802490234,0.008251613937318325,-0.00931633822619915,-0.0039927163161337376
18476908481262,2.892195701599121,-8.398859977722168,4.687847137451172,0.0071868896484375,-0.0039927163161337376,-0.0018632676219567657
18476909718425,2.9328970909118652,-8.40843677520752,4.668693542480469,0.0077192517928779125,-0.008517795242369175,0.0037265352439135313
18476910955600,2.919728994369507,-8.413225173950195,4.6722846031188965,0.0071868896484375,-0.0071868896484375,-0.0005323622026480734
18476912192750,2.9460651874542236,-8.403648376464844,4.699818134307861,0.005855984054505825,-0.0077192517928779125,-0.0002661811013240367
18476913429925,2.9245173931121826,-8.379706382751465,4.721365928649902,0.0026618109550327063,-0.0077192517928779125,-0.0015970865497365594
18476914667075,2.9053637981414795,-8.431180953979492,4.689043998718262,0.005589802749454975,-0.01171196810901165,0.0018632676219567657
18476915904250,2.9041666984558105,-8.401253700256348,4.684255599975586,0.0090501569211483,-0.010381062515079975,-0.0005323622026480734
18476917141425,2.9089550971984863,-8.418013572692871,4.665102005004883,0.005589802749454975,-0.0071868896484375,-0.0021294488105922937
18476918378575,2.9077579975128174,-8.402450561523438,4.659116744995117,0.0029279920272529125,-0.00984870083630085,0.0021294488105922937
18476919615737,2.851494312286377,-8.403648376464844,4.7189717292785645,0.0015970865497365594,-0.00931633822619915,0.0018632676219567657
18476920852900,2.8658595085144043,-8.433575630187988,4.663905143737793,-0.0018632676219567657,-0.015172322280704975,0.0039927163161337376
18476922090062,2.911349296569824,-8.428787231445312,4.680664539337158,0.0013309054775163531,-0.01117960549890995,0.004791259765625
18476923327237,2.8838160037994385,-8.40843677520752,4.687847137451172,0.0005323622026480734,-0.01224433071911335,0.0042588976211845875
18476924564400,2.9053637981414795,-8.400056838989258,4.654328346252441,-0.0023956298828125,-0.014373779296875,0.0037265352439135313
18476925801562,2.9065608978271484,-8.396465301513672,4.696226596832275,-0.0053236219100654125,-0.010913425125181675,0.008517795242369175
18476927038725,2.8562827110290527,-8.40963363647461,4.709394931793213,0.0015970865497365594,-0.01171196810901165,0.0114457868039608
18476928275900,2.896984100341797,-8.395268440246582,4.661510944366455,-0.0013309054775163531,-0.0119781494140625,0.0031941730994731188
18476929513050,2.8886044025421143,-8.406042098999023,4.654328346252441,-0.0007985432748682797,-0.00984870083630085,0.003460354171693325
18476930750200,2.9029695987701416,-8.372523307800293,4.689043998718262,0.0002661811013240367,-0.007985432632267475,0.0071868896484375
18476931987375,2.8850131034851074,-8.403648376464844,4.683058738708496,0.0007985432748682797,-0.00958251953125,0.0066545275039970875
18476933224537,2.8886044025421143,-8.367734909057617,4.655525207519531,-0.0005323622026480734,-0.01224433071911335,0.010913425125181675
18476934461700,2.892195701599121,-8.402450561523438,4.6507368087768555,0.0021294488105922937,-0.0167694091796875,0.00692070834338665
18476935698875,2.9233202934265137,-8.429984092712402,4.64594841003418,-0.0018632676219567657,-0.0162370465695858,0.0090501569211483
18476936936037,2.875436305999756,-8.360552787780762,4.649539947509766,-0.003460354171693325,-0.0114457868039608,0.007985432632267475
18476938173200,2.9029695987701416,-8.395268440246582,4.6950297355651855,-0.0013309054775163531,-0.014373779296875,0.008517795242369175
18476939410362,2.896984100341797,-8.356961250305176,4.6722846031188965,0.0023956298828125,-0.012776692397892475,0.00984870083630085
18476940647525,2.8610711097717285,-8.378508567810059,4.642357349395752,-0.0029279920272529125,-0.013042873702943325,0.0090501569211483
18476941884700,2.9293057918548584,-8.343792915344238,4.662707805633545,-0.0031941730994731188,-0.01783413253724575,0.00984870083630085
18476943121850,2.940079689025879,-8.35097599029541,4.692635536193848,-0.0031941730994731188,-0.0162370465695858,0.00984870083630085
18476944359012,2.892195701599121,-8.343792915344238,4.660313606262207,-0.0021294488105922937,-0.0167694091796875,0.01171196810901165
18476945596187,2.87064790725708,-8.391676902770996,4.642357349395752,0.0007985432748682797,-0.01703559048473835,0.010913425125181675
18476946833350,2.8574798107147217,-8.347384452819824,4.655525207519531,-0.004791259765625,-0.014906140975654125,0.01117960549890995
18476948070525,2.8814218044281006,-8.358158111572266,4.669890403747559,-0.005057440605014563,-0.01410759799182415,0.014906140975654125
18476949307687,2.8838160037994385,-8.35097599029541,4.67827033996582,-0.0015970865497365594,-0.0157046839594841,0.015172322280704975
18476950544850,2.8778305053710938,-8.364143371582031,4.666299343109131,-0.0037265352439135313,-0.0173017717897892,0.013309055007994175
18476951782000,2.896984100341797,-8.356961250305176,4.666299343109131,-0.0026618109550327063,-0.0167694091796875,0.015438503585755825
18476953019162,2.890998601913452,-8.402450561523438,4.6507368087768555,-0.0039927163161337376,-0.015172322280704975,0.01783413253724575
18476954256325,2.855085611343384,-8.377311706542969,4.654328346252441,-0.0005323622026480734,-0.013309055007994175,0.01889885775744915
18476955493487,2.9053637981414795,-8.389283180236816,4.663905143737793,0.0013309054775163531,-0.01756795309484005,0.02182685025036335
18476956730650,2.8646624088287354,-8.333019256591797,4.686649799346924,0.0007985432748682797,-0.01943122036755085,0.01783413253724575
18476957967825,2.8574798107147217,-8.360552787780762,4.7153801918029785,-0.0007985432748682797,-0.010647243820130825,0.01783413253724575
18476959204987,2.873042106628418,-8.340201377868652,4.656722545623779,-0.0015970865497365594,-0.013309055007994175,0.015438503585755825
18476960442162,2.846705913543701,-8.361749649047852,4.641160011291504,0.0018632676219567657,-0.01756795309484005,0.013042873702943325
18476961679312,2.853888511657715,-8.35456657409668,4.666299343109131,-0.0053236219100654125,-0.014373779296875,0.01357523538172245
18476962916475,2.868253707885742,-8.360552787780762,4.6914381980896,-0.0066545275039970875,-0.012776692397892475,0.0173017717897892
18476964153637,2.892195701599121,-8.3521728515625,4.653131008148193,-0.0023956298828125,-0.0210283063352108,0.01650322787463665
18476965390825,2.851494312286377,-8.390480041503906,4.643554210662842,-0.0015970865497365594,-0.015172322280704975,0.0138414166867733
18476966627975,2.8347349166870117,-8.361749649047852,4.677073001861572,-0.0018632676219567657,-0.013042873702943325,0.01117960549890995
18476967865125,2.873042106628418,-8.377311706542969,4.69024133682251,-0.0013309054775163531,-0.006122165359556675,0.01597086526453495
18476969102275,2.8586769104003906,-8.360552787780762,4.657919406890869,-0.0077192517928779125,-0.00958251953125,0.0162370465695858
18476970339462,2.8646624088287354,-8.372523307800293,4.660313606262207,-0.0031941730994731188,-0.01650322787463665,0.013042873702943325
18476971576637,2.8335378170013428,-8.343792915344238,4.698620796203613,0.00452507846057415,-0.0138414166867733,0.01943122036755085
18476972813787,2.846705913543701,-8.370129585266113,4.681861400604248,0.0005323622026480734,-0.0167694091796875,0.01889885775744915
18476974050950,2.823961019515991,-8.328230857849121,4.716577529907227,-0.0026618109550327063,-0.01224433071911335,0.01943122036755085
18476975288137,2.827552318572998,-8.356961250305176,4.637568950653076,-0.0029279920272529125,-0.015438503585755825,0.02076212503015995
18476976525275,2.8670566082000732,-8.370129585266113,4.680664539337158,-0.0002661811013240367,-0.014906140975654125,0.0186326764523983
18476977762437,2.8802247047424316,-8.344989776611328,4.685452938079834,0.0018632676219567657,-0.01357523538172245,0.0173017717897892
18476978999612,2.8622682094573975,-8.370129585266113,4.668693542480469,0.0021294488105922937,-0.014906140975654125,0.0173017717897892
18476980236775,2.8658595085144043,-8.367734909057617,4.639963150024414,-0.004791259765625,-0.010913425125181675,0.0167694091796875
18476981473937,2.9029695987701416,-8.323442459106445,4.680664539337158,-0.005589802749454975,-0.008517795242369175,0.01703559048473835
18476982711100,2.889801502227783,-8.349778175354004,4.6722846031188965,-0.0002661811013240367,-0.013042873702943325,0.01463996060192585
18476983948250,2.875436305999756,-8.323442459106445,4.625597953796387,-0.0031941730994731188,-0.010381062515079975,0.0173017717897892
18476985185437,2.869450807571411,-8.282740592956543,4.64594841003418,0.0005323622026480734,-0.01171196810901165,0.01996358297765255
18476986422600,2.868253707885742,-8.31865406036377,4.655525207519531,-0.003460354171693325,-0.014373779296875,0.0186326764523983
18476987659787,2.874239206314087,-8.346187591552734,4.618414878845215,-0.004791259765625,-0.010913425125181675,0.01783413253724575
18476988896925,2.875436305999756,-8.323442459106445,4.655525207519531,-0.0026618109550327063,-0.00931633822619915,0.012776692397892475
18476990134087,2.831143617630005,-8.3521728515625,4.67946720123291,-0.0013309054775163531,-0.012776692397892475,0.01756795309484005
18476991371237,2.846705913543701,-8.3306245803833,4.649539947509766,0.003460354171693325,-0.02369011752307415,0.0186326764523983
18476992608425,2.873042106628418,-8.327033996582031,4.6327805519104,0.0010647244052961469,-0.01357523538172245,0.0191650390625
18476993845587,2.8814218044281006,-8.301894187927246,4.677073001861572,0.0023956298828125,-0.0053236219100654125,0.02022976242005825
18476995082737,2.852691411972046,-8.324639320373535,4.631583213806152,-0.0010647244052961469,-0.008783976547420025,0.01703559048473835
18476996319912,2.832340717315674,-8.286332130432129,4.681861400604248,0.0002661811013240367,-0.013309055007994175,0.013042873702943325
18476997557075,2.850297212600708,-8.322245597839355,4.661510944366455,0.0007985432748682797,-0.0090501569211483,0.01943122036755085
18476998794237,2.8347349166870117,-8.32104778289795,4.638765811920166,-0.0005323622026480734,-0.0090501569211483,0.01703559048473835
18477000031412,2.8119900226593018,-8.312668800354004,4.699818134307861,0.0023956298828125,-0.01117960549890995,0.01650322787463665
18477001268575,2.8646624088287354,-8.31745719909668,4.717774391174316,0.0029279920272529125,-0.00958251953125,0.0186326764523983
18477002505737,2.84790301322937,-8.342596054077148,4.662707805633545,0.0010647244052961469,-0.00958251953125,0.0181003138422966
18477003742912,2.8215668201446533,-8.347384452819824,4.666299343109131,0.0010647244052961469,-0.00931633822619915,0.010381062515079975
18477004980062,2.829946517944336,-8.322245597839355,4.64594841003418,0.0015970865497365594,-0.00931633822619915,0.008517795242369175
18477006217225,2.8203697204589844,-8.379706382751465,4.64594841003418,0.0010647244052961469,-0.010381062515079975,0.0138414166867733
18477007454387,2.8359320163726807,-8.38688850402832,4.656722545623779,-0.0029279920272529125,-0.0077192517928779125,0.01224433071911335
18477008691575,2.8347349166870117,-8.360552787780762,4.614823818206787,-0.0031941730994731188,-0.008251613937318325,0.007453070487827063
18477009928725,2.8383262157440186,-8.407238960266113,4.6507368087768555,0.0007985432748682797,-0.007453070487827063,0.0090501569211483
18477011165887,2.8431146144866943,-8.40843677520752,4.637568950653076,-0.0015970865497365594,-0.013309055007994175,0.012776692397892475
18477012403050,2.8191726207733154,-8.434772491455078,4.668693542480469,0.0013309054775163531,-0.0053236219100654125,0.013309055007994175
18477013640212,2.808398723602295,-8.44434928894043,4.6507368087768555,-0.0013309054775163531,-0.0063883461989462376,0.010913425125181675
18477014877387,2.784456491470337,-8.394071578979492,4.635174751281738,-0.006122165359556675,-0.0063883461989462376,0.0138414166867733
18477016114562,2.855085611343384,-8.451532363891602,4.616020679473877,-0.0021294488105922937,-0.00692070834338665,0.014373779296875
18477017351712,2.827552318572998,-8.427590370178223,4.614823818206787,0.0002661811013240367,-0.007453070487827063,0.01463996060192585
18477018588875,2.8419175148010254,-8.44195556640625,4.6722846031188965,-0.0018632676219567657,-0.00452507846057415,0.0162370465695858
18477019826050,2.8335378170013428,-8.432378768920898,4.660313606262207,-0.0002661811013240367,-0.0053236219100654125,0.014906140975654125
18477021063200,2.8143842220306396,-8.431180953979492,4.671087741851807,-0.0053236219100654125,-0.0053236219100654125,0.0063883461989462376
18477022300362,2.8347349166870117,-8.449137687683105,4.692635536193848,-0.00452507846057415,-0.003460354171693325,0.0138414166867733
18477023537537,2.826355218887329,-8.416815757751465,4.593276023864746,-0.0042588976211845875,-0.007453070487827063,0.015438503585755825
18477024774700,2.804807424545288,-8.4108304977417,4.655525207519531,-0.003460354171693325,-0.0066545275039970875,0.01836649514734745
18477026011875,2.823961019515991,-8.402450561523438,4.623203754425049,-0.0031941730994731188,-0.0063883461989462376,0.0186326764523983
18477027249037,2.8419175148010254,-8.414422035217285,4.649539947509766,-0.005057440605014563,-0.0053236219100654125,0.0204959437251091
18477028486200,2.8419175148010254,-8.389283180236816,4.641160011291504,-0.0071868896484375,-0.0053236219100654125,0.0204959437251091
18477029723375,2.846705913543701,-8.355764389038086,4.626794815063477,-0.006122165359556675,-0.0066545275039970875,0.0252872034907341
18477030960525,2.8359320163726807,-8.376114845275879,4.620809078216553,-0.0029279920272529125,-0.00958251953125,0.01996358297765255
18477032197700,2.8203697204589844,-8.401253700256348,4.619612216949463,-0.008783976547420025,-0.0039927163161337376,0.01597086526453495
18477033434850,2.846705913543701,-8.378508567810059,4.656722545623779,-0.008783976547420025,-0.0039927163161337376,0.02262539230287075
18477034672000,2.8610711097717285,-8.382100105285645,4.638765811920166,-0.0029279920272529125,-0.0026618109550327063,0.0228915736079216
18477035909175,2.8215668201446533,-8.371326446533203,4.641160011291504,-0.008783976547420025,-0.0053236219100654125,0.0196974016726017
18477037146325,2.8419175148010254,-8.35456657409668,4.619612216949463,-0.007985432632267475,-0.005057440605014563,0.02422248013317585
18477038383512,2.9005753993988037,-8.359354972839355,4.657919406890869,-0.0066545275039970875,-0.0037265352439135313,0.02661811001598835
18477039620675,2.8179755210876465,-8.359354972839355,4.613626480102539,-0.01171196810901165,0.0002661811013240367,0.02661811001598835
18477040857837,2.8203697204589844,-8.382100105285645,4.581305027008057,-0.00931633822619915,-0.005057440605014563,0.0252872034907341
18477042095012,2.8215668201446533,-8.392873764038086,4.625597953796387,-0.007453070487827063,-0.0114457868039608,0.0282151959836483
18477043332162,2.8155813217163086,-8.374917984008789,4.6291890144348145,-0.0119781494140625,-0.0031941730994731188,0.02315775491297245
18477044569312,2.84790301322937,-8.339004516601562,4.639963150024414,-0.00931633822619915,-0.0010647244052961469,0.0244886614382267
18477045806487,2.875436305999756,-8.35097599029541,4.653131008148193,-0.005589802749454975,-0.005855984054505825,0.0244886614382267
18477047043650,2.8574798107147217,-8.349778175354004,4.576516628265381,-0.00958251953125,-0.00931633822619915,0.0234239362180233
18477048280812,2.80241322517395,-8.316259384155273,4.635174751281738,-0.0114457868039608,-0.0010647244052961469,0.023956298828125
18477049517987,2.809595823287964,-8.377311706542969,4.622006416320801,-0.0077192517928779125,-0.0029279920272529125,0.0215606689453125
18477050755137,2.8347349166870117,-8.333019256591797,4.608838081359863,-0.008783976547420025,-0.0026618109550327063,0.0210283063352108
18477051992300,2.8670566082000732,-8.336610794067383,4.666299343109131,-0.010381062515079975,-0.0039927163161337376,0.0223592109978199
18477053229487,2.8215668201446533,-8.299500465393066,4.642357349395752,-0.010114881210029125,-0.008517795242369175,0.0223592109978199
18477054466637,2.8574798107147217,-8.315062522888184,4.656722545623779,-0.0090501569211483,-0.006122165359556675,0.02315775491297245
18477055703800,2.851494312286377,-8.322245597839355,4.590881824493408,-0.0077192517928779125,-0.00452507846057415,0.0220930315554142
18477056940987,2.8574798107147217,-8.322245597839355,4.631583213806152,-0.0029279920272529125,-0.0037265352439135313,0.01703559048473835
18477058178137,2.855085611343384,-8.307880401611328,4.638765811920166,-0.0042588976211845875,-0.0042588976211845875,0.0181003138422966
18477059415300,2.8874073028564453,-8.325836181640625,4.654328346252441,-0.0066545275039970875,-0.008783976547420025,0.0204959437251091
18477060652450,2.8670566082000732,-8.358158111572266,4.642357349395752,-0.006122165359556675,-0.00692070834338665,0.0210283063352108
18477061889637,2.8335378170013428,-8.377311706542969,4.627992153167725,-0.00452507846057415,-0.0039927163161337376,0.01889885775744915
18477063126775,2.823961019515991,-8.35336971282959,4.648342609405518,-0.008783976547420025,-0.005057440605014563,0.0186326764523983
18477064363962,2.8622682094573975,-8.35456657409668,4.622006416320801,-0.008251613937318325,-0.00931633822619915,0.0173017717897892
18477065601125,2.8431146144866943,-8.379706382751465,4.641160011291504,-0.010114881210029125,-0.0077192517928779125,0.010114881210029125
18477066838300,2.850297212600708,-8.335412979125977,4.6303863525390625,-0.0119781494140625,-0.0053236219100654125,0.01463996060192585
18477068075450,2.8646624088287354,-8.3306245803833,4.642357349395752,-0.008251613937318325,-0.005855984054505825,0.012510511092841625
18477069312612,2.8215668201446533,-8.331822395324707,4.647145748138428,-0.01171196810901165,-0.00984870083630085,0.012776692397892475
18477070549775,2.8634653091430664,-8.355764389038086,4.666299343109131,-0.0066545275039970875,-0.007453070487827063,0.008783976547420025
18477071786962,2.8610711097717285,-8.341399192810059,4.662707805633545,-0.008517795242369175,-0.0029279920272529125,0.0090501569211483
18477073024112,2.832340717315674,-8.31745719909668,4.626794815063477,-0.010913425125181675,-0.010381062515079975,0.00931633822619915
18477074261287,2.8455088138580322,-8.355764389038086,4.659116744995117,-0.0090501569211483,-0.0029279920272529125,0.005855984054505825
18477075498437,2.8778305053710938,-8.306682586669922,4.631583213806152,-0.005057440605014563,-0.0066545275039970875,0.005057440605014563
18477076735600,2.855085611343384,-8.325836181640625,4.689043998718262,-0.005057440605014563,-0.00958251953125,0.0037265352439135313
18477077972762,2.808398723602295,-8.347384452819824,4.6303863525390625,-0.008783976547420025,-0.007453070487827063,0.0037265352439135313
18477079209937,2.8179755210876465,-8.307880401611328,4.653131008148193,-0.0071868896484375,-0.007453070487827063,0.0039927163161337376
18477080447087,2.8371291160583496,-8.29710578918457,4.64475154876709,-0.0053236219100654125,-0.008251613937318325,0.006122165359556675
18477081684275,2.810792922973633,-8.259995460510254,4.654328346252441,-0.00692070834338665,-0.00692070834338665,0.0021294488105922937
18477082921425,2.8191726207733154,-8.301894187927246,4.657919406890869,-0.0023956298828125,-0.0029279920272529125,0.0013309054775163531
18477084158600,2.827552318572998,-8.28393840789795,4.6722846031188965,-0.005855984054505825,-0.0066545275039970875,-0.0023956298828125
18477085395762,2.8347349166870117,-8.304288864135742,4.631583213806152,-0.0013309054775163531,-0.008251613937318325,0.0002661811013240367
18477086632925,2.8227639198303223,-8.282740592956543,4.64594841003418,-0.0002661811013240367,-0.0039927163161337376,-0.00452507846057415
18477087870087,2.8347349166870117,-8.289923667907715,4.63397741317749,-0.0002661811013240367,-0.00452507846057415,-0.0031941730994731188
18477089107237,2.8670566082000732,-8.254010200500488,4.649539947509766,-0.0015970865497365594,-0.008251613937318325,-0.0023956298828125
18477090344425,2.87064790725708,-8.287528991699219,4.620809078216553,-0.0002661811013240367,-0.008517795242369175,-0.0031941730994731188
18477091581575,2.852691411972046,-8.26478385925293,4.60165548324585,0.0002661811013240367,-0.0018632676219567657,0.0
18477092818750,2.82515811920166,-8.277952194213867,4.669890403747559,0.0018632676219567657,-0.0039927163161337376,-0.0015970865497365594
18477094055912,2.80241322517395,-8.219294548034668,4.639963150024414,0.0013309054775163531,-0.005855984054505825,-0.005057440605014563
18477095293075,2.8455088138580322,-8.282740592956543,4.6040496826171875,0.0018632676219567657,-0.008251613937318325,-0.0031941730994731188
18477096530225,2.786850690841675,-8.265981674194336,4.617218017578125,0.003460354171693325,-0.010647243820130825,0.0005323622026480734
18477097767400,2.832340717315674,-8.246828079223633,4.637568950653076,0.00452507846057415,-0.0053236219100654125,-0.003460354171693325
18477099004575,2.8574798107147217,-8.282740592956543,4.587290287017822,0.008251613937318325,-0.0119781494140625,0.0002661811013240367
18477100241737,2.8455088138580322,-8.280346870422363,4.60165548324585,0.00984870083630085,-0.00452507846057415,0.0
18477101478900,2.8131871223449707,-8.276755332946777,4.60045862197876,0.008251613937318325,-0.005057440605014563,-0.0029279920272529125
18477102716075,2.8359320163726807,-8.238448143005371,4.611232280731201,0.00452507846057415,-0.0039927163161337376,-0.0063883461989462376
18477103953212,2.868253707885742,-8.29590892791748,4.64475154876709,0.0090501569211483,-0.00452507846057415,-0.00452507846057415
18477105190387,2.8586769104003906,-8.29471206665039,4.662707805633545,0.010381062515079975,-0.007985432632267475,-0.0013309054775163531
18477106427537,2.8227639198303223,-8.243236541748047,4.616020679473877,0.01224433071911335,-0.006122165359556675,-0.004791259765625
18477107664725,2.8395233154296875,-8.221688270568848,4.631583213806152,0.01410759799182415,-0.005589802749454975,-0.0026618109550327063
18477108901875,2.876633405685425,-8.269572257995605,4.653131008148193,0.01117960549890995,-0.0053236219100654125,0.0
18477110139025,2.874239206314087,-8.299500465393066,4.638765811920166,0.0119781494140625,-0.0029279920272529125,-0.0002661811013240367
18477111376225,2.785653591156006,-8.286332130432129,4.642357349395752,0.015172322280704975,-0.0021294488105922937,0.0007985432748682797
18477112613362,2.803610324859619,-8.2935152053833,4.661510944366455,0.0173017717897892,-0.0039927163161337376,-0.0021294488105922937
18477113850550,2.8431146144866943,-8.29590892791748,4.653131008148193,0.0157046839594841,-0.0039927163161337376,-0.0026618109550327063
18477115087675,2.827552318572998,-8.333019256591797,4.649539947509766,0.015438503585755825,-0.0026618109550327063,-0.0013309054775163531
18477116324862,2.827552318572998,-8.303092002868652,4.6722846031188965,0.0186326764523983,-0.003460354171693325,0.0013309054775163531
18477117562025,2.7928361892700195,-8.331822395324707,4.665102005004883,0.0196974016726017,-0.0026618109550327063,-0.0007985432748682797
18477118799187,2.831143617630005,-8.327033996582031,4.67827033996582,0.0186326764523983,-0.0026618109550327063,0.0005323622026480734
18477120036350,2.8814218044281006,-8.3521728515625,4.703409194946289,0.01889885775744915,0.0007985432748682797,0.0039927163161337376
18477121273537,2.808398723602295,-8.390480041503906,4.641160011291504,0.01703559048473835,0.0037265352439135313,0.0037265352439135313
18477122510700,2.8179755210876465,-8.358158111572266,4.680664539337158,0.01836649514734745,0.0029279920272529125,0.0023956298828125
18477123747850,2.8407204151153564,-8.368931770324707,4.677073001861572,0.01943122036755085,-0.0002661811013240367,0.0
18477124985012,2.8335378170013428,-8.380903244018555,4.669890403747559,0.0167694091796875,-0.0021294488105922937,-0.0005323622026480734
18477126222175,2.7892448902130127,-8.383296966552734,4.623203754425049,0.0173017717897892,-0.0007985432748682797,0.0021294488105922937
18477127459350,2.846705913543701,-8.390480041503906,4.602852821350098,0.01836649514734745,0.0005323622026480734,0.0023956298828125
18477128696487,2.8574798107147217,-8.402450561523438,4.677073001861572,0.01756795309484005,0.0010647244052961469,0.0039927163161337376
18477129933687,2.8443117141723633,-8.366538047790527,4.616020679473877,0.02022976242005825,0.0039927163161337376,0.0023956298828125
18477131170825,2.8155813217163086,-8.348581314086914,4.656722545623779,0.0191650390625,0.0037265352439135313,0.0018632676219567657
18477132408012,2.8395233154296875,-8.397662162780762,4.666299343109131,0.0138414166867733,0.0007985432748682797,0.0114457868039608
18477133645187,2.851494312286377,-8.389283180236816,4.712985992431641,0.015172322280704975,-0.0007985432748682797,0.004791259765625
18477134882337,2.8670566082000732,-8.383296966552734,4.665102005004883,0.0162370465695858,0.0015970865497365594,0.0042588976211845875
18477136119500,2.849100112915039,-8.377311706542969,4.6519341468811035,0.0162370465695858,-0.0015970865497365594,0.0021294488105922937
18477137356650,2.8586769104003906,-8.40843677520752,4.647145748138428,0.0162370465695858,0.0039927163161337376,0.0
18477138593825,2.850297212600708,-8.42160415649414,4.686649799346924,0.0167694091796875,0.0031941730994731188,0.006122165359556675
18477139830987,2.853888511657715,-8.392873764038086,4.6722846031188965,0.0157046839594841,0.0026618109550327063,0.0063883461989462376
18477141068150,2.855085611343384,-8.406042098999023,4.729745388031006,0.01597086526453495,0.0013309054775163531,0.0066545275039970875
18477142305337,2.8359320163726807,-8.395268440246582,4.639963150024414,0.00984870083630085,0.0021294488105922937,0.008783976547420025
18477143542475,2.849100112915039,-8.432378768920898,4.655525207519531,0.007985432632267475,0.004791259765625,0.0023956298828125
18477144779637,2.8562827110290527,-8.432378768920898,4.657919406890869,0.010913425125181675,0.007985432632267475,0.0026618109550327063
18477146016825,2.8778305053710938,-8.374917984008789,4.671087741851807,0.010913425125181675,0.0023956298828125,0.004791259765625
18477147253975,2.9089550971984863,-8.349778175354004,4.698620796203613,0.0018632676219567657,0.0042588976211845875,0.0037265352439135313
18477148491137,2.9041666984558105,-8.427590370178223,4.671087741851807,0.0090501569211483,0.0063883461989462376,0.0053236219100654125
18477149728300,2.8670566082000732,-8.394071578979492,4.662707805633545,0.012510511092841625,0.00452507846057415,0.008251613937318325
18477150965475,2.8850131034851074,-8.38808536529541,4.647145748138428,0.008517795242369175,0.008517795242369175,0.008251613937318325
18477152202637,2.873042106628418,-8.356961250305176,4.717774391174316,0.0063883461989462376,0.008251613937318325,0.0042588976211845875
18477153439800,2.8850131034851074,-8.418013572692871,4.638765811920166,0.0039927163161337376,0.008783976547420025,-0.0029279920272529125
18477154676962,2.8610711097717285,-8.38808536529541,4.6950297355651855,0.006122165359556675,0.00931633822619915,-0.0018632676219567657
18477155914137,2.851494312286377,-8.362946510314941,4.665102005004883,0.008783976547420025,0.008517795242369175,0.008251613937318325
18477157151287,2.9005753993988037,-8.40963363647461,4.667496204376221,0.0039927163161337376,0.004791259765625,0.008251613937318325
18477158388462,2.9041666984558105,-8.403648376464844,4.665102005004883,0.0007985432748682797,0.0077192517928779125,0.00452507846057415
18477159625612,2.855085611343384,-8.395268440246582,4.683058738708496,0.004791259765625,0.008783976547420025,0.0063883461989462376
18477160862787,2.9065608978271484,-8.415618896484375,4.680664539337158,0.0053236219100654125,0.00958251953125,0.004791259765625
18477162099962,2.849100112915039,-8.372523307800293,4.711789131164551,0.005855984054505825,0.01224433071911335,0.005057440605014563
18477163337125,2.936488389968872,-8.358158111572266,4.665102005004883,0.008517795242369175,0.0063883461989462376,0.005855984054505825
18477164574275,2.8455088138580322,-8.389283180236816,4.6734819412231445,0.007985432632267475,0.008517795242369175,0.005855984054505825
18477165811437,2.874239206314087,-8.371326446533203,4.707000732421875,0.003460354171693325,0.0071868896484375,0.007985432632267475
18477167048612,2.8646624088287354,-8.328230857849121,4.732139587402344,0.0026618109550327063,0.0071868896484375,0.007453070487827063
18477168285775,2.8646624088287354,-8.35097599029541,4.697423934936523,0.0023956298828125,0.0071868896484375,0.010647243820130825
18477169522950,2.8598740100860596,-8.366538047790527,4.674678802490234,-0.0015970865497365594,0.0138414166867733,0.0039927163161337376
18477170760112,2.8658595085144043,-8.336610794067383,4.716577529907227,0.0010647244052961469,0.0039927163161337376,0.007453070487827063
18477171997262,2.889801502227783,-8.390480041503906,4.714183330535889,0.0023956298828125,0.007985432632267475,0.00958251953125
18477173234437,2.9221231937408447,-8.362946510314941,4.701014995574951,-0.0013309054775163531,0.008251613937318325,0.0090501569211483
18477174471600,2.8814218044281006,-8.394071578979492,4.687847137451172,-0.0026618109550327063,0.006122165359556675,0.007453070487827063
18477175708775,2.876633405685425,-8.374917984008789,4.660313606262207,-0.0018632676219567657,0.0119781494140625,0.00931633822619915
18477176945912,2.913743495941162,-8.383296966552734,4.671087741851807,-0.0005323622026480734,0.005589802749454975,0.01410759799182415
18477178183100,2.8670566082000732,-8.365341186523438,4.6950297355651855,0.0013309054775163531,0.0039927163161337376,0.012510511092841625
18477179420262,2.869450807571411,-8.391676902770996,4.701014995574951,0.0013309054775163531,0.0066545275039970875,0.0119781494140625
18477180657425,2.8646624088287354,-8.379706382751465,4.649539947509766,0.0007985432748682797,0.0023956298828125,0.010381062515079975
18477181894575,2.89339280128479,-8.371326446533203,4.680664539337158,0.0007985432748682797,0.0053236219100654125,0.01463996060192585
18477183131750,2.8802247047424316,-8.358158111572266,4.626794815063477,0.0007985432748682797,0.008517795242369175,0.01357523538172245
18477184368912,2.8455088138580322,-8.374917984008789,4.669890403747559,-0.0007985432748682797,0.005057440605014563,0.0090501569211483
18477185606075,2.936488389968872,-8.325836181640625,4.6950297355651855,-0.004791259765625,0.0013309054775163531,0.0119781494140625
18477186843237,2.871845006942749,-8.359354972839355,4.669890403747559,-0.0007985432748682797,0.0029279920272529125,0.0173017717897892
18477188080400,2.8790276050567627,-8.35456657409668,4.702212333679199,-0.0029279920272529125,0.0071868896484375,0.01703559048473835
18477189317562,2.9316999912261963,-8.32104778289795,4.6914381980896,0.0,0.004791259765625,0.0204959437251091
18477190554750,2.9305028915405273,-8.337807655334473,4.687847137451172,0.0023956298828125,0.004791259765625,0.0173017717897892
18477191791912,2.9484593868255615,-8.347384452819824,4.663905143737793,-0.0007985432748682797,0.0042588976211845875,0.0167694091796875
18477193029062,2.9161376953125,-8.35336971282959,4.7189717292785645,0.00452507846057415,-0.0005323622026480734,0.0196974016726017
18477194266225,2.895787000656128,-8.31865406036377,4.649539947509766,0.0063883461989462376,0.0039927163161337376,0.01836649514734745
18477195503400,2.911349296569824,-8.370129585266113,4.6291890144348145,0.0029279920272529125,0.0023956298828125,0.0234239362180233
18477196740575,2.8790276050567627,-8.341399192810059,4.697423934936523,0.0053236219100654125,-0.0010647244052961469,0.0220930315554142
18477197977725,2.8886044025421143,-8.391676902770996,4.698620796203613,0.0031941730994731188,-0.003460354171693325,0.02262539230287075
18477199214887,2.9077579975128174,-8.372523307800293,4.720168590545654,0.0010647244052961469,0.0005323622026480734,0.02182685025036335
18477200452062,2.912546396255493,-8.38688850402832,4.6327805519104,0.005057440605014563,0.005855984054505825,0.0228915736079216
18477201689212,2.894589900970459,-8.412027359008789,4.659116744995117,0.006122165359556675,0.0026618109550327063,0.0244886614382267
18477202926375,2.895787000656128,-8.378508567810059,4.659116744995117,0.005589802749454975,-0.0042588976211845875,0.0263519287109375
18477204163550,2.898181200027466,-8.392873764038086,4.659116744995117,0.0026618109550327063,-0.0021294488105922937,0.023956298828125
18477205400725,2.8874073028564453,-8.392873764038086,4.677073001861572,0.0026618109550327063,0.0007985432748682797,0.0268842913210392
18477206637887,2.9328970909118652,-8.378508567810059,4.64594841003418,0.0066545275039970875,-0.0039927163161337376,0.02901373989880085
18477207875062,2.874239206314087,-8.402450561523438,4.660313606262207,0.0002661811013240367,0.0010647244052961469,0.0223592109978199
18477209112212,2.852691411972046,-8.364143371582031,4.638765811920166,0.0010647244052961469,-0.0010647244052961469,0.0271504707634449
18477210349375,2.8778305053710938,-8.365341186523438,4.675876140594482,-0.0015970865497365594,-0.0042588976211845875,0.0268842913210392
18477211586525,2.8850131034851074,-8.335412979125977,4.681861400604248,-0.0002661811013240367,-0.0042588976211845875,0.02661811001598835
18477212823700,2.941276788711548,-8.3306245803833,4.663905143737793,0.0005323622026480734,-0.0037265352439135313,0.0292799212038517
18477214060862,2.9328970909118652,-8.35097599029541,4.639963150024414,0.0010647244052961469,-0.0015970865497365594,0.0300784632563591
18477215298037,2.911349296569824,-8.355764389038086,4.647145748138428,-0.0005323622026480734,-0.0042588976211845875,0.0292799212038517
18477216535200,2.9281086921691895,-8.355764389038086,4.619612216949463,0.0023956298828125,-0.010114881210029125,0.0295461006462574
18477217772362,2.8838160037994385,-8.355764389038086,4.623203754425049,0.0031941730994731188,-0.0090501569211483,0.02794901467859745
18477219009512,2.868253707885742,-8.383296966552734,4.637568950653076,-0.0005323622026480734,-0.004791259765625,0.02315775491297245
18477220246700,2.894589900970459,-8.392873764038086,4.6734819412231445,-0.0010647244052961469,-0.0013309054775163531,0.02076212503015995
18477221483875,2.7940332889556885,-8.364143371582031,4.6734819412231445,-0.0018632676219567657,-0.0066545275039970875,0.023956298828125
18477222721012,2.829946517944336,-8.373720169067383,4.642357349395752,0.0021294488105922937,-0.010647243820130825,0.02981228195130825
18477223958175,2.855085611343384,-8.371326446533203,4.611232280731201,0.0021294488105922937,-0.010647243820130825,0.02901373989880085
18477225195362,2.8191726207733154,-8.403648376464844,4.608838081359863,0.0021294488105922937,-0.00984870083630085,0.0181003138422966
18477226432537,2.804807424545288,-8.377311706542969,4.64475154876709,-0.0007985432748682797,-0.007985432632267475,0.0215606689453125
18477227669675,2.8012161254882812,-8.365341186523438,4.594472885131836,0.0015970865497365594,-0.007453070487827063,0.02129448764026165
18477228906862,2.8574798107147217,-8.391676902770996,4.663905143737793,0.0010647244052961469,-0.01357523538172245,0.02129448764026165
18477230144012,2.869450807571411,-8.400056838989258,4.626794815063477,-0.005855984054505825,-0.01463996060192585,0.01889885775744915
18477231381187,2.850297212600708,-8.389283180236816,4.63397741317749,-0.0029279920272529125,-0.0077192517928779125,0.02076212503015995
18477232618325,2.851494312286377,-8.346187591552734,4.648342609405518,0.0002661811013240367,-0.010647243820130825,0.01836649514734745
18477233855512,2.8419175148010254,-8.391676902770996,4.657919406890869,-0.005057440605014563,-0.01117960549890995,0.01224433071911335
18477235092687,2.8383262157440186,-8.378508567810059,4.642357349395752,-0.0114457868039608,-0.00984870083630085,0.007985432632267475
18477236329837,2.8562827110290527,-8.361749649047852,4.67827033996582,-0.0042588976211845875,-0.01117960549890995,0.01171196810901165
18477237567012,2.8395233154296875,-8.371326446533203,4.612429618835449,-0.003460354171693325,-0.00692070834338665,0.014373779296875
18477238804162,2.8383262157440186,-8.373720169067383,4.648342609405518,-0.007453070487827063,-0.010114881210029125,0.014373779296875
18477240041325,2.8610711097717285,-8.337807655334473,4.685452938079834,-0.00931633822619915,-0.013042873702943325,0.012510511092841625
18477241278500,2.8215668201446533,-8.3306245803833,4.660313606262207,-0.0039927163161337376,-0.013309055007994175,0.0090501569211483
18477242515662,2.875436305999756,-8.347384452819824,4.6507368087768555,-0.003460354171693325,-0.0114457868039608,0.010647243820130825
18477243752837,2.826355218887329,-8.291120529174805,4.67946720123291,-0.01117960549890995,-0.0119781494140625,0.007985432632267475
18477244989987,2.9089550971984863,-8.310274124145508,4.667496204376221,-0.008517795242369175,-0.012776692397892475,0.00452507846057415
18477246227150,2.875436305999756,-8.3306245803833,4.669890403747559,-0.0090501569211483,-0.00984870083630085,0.010114881210029125
18477247464312,2.8335378170013428,-8.309077262878418,4.674678802490234,-0.005589802749454975,-0.012510511092841625,0.00958251953125
18477248701487,2.8335378170013428,-8.286332130432129,4.659116744995117,-0.008251613937318325,-0.010381062515079975,0.008783976547420025
18477249938662,2.8347349166870117,-8.26358699798584,4.674678802490234,-0.0026618109550327063,-0.014373779296875,0.00958251953125
18477251175825,2.849100112915039,-8.256404876708984,4.63397741317749,-0.005589802749454975,-0.01171196810901165,0.008251613937318325
18477252413000,2.8347349166870117,-8.288726806640625,4.613626480102539,-0.00452507846057415,-0.008783976547420025,0.008783976547420025
18477253650162,2.82515811920166,-8.311470985412598,4.6734819412231445,-0.0005323622026480734,-0.01117960549890995,0.0053236219100654125
18477254887312,2.8335378170013428,-8.304288864135742,4.685452938079834,-0.0026618109550327063,-0.010381062515079975,0.005057440605014563
18477256124487,2.7940332889556885,-8.29471206665039,4.641160011291504,-0.00452507846057415,-0.00692070834338665,0.0010647244052961469
18477257361650,2.850297212600708,-8.269572257995605,4.6722846031188965,-0.0007985432748682797,-0.00984870083630085,0.0029279920272529125
18477258598812,2.8407204151153564,-8.265981674194336,4.626794815063477,-0.0013309054775163531,-0.013042873702943325,0.008251613937318325
18477259835975,2.8383262157440186,-8.242039680480957,4.623203754425049,0.00452507846057415,-0.0114457868039608,0.007985432632267475
18477261073137,2.7892448902130127,-8.31985092163086,4.638765811920166,0.0042588976211845875,-0.01597086526453495,0.0119781494140625
18477262310312,2.8419175148010254,-8.303092002868652,4.623203754425049,0.0042588976211845875,-0.0071868896484375,0.00984870083630085
18477263547487,2.7952303886413574,-8.306682586669922,4.643554210662842,0.00452507846057415,-0.0039927163161337376,0.0029279920272529125
18477264784650,2.828749418258667,-8.274361610412598,4.671087741851807,0.0,-0.010381062515079975,0.007985432632267475
18477266021800,2.876633405685425,-8.299500465393066,4.659116744995117,0.0023956298828125,-0.015172322280704975,0.008251613937318325
18477267258975,2.846705913543701,-8.28393840789795,4.662707805633545,0.0029279920272529125,-0.010913425125181675,0.003460354171693325
18477268496125,2.738966703414917,-8.298303604125977,4.674678802490234,0.003460354171693325,-0.0029279920272529125,0.0039927163161337376
18477269733287,2.760514497756958,-8.301894187927246,4.665102005004883,0.0039927163161337376,-0.005589802749454975,0.0042588976211845875
18477270970462,2.8179755210876465,-8.270770072937012,4.6519341468811035,0.0037265352439135313,-0.010381062515079975,0.0018632676219567657
18477272207637,2.829946517944336,-8.279150009155273,4.708197593688965,0.0066545275039970875,-0.0077192517928779125,0.005855984054505825
18477273444800,2.783259391784668,-8.273163795471191,4.638765811920166,0.0053236219100654125,-0.010913425125181675,0.006122165359556675
18477274681962,2.804807424545288,-8.329427719116211,4.6734819412231445,0.007985432632267475,-0.00984870083630085,0.006122165359556675
18477275919125,2.785653591156006,-8.304288864135742,4.666299343109131,0.007453070487827063,-0.00452507846057415,0.0039927163161337376
18477277156300,2.8131871223449707,-8.28393840789795,4.667496204376221,0.005057440605014563,-0.0029279920272529125,0.00452507846057415
18477278393450,2.756923198699951,-8.325836181640625,4.692635536193848,0.010114881210029125,-0.007985432632267475,0.007985432632267475
18477279630625,2.783259391784668,-8.341399192810059,4.671087741851807,0.008783976547420025,-0.005057440605014563,0.0018632676219567657
18477280867800,2.7533318996429443,-8.333019256591797,4.686649799346924,0.0063883461989462376,-0.0042588976211845875,0.0007985432748682797
18477282104962,2.765302896499634,-8.300697326660156,4.649539947509766,0.0114457868039608,-0.005057440605014563,0.008517795242369175
18477283342125,2.804807424545288,-8.327033996582031,4.683058738708496,0.010647243820130825,-0.0021294488105922937,0.008251613937318325
18477284579287,2.7952303886413574,-8.336610794067383,4.656722545623779,0.00958251953125,-0.0021294488105922937,0.0026618109550327063
18477285816450,2.7676970958709717,-8.35456657409668,4.663905143737793,0.00984870083630085,-0.0015970865497365594,0.0021294488105922937
18477287053625,2.7533318996429443,-8.324639320373535,4.6303863525390625,0.0114457868039608,0.0,0.0018632676219567657
18477288290787,2.7736825942993164,-8.323442459106445,4.662707805633545,0.00958251953125,-0.0031941730994731188,0.0021294488105922937
18477289527937,2.8407204151153564,-8.358158111572266,4.655525207519531,0.008783976547420025,-0.0010647244052961469,0.005057440605014563
18477290765100,2.806004524230957,-8.355764389038086,4.6734819412231445,0.013042873702943325,0.0002661811013240367,0.008783976547420025
18477292002275,2.7473464012145996,-8.311470985412598,4.675876140594482,0.010913425125181675,-0.0015970865497365594,0.0053236219100654125
18477293239437,2.806004524230957,-8.342596054077148,4.683058738708496,0.0077192517928779125,0.0015970865497365594,0.0031941730994731188
18477294476587,2.762908697128296,-8.38688850402832,4.697423934936523,0.010114881210029125,-0.0002661811013240367,0.0031941730994731188
18477295713762,2.8167784214019775,-8.395268440246582,4.659116744995117,0.006122165359556675,0.0015970865497365594,0.0
18477296950937,2.785653591156006,-8.361749649047852,4.687847137451172,0.005589802749454975,-0.0005323622026480734,-0.0005323622026480734
18477298188100,2.7964274883270264,-8.35456657409668,4.663905143737793,0.012776692397892475,-0.0029279920272529125,0.0077192517928779125
18477299425262,2.7712883949279785,-8.397662162780762,4.647145748138428,0.005855984054505825,0.0039927163161337376,0.0037265352439135313
18477300662437,2.765302896499634,-8.340201377868652,4.667496204376221,0.0077192517928779125,0.007453070487827063,0.0005323622026480734
18477301899587,2.807201623916626,-8.397662162780762,4.668693542480469,0.008783976547420025,0.00692070834338665,-0.005057440605014563
18477303136750,2.765302896499634,-8.3521728515625,4.677073001861572,0.007453070487827063,0.007453070487827063,0.0007985432748682797
18477304373912,2.7988219261169434,-8.358158111572266,4.654328346252441,0.00958251953125,0.0090501569211483,0.0018632676219567657
18477305611075,2.7688941955566406,-8.35336971282959,4.703409194946289,0.0090501569211483,0.0026618109550327063,0.0039927163161337376
18477306848262,2.7664999961853027,-8.374917984008789,4.657919406890869,0.0077192517928779125,0.007985432632267475,0.0031941730994731188
18477308085425,2.7449522018432617,-8.360552787780762,4.667496204376221,0.00984870083630085,0.0157046839594841,0.0029279920272529125
18477309322575,2.783259391784668,-8.38569164276123,4.680664539337158,0.007985432632267475,0.0114457868039608,0.0039927163161337376
18477310559750,2.7521347999572754,-8.402450561523438,4.704606533050537,0.01224433071911335,0.00958251953125,0.003460354171693325
18477311796912,2.8000190258026123,-8.361749649047852,4.6950297355651855,0.008783976547420025,0.014373779296875,0.0
18477313034087,2.783259391784668,-8.38449478149414,4.692635536193848,0.0029279920272529125,0.015172322280704975,-0.0002661811013240367
18477314271250,2.826355218887329,-8.418013572692871,4.675876140594482,0.0071868896484375,0.010647243820130825,0.0021294488105922937
18477315508412,2.8000190258026123,-8.401253700256348,4.708197593688965,0.0023956298828125,0.014373779296875,0.0
18477316745562,2.806004524230957,-8.389283180236816,4.7189717292785645,0.0037265352439135313,0.0162370465695858,-0.0013309054775163531
18477317982737,2.7964274883270264,-8.397662162780762,4.699818134307861,0.0037265352439135313,0.014373779296875,-0.0005323622026480734
18477319219900,2.8203697204589844,-8.422801971435547,4.703409194946289,0.0071868896484375,0.01597086526453495,0.0010647244052961469
18477320457075,2.8203697204589844,-8.404845237731934,4.707000732421875,0.0021294488105922937,0.02076212503015995,0.0010647244052961469
18477321694237,2.8371291160583496,-8.392873764038086,4.7189717292785645,0.0031941730994731188,0.0210283063352108,0.00452507846057415
18477322931412,2.7904419898986816,-8.376114845275879,4.687847137451172,0.0010647244052961469,0.0167694091796875,0.0018632676219567657
18477324168562,2.829946517944336,-8.402450561523438,4.686649799346924,-0.0026618109550327063,0.015172322280704975,0.0
18477325405725,2.804807424545288,-8.390480041503906,4.714183330535889,-0.0005323622026480734,0.01650322787463665,-0.0010647244052961469
18477326642887,2.8347349166870117,-8.401253700256348,4.716577529907227,-0.0007985432748682797,0.0191650390625,-0.0021294488105922937
18477327880062,2.8143842220306396,-8.374917984008789,4.72376012802124,-0.0031941730994731188,0.0191650390625,-0.0007985432748682797
18477329117212,2.8227639198303223,-8.383296966552734,4.6938323974609375,-0.0026618109550327063,0.02022976242005825,0.0002661811013240367
18477330354387,2.7988219261169434,-8.343792915344238,4.712985992431641,-0.0021294488105922937,0.0191650390625,0.0010647244052961469
18477331591550,2.782062292098999,-8.418013572692871,4.663905143737793,-0.0015970865497365594,0.015438503585755825,-0.005855984054505825
18477332828725,2.829946517944336,-8.407238960266113,4.709394931793213,-0.0018632676219567657,0.01650322787463665,-0.0021294488105922937
18477334065900,2.8227639198303223,-8.389283180236816,4.721365928649902,0.0002661811013240367,0.0196974016726017,0.0010647244052961469
18477335303037,2.7916390895843506,-8.404845237731934,4.709394931793213,-0.0002661811013240367,0.0244886614382267,0.0007985432748682797
18477336540212,2.806004524230957,-8.395268440246582,4.6722846031188965,-0.0010647244052961469,0.02182685025036335,0.0002661811013240367
18477337777362,2.8395233154296875,-8.367734909057617,4.667496204376221,-0.003460354171693325,0.0181003138422966,-0.0015970865497365594
18477339014550,2.846705913543701,-8.341399192810059,4.627992153167725,-0.00452507846057415,0.01836649514734745,-0.0005323622026480734
18477340251700,2.850297212600708,-8.359354972839355,4.708197593688965,-0.003460354171693325,0.01996358297765255,-0.0015970865497365594
18477341488875,2.8455088138580322,-8.337807655334473,4.681861400604248,-0.0039927163161337376,0.02422248013317585,0.0021294488105922937
18477342726025,2.804807424545288,-8.374917984008789,4.675876140594482,-0.00452507846057415,0.0196974016726017,0.0071868896484375
18477343963200,2.8586769104003906,-8.355764389038086,4.702212333679199,-0.0037265352439135313,0.023956298828125,0.0053236219100654125
18477345200362,2.8886044025421143,-8.316259384155273,4.684255599975586,0.0021294488105922937,0.0252872034907341,0.0
18477346437537,2.8778305053710938,-8.35097599029541,4.67827033996582,0.0,0.02369011752307415,0.0005323622026480734
18477347674700,2.8850131034851074,-8.306682586669922,4.67827033996582,-0.0029279920272529125,0.02262539230287075,-0.0005323622026480734
18477348911850,2.8431146144866943,-8.299500465393066,4.687847137451172,-0.005057440605014563,0.0228915736079216,0.0010647244052961469
18477350149025,2.853888511657715,-8.313865661621094,4.708197593688965,-0.0005323622026480734,0.01943122036755085,0.0077192517928779125
18477351386200,2.87064790725708,-8.310274124145508,4.667496204376221,-0.0002661811013240367,0.02262539230287075,0.0042588976211845875
18477352623337,2.874239206314087,-8.331822395324707,4.710591793060303,-0.007985432632267475,0.0210283063352108,0.0013309054775163531
18477353860537,2.826355218887329,-8.3306245803833,4.677073001861572,-0.006122165359556675,0.023956298828125,0.0018632676219567657
18477355097687,2.8670566082000732,-8.32104778289795,4.69024133682251,-0.0053236219100654125,0.0215606689453125,0.00452507846057415
18477356334850,2.8574798107147217,-8.279150009155273,4.7189717292785645,-0.0031941730994731188,0.0196974016726017,0.0066545275039970875
18477357572012,2.8646624088287354,-8.303092002868652,4.654328346252441,-0.007453070487827063,0.0210283063352108,0.0005323622026480734
18477358809187,2.875436305999756,-8.366538047790527,4.685452938079834,-0.005057440605014563,0.02076212503015995,0.0002661811013240367
18477360046350,2.855085611343384,-8.377311706542969,4.665102005004883,-0.0010647244052961469,0.0223592109978199,0.0015970865497365594
18477361283500,2.8359320163726807,-8.391676902770996,4.641160011291504,-0.0018632676219567657,0.02315775491297245,0.0037265352439135313
18477362520687,2.89339280128479,-8.322245597839355,4.707000732421875,-0.0039927163161337376,0.02262539230287075,0.0066545275039970875
18477363757850,2.869450807571411,-8.379706382751465,4.684255599975586,-0.0039927163161337376,0.0196974016726017,0.00931633822619915
18477364995000,2.9089550971984863,-8.35097599029541,4.692635536193848,-0.005057440605014563,0.01836649514734745,0.0053236219100654125
18477366232187,2.8598740100860596,-8.35456657409668,4.696226596832275,-0.0039927163161337376,0.0204959437251091,0.0021294488105922937
18477367469337,2.8802247047424316,-8.349778175354004,4.685452938079834,-0.005589802749454975,0.02182685025036335,0.0037265352439135313
18477368706512,2.898181200027466,-8.376114845275879,4.677073001861572,-0.005855984054505825,0.0173017717897892,0.0077192517928779125
18477369943662,2.8634653091430664,-8.377311706542969,4.683058738708496,0.0005323622026480734,0.0173017717897892,0.00452507846057415
18477371180837,2.9029695987701416,-8.356961250305176,4.689043998718262,0.0005323622026480734,0.0191650390625,0.0013309054775163531
18477372417987,2.87064790725708,-8.373720169067383,4.697423934936523,-0.0029279920272529125,0.01889885775744915,0.0007985432748682797
18477373655175,2.8407204151153564,-8.370129585266113,4.734533786773682,-0.0029279920272529125,0.014373779296875,0.0031941730994731188
18477374892312,2.8862102031707764,-8.38449478149414,4.655525207519531,-0.0026618109550327063,0.01357523538172245,0.008251613937318325
18477376129500,2.873042106628418,-8.379706382751465,4.6938323974609375,-0.0031941730994731188,0.01463996060192585,0.0063883461989462376
18477377366662,2.890998601913452,-8.344989776611328,4.742913722991943,-0.0002661811013240367,0.013309055007994175,0.0015970865497365594
18477378603825,2.918531894683838,-8.398859977722168,4.686649799346924,-0.0039927163161337376,0.012510511092841625,0.0039927163161337376
18477379840975,2.875436305999756,-8.356961250305176,4.711789131164551,-0.008251613937318325,0.014373779296875,0.0029279920272529125
18477381078162,2.8646624088287354,-8.401253700256348,4.683058738708496,-0.008517795242369175,0.0138414166867733,0.0042588976211845875
18477382315325,2.8862102031707764,-8.378508567810059,4.669890403747559,-0.006122165359556675,0.0173017717897892,0.0013309054775163531
18477383552475,2.894589900970459,-8.380903244018555,4.6734819412231445,-0.0031941730994731188,0.008517795242369175,0.008251613937318325
18477384789637,2.8886044025421143,-8.395268440246582,4.6734819412231445,-0.0063883461989462376,0.0071868896484375,0.006122165359556675
18477386026825,2.8646624088287354,-8.38808536529541,4.683058738708496,-0.0015970865497365594,0.0090501569211483,0.0053236219100654125
18477387263975,2.8778305053710938,-8.383296966552734,4.712985992431641,-0.0021294488105922937,0.0090501569211483,0.0029279920272529125
18477388501150,2.9077579975128174,-8.401253700256348,4.677073001861572,-0.005855984054505825,0.00984870083630085,0.005855984054505825
18477389738312,2.873042106628418,-8.397662162780762,4.702212333679199,-0.00958251953125,0.0053236219100654125,0.005589802749454975
18477390975487,2.8622682094573975,-8.382100105285645,4.689043998718262,-0.004791259765625,0.008251613937318325,0.005057440605014563
18477392212637,2.852691411972046,-8.396465301513672,4.667496204376221,-0.01117960549890995,0.012776692397892475,0.007453070487827063
18477393449825,2.8455088138580322,-8.403648376464844,4.6914381980896,-0.010647243820130825,0.00984870083630085,0.0053236219100654125
18477394686975,2.8838160037994385,-8.366538047790527,4.681861400604248,-0.010114881210029125,0.00984870083630085,0.0029279920272529125
18477395924137,2.8658595085144043,-8.382100105285645,4.689043998718262,-0.01117960549890995,0.012776692397892475,0.0071868896484375
18477397161312,2.87064790725708,-8.391676902770996,4.67946720123291,-0.00958251953125,0.0063883461989462376,0.0066545275039970875
18477398398450,2.875436305999756,-8.425195693969727,4.669890403747559,-0.008517795242369175,0.00931633822619915,0.008517795242369175
18477399635625,2.868253707885742,-8.392873764038086,4.708197593688965,-0.01171196810901165,0.007985432632267475,0.0063883461989462376
18477400872800,2.8395233154296875,-8.373720169067383,4.681861400604248,-0.0119781494140625,0.00931633822619915,0.0053236219100654125
18477402109975,2.896984100341797,-8.364143371582031,4.699818134307861,-0.013309055007994175,0.00958251953125,0.00452507846057415
18477403347112,2.895787000656128,-8.362946510314941,4.668693542480469,-0.0114457868039608,0.0026618109550327063,0.0042588976211845875
18477404584287,2.892195701599121,-8.38569164276123,4.6950297355651855,-0.010114881210029125,0.006122165359556675,0.0053236219100654125
18477405821475,2.8778305053710938,-8.371326446533203,4.669890403747559,-0.010913425125181675,0.00692070834338665,0.0066545275039970875
18477407058637,2.8802247047424316,-8.367734909057617,4.6950297355651855,-0.00984870083630085,0.00452507846057415,0.00984870083630085
18477408295787,2.8562827110290527,-8.383296966552734,4.6507368087768555,-0.0090501569211483,0.0031941730994731188,0.0066545275039970875
18477409532962,2.874239206314087,-8.390480041503906,4.728548526763916,-0.008783976547420025,-0.0026618109550327063,0.005855984054505825
18477410770100,2.8347349166870117,-8.38808536529541,4.733336925506592,-0.012776692397892475,0.0002661811013240367,0.0037265352439135313
18477412007275,2.850297212600708,-8.379706382751465,4.686649799346924,-0.013042873702943325,0.0007985432748682797,0.005057440605014563
18477413244462,2.8586769104003906,-8.360552787780762,4.696226596832275,-0.01650322787463665,-0.0018632676219567657,0.005057440605014563
18477414481637,2.8790276050567627,-8.361749649047852,4.64594841003418,-0.01117960549890995,-0.004791259765625,0.00452507846057415
18477415718787,2.911349296569824,-8.377311706542969,4.696226596832275,-0.008517795242369175,-0.003460354171693325,0.005589802749454975
18477416955950,2.876633405685425,-8.382100105285645,4.663905143737793,-0.00692070834338665,0.0018632676219567657,0.00692070834338665
18477418193125,2.8670566082000732,-8.374917984008789,4.708197593688965,-0.010913425125181675,0.004791259765625,0.0029279920272529125
18477419430275,2.87064790725708,-8.359354972839355,4.684255599975586,-0.013309055007994175,-0.0013309054775163531,0.0042588976211845875
18477420667450,2.8610711097717285,-8.379706382751465,4.685452938079834,-0.0138414166867733,-0.0037265352439135313,0.00692070834338665
18477421904612,2.8455088138580322,-8.403648376464844,4.674678802490234,-0.015172322280704975,0.0007985432748682797,0.0071868896484375
18477423141787,2.8778305053710938,-8.40843677520752,4.677073001861572,-0.012776692397892475,-0.0002661811013240367,0.004791259765625
18477424378937,2.8574798107147217,-8.40963363647461,4.675876140594482,-0.010647243820130825,-0.0026618109550327063,0.01171196810901165
18477425616112,2.8622682094573975,-8.401253700256348,4.712985992431641,-0.0138414166867733,-0.0037265352439135313,0.0119781494140625
18477426853262,2.8359320163726807,-8.370129585266113,4.680664539337158,-0.01410759799182415,-0.005855984054505825,0.0077192517928779125
