timestamp_ns,accel_x,accel_y,accel_z,gyro_x,gyro_y,gyro_z
2650320256662,1.1408370733261108,-9.763554573059082,1.1875240802764893,0.02022976242005825,0.01650322787463665,-0.0021294488105922937
2650321493937,1.1420341730117798,-9.791088104248047,1.2018892765045166,0.0186326764523983,0.01889885775744915,-0.0037265352439135313
2650322731212,1.1408370733261108,-9.75517463684082,1.2198457717895508,0.014373779296875,0.01703559048473835,-0.0021294488105922937
2650323968450,1.1528080701828003,-9.731232643127441,1.171961784362793,0.02022976242005825,0.01597086526453495,-0.0063883461989462376
2650325205675,1.1288660764694214,-9.740809440612793,1.1839327812194824,0.0191650390625,0.015438503585755825,-0.0066545275039970875
2650326442937,1.1276689767837524,-9.75397777557373,1.1623849868774414,0.01703559048473835,0.0157046839594841,-0.0023956298828125
2650327680187,1.1109095811843872,-9.767146110534668,1.1851298809051514,0.02262539230287075,0.0173017717897892,-0.00452507846057415
2650328917462,1.091755986213684,-9.747992515563965,1.1839327812194824,0.0247548408806324,0.0173017717897892,-0.007453070487827063
2650330154712,1.0905588865280151,-9.75278091430664,1.1587936878204346,0.0162370465695858,0.0173017717897892,-0.0042588976211845875
2650331391975,1.0869675874710083,-9.75278091430664,1.1288660764694214,0.01996358297765255,0.0167694091796875,-0.005589802749454975
2650332629225,1.1432312726974487,-9.756372451782227,1.136048674583435,0.0204959437251091,0.01650322787463665,-0.0042588976211845875
2650333866500,1.115697979927063,-9.771934509277344,1.1408370733261108,0.0234239362180233,0.01597086526453495,-0.005589802749454975
2650335103750,1.1336544752120972,-9.768342971801758,1.1839327812194824,0.01996358297765255,0.01756795309484005,-0.004791259765625
2650336340987,1.1180921792984009,-9.798270225524902,1.169567584991455,0.0204959437251091,0.0186326764523983,-0.006122165359556675
2650337578237,1.116895079612732,-9.787496566772461,1.1480196714401245,0.0191650390625,0.01597086526453495,-0.008517795242369175
2650338815500,1.1288660764694214,-9.795876502990723,1.1803414821624756,0.01943122036755085,0.01703559048473835,-0.005057440605014563
2650340052750,1.1324573755264282,-9.786299705505371,1.2030863761901855,0.0244886614382267,0.015438503585755825,-0.005057440605014563
2650341290012,1.1109095811843872,-9.81143856048584,1.1743559837341309,0.0220930315554142,0.0215606689453125,-0.012510511092841625
2650342527262,1.0977414846420288,-9.830592155456543,1.2054805755615234,0.0181003138422966,0.0196974016726017,-0.005589802749454975
2650343764525,1.0881646871566772,-9.853337287902832,1.1851298809051514,0.0204959437251091,0.01889885775744915,0.0021294488105922937
2650345001787,1.1336544752120972,-9.838972091674805,1.2090718746185303,0.0215606689453125,0.01597086526453495,-0.00692070834338665
2650346239050,1.0989385843276978,-9.832986831665039,1.2030863761901855,0.01756795309484005,0.0138414166867733,-0.008783976547420025
2650347476312,1.1240776777267456,-9.871294021606445,1.137245774269104,0.01703559048473835,0.02076212503015995,-0.010381062515079975
2650348713550,1.1252747774124146,-9.864110946655273,1.1623849868774414,0.01756795309484005,0.0244886614382267,-0.00931633822619915
2650349950825,1.114500880241394,-9.860519409179688,1.1552022695541382,0.0204959437251091,0.0223592109978199,-0.008783976547420025
2650351188062,1.07379949092865,-9.90122127532959,1.169567584991455,0.01703559048473835,0.0186326764523983,-0.008517795242369175
2650352425312,1.1097124814987183,-9.894038200378418,1.1683704853057861,0.0173017717897892,0.01756795309484005,-0.005589802749454975
2650353662587,1.0749965906143188,-9.897629737854004,1.1420341730117798,0.014906140975654125,0.0228915736079216,-0.00931633822619915
2650354899837,1.1300631761550903,-9.883264541625977,1.1635820865631104,0.010913425125181675,0.0204959437251091,-0.00931633822619915
2650356137100,1.1480196714401245,-9.852140426635742,1.2042834758758545,0.0090501569211483,0.0244886614382267,-0.013309055007994175
2650357374350,1.1563994884490967,-9.841365814208984,1.1563994884490967,0.008517795242369175,0.023956298828125,-0.0119781494140625
2650358611600,1.1540051698684692,-9.81143856048584,1.1635820865631104,0.008251613937318325,0.0191650390625,-0.01410759799182415
2650359848862,1.1647791862487793,-9.800664901733398,1.1420341730117798,0.01171196810901165,0.0204959437251091,-0.0114457868039608
2650361086112,1.169567584991455,-9.825803756713867,1.1635820865631104,0.005855984054505825,0.02182685025036335,-0.0204959437251091
2650362323387,1.170764684677124,-9.840168952941895,1.173158884048462,0.010381062515079975,0.0223592109978199,-0.01224433071911335
2650363560612,1.1982979774475098,-9.782708168029785,1.1659762859344482,0.0090501569211483,0.0244886614382267,-0.0114457868039608
2650364797887,1.169567584991455,-9.7791166305542,1.1779472827911377,0.0063883461989462376,0.0252872034907341,-0.0138414166867733
2650366035137,1.1671733856201172,-9.733627319335938,1.1959037780761719,0.010647243820130825,0.02262539230287075,-0.01463996060192585
2650367272400,1.212663173675537,-9.714473724365234,1.1611878871917725,0.0138414166867733,0.01703559048473835,-0.0167694091796875
2650368509662,1.2222399711608887,-9.72285270690918,1.1863269805908203,0.00931633822619915,0.0228915736079216,-0.02129448764026165
2650369746900,1.1791443824768066,-9.75397777557373,1.1767501831054688,0.0071868896484375,0.0228915736079216,-0.02076212503015995
2650370984162,1.194706678390503,-9.731232643127441,1.1336544752120972,0.010114881210029125,0.0157046839594841,-0.01943122036755085
2650372221425,1.1815385818481445,-9.703699111938477,1.171961784362793,0.010647243820130825,0.01889885775744915,-0.02182685025036335
2650373458687,1.2054805755615234,-9.718064308166504,1.1575965881347656,0.0119781494140625,0.01836649514734745,-0.0220930315554142
2650374695925,1.2030863761901855,-9.71926212310791,1.1683704853057861,0.0157046839594841,0.0162370465695858,-0.0247548408806324
2650375933175,1.1779472827911377,-9.692925453186035,1.1971008777618408,0.012776692397892475,0.0228915736079216,-0.0263519287109375
2650377170437,1.1659762859344482,-9.710882186889648,1.1611878871917725,0.010913425125181675,0.0215606689453125,-0.0268842913210392
2650378407700,1.1420341730117798,-9.707290649414062,1.1492167711257935,0.010114881210029125,0.01650322787463665,-0.02315775491297245
2650379644950,1.1803414821624756,-9.714473724365234,1.1228805780410767,0.01597086526453495,0.01783413253724575,-0.02608574740588665
2650380882200,1.1587936878204346,-9.678560256958008,1.173158884048462,0.01783413253724575,0.0191650390625,-0.023956298828125
2650382119462,1.1755530834197998,-9.696516990661621,1.1252747774124146,0.02022976242005825,0.0186326764523983,-0.02076212503015995
2650383356737,1.1623849868774414,-9.75397777557373,1.1432312726974487,0.01756795309484005,0.0181003138422966,-0.0306108258664608
2650384593962,1.1659762859344482,-9.706093788146973,1.1528080701828003,0.01889885775744915,0.0215606689453125,-0.0271504707634449
2650385831250,1.136048674583435,-9.727641105651855,1.1288660764694214,0.0234239362180233,0.02076212503015995,-0.0223592109978199
2650387068500,1.1791443824768066,-9.720458984375,1.1516109704971313,0.0210283063352108,0.02076212503015995,-0.02502102218568325
2650388305737,1.1839327812194824,-9.703699111938477,1.1324573755264282,0.02182685025036335,0.0191650390625,-0.0268842913210392
2650389543012,1.1563994884490967,-9.715670585632324,1.1504138708114624,0.01783413253724575,0.0204959437251091,-0.0276828333735466
2650390780262,1.1851298809051514,-9.713275909423828,1.1444283723831177,0.01889885775744915,0.02076212503015995,-0.02502102218568325
2650392017525,1.192312479019165,-9.759963035583496,1.1767501831054688,0.0220930315554142,0.01996358297765255,-0.0295461006462574
2650393254800,1.2210428714752197,-9.726444244384766,1.2006921768188477,0.02262539230287075,0.02129448764026165,-0.0220930315554142
2650394492037,1.1575965881347656,-9.68813705444336,1.1755530834197998,0.0244886614382267,0.0157046839594841,-0.0252872034907341
2650395729275,1.1671733856201172,-9.695320129394531,1.1755530834197998,0.02901373989880085,0.0162370465695858,-0.0263519287109375
2650396966537,1.192312479019165,-9.728838920593262,1.1468225717544556,0.02661811001598835,0.01410759799182415,-0.0244886614382267
2650398203812,1.171961784362793,-9.695320129394531,1.1540051698684692,0.02981228195130825,0.014906140975654125,-0.02022976242005825
2650399441062,1.213860273361206,-9.68933391571045,1.2066776752471924,0.0306108258664608,0.01650322787463665,-0.01996358297765255
2650400678325,1.1982979774475098,-9.701305389404297,1.170764684677124,0.0276828333735466,0.01597086526453495,-0.0210283063352108
2650401915562,1.1994950771331787,-9.730035781860352,1.1959037780761719,0.02981228195130825,0.015172322280704975,-0.0114457868039608
2650403152837,1.213860273361206,-9.750386238098145,1.1540051698684692,0.0327402763068676,0.01756795309484005,-0.01650322787463665
2650404390087,1.193509578704834,-9.701305389404297,1.1839327812194824,0.0343373604118824,0.0196974016726017,-0.01650322787463665
2650405627337,1.1982979774475098,-9.710882186889648,1.2114660739898682,0.03034464456140995,0.02022976242005825,-0.01783413253724575
2650406864587,1.170764684677124,-9.715670585632324,1.2234370708465576,0.02608574740588665,0.0191650390625,-0.0210283063352108
2650408101862,1.1755530834197998,-9.72285270690918,1.193509578704834,0.0322079136967659,0.013042873702943325,-0.0181003138422966
2650409339100,1.171961784362793,-9.743204116821289,1.1755530834197998,0.0338049978017807,0.015172322280704975,-0.0162370465695858
2650410576362,1.1791443824768066,-9.725247383117676,1.2222399711608887,0.0340711809694767,0.01836649514734745,-0.01597086526453495
2650411813612,1.1647791862487793,-9.700108528137207,1.1504138708114624,0.0316755510866642,0.015438503585755825,-0.0181003138422966
2650413050862,1.1767501831054688,-9.7420072555542,1.1791443824768066,0.0346035435795784,0.0138414166867733,-0.01597086526453495
2650414288125,1.2102689743041992,-9.71926212310791,1.1791443824768066,0.0346035435795784,0.014373779296875,-0.01357523538172245
2650415525400,1.1803414821624756,-9.725247383117676,1.1587936878204346,0.0324740931391716,0.00984870083630085,-0.00958251953125
2650416762625,1.193509578704834,-9.747992515563965,1.1803414821624756,0.0372653529047966,0.0114457868039608,-0.01703559048473835
2650417999900,1.2006921768188477,-9.710882186889648,1.1575965881347656,0.0369991734623909,0.01117960549890995,-0.02076212503015995
2650419237125,1.2030863761901855,-9.746795654296875,1.1791443824768066,0.0343373604118824,0.008517795242369175,-0.01224433071911335
2650420474412,1.191115379333496,-9.709685325622559,1.170764684677124,0.0327402763068676,0.01224433071911335,-0.014906140975654125
2650421711662,1.217451572418213,-9.770737648010254,1.1623849868774414,0.0388624407351017,0.012776692397892475,-0.0114457868039608
2650422948912,1.1815385818481445,-9.763554573059082,1.1683704853057861,0.0362006276845932,0.007453070487827063,-0.0114457868039608
2650424186175,1.1468225717544556,-9.759963035583496,1.170764684677124,0.033272635191679,0.007453070487827063,-0.00931633822619915
2650425423425,1.1635820865631104,-9.765949249267578,1.1899182796478271,0.0377977155148983,0.0090501569211483,-0.007453070487827063
2650426660675,1.1815385818481445,-9.75397777557373,1.1468225717544556,0.033272635191679,0.015172322280704975,-0.0157046839594841
2650427897937,1.1432312726974487,-9.767146110534668,1.170764684677124,0.0369991734623909,0.008783976547420025,-0.012510511092841625
2650429135200,1.1959037780761719,-9.794679641723633,1.1899182796478271,0.0388624407351017,0.0114457868039608,-0.0090501569211483
2650430372462,1.1863269805908203,-9.768342971801758,1.2114660739898682,0.0399271659553051,0.012510511092841625,-0.01171196810901165
2650431609712,1.2090718746185303,-9.804256439208984,1.1803414821624756,0.0362006276845932,0.012776692397892475,-0.01463996060192585
2650432846962,1.1779472827911377,-9.77791976928711,1.1839327812194824,0.0319417305290699,0.01463996060192585,-0.01410759799182415
2650434084225,1.1971008777618408,-9.793481826782227,1.170764684677124,0.0359344482421875,0.0119781494140625,-0.0066545275039970875
2650435321487,1.2533645629882812,-9.825803756713867,1.2006921768188477,0.0356682650744915,0.00958251953125,-0.0066545275039970875
2650436558750,1.1875240802764893,-9.817423820495605,1.2186486721038818,0.0330064557492733,0.005855984054505825,-0.01117960549890995
2650437796000,1.1815385818481445,-9.795876502990723,1.1599907875061035,0.0375315360724926,0.008251613937318325,-0.014373779296875
2650439033237,1.1827356815338135,-9.81024169921875,1.1863269805908203,0.0401933453977108,0.0066545275039970875,-0.0071868896484375
2650440270487,1.1803414821624756,-9.807847023010254,1.1803414821624756,0.0348697230219841,0.0071868896484375,-0.005057440605014563
2650441507762,1.1839327812194824,-9.791088104248047,1.2066776752471924,0.03087700717151165,0.0090501569211483,-0.0138414166867733
2650442745025,1.1959037780761719,-9.781511306762695,1.2078747749328613,0.0354020856320858,0.008251613937318325,-0.013309055007994175
2650443982262,1.2054805755615234,-9.805453300476074,1.170764684677124,0.03087700717151165,0.010114881210029125,-0.00931633822619915
2650445219512,1.1575965881347656,-9.78869342803955,1.1671733856201172,0.0348697230219841,0.0138414166867733,-0.008517795242369175
2650446456775,1.1994950771331787,-9.764751434326172,1.1563994884490967,0.0346035435795784,0.01410759799182415,-0.01463996060192585
2650447694025,1.2210428714752197,-9.773131370544434,1.2054805755615234,0.033272635191679,0.01117960549890995,-0.007453070487827063
2650448931287,1.194706678390503,-9.77672290802002,1.193509578704834,0.0388624407351017,0.0077192517928779125,-0.007453070487827063
2650450168562,1.1587936878204346,-9.765949249267578,1.2270283699035645,0.0407257080078125,0.007453070487827063,-0.010114881210029125
2650451405812,1.2042834758758545,-9.764751434326172,1.2090718746185303,0.0340711809694767,0.0090501569211483,-0.01783413253724575
2650452643075,1.1875240802764893,-9.795876502990723,1.1575965881347656,0.0322079136967659,0.00931633822619915,-0.01597086526453495
2650453880312,1.1779472827911377,-9.768342971801758,1.191115379333496,0.03087700717151165,0.00984870083630085,-0.012510511092841625
2650455117587,1.1815385818481445,-9.774328231811523,1.1743559837341309,0.0343373604118824,0.0042588976211845875,-0.00931633822619915
2650456354825,1.212663173675537,-9.7420072555542,1.1851298809051514,0.0330064557492733,0.00931633822619915,-0.012510511092841625
2650457592087,1.1851298809051514,-9.736021041870117,1.2006921768188477,0.0340711809694767,0.012510511092841625,-0.01410759799182415
2650458829362,1.1599907875061035,-9.795876502990723,1.173158884048462,0.0319417305290699,0.010381062515079975,-0.014373779296875
2650460066600,1.1252747774124146,-9.758766174316406,1.2090718746185303,0.0322079136967659,0.00958251953125,-0.014373779296875
2650461303875,1.2042834758758545,-9.732430458068848,1.1456254720687866,0.03034464456140995,0.010647243820130825,-0.0138414166867733
2650462541112,1.216254472732544,-9.727641105651855,1.2186486721038818,0.0295461006462574,0.012510511092841625,-0.013042873702943325
2650463778375,1.1875240802764893,-9.747992515563965,1.192312479019165,0.0300784632563591,0.010913425125181675,-0.01410759799182415
2650465015625,1.2006921768188477,-9.763554573059082,1.1779472827911377,0.0346035435795784,0.0053236219100654125,-0.010647243820130825
2650466252887,1.173158884048462,-9.767146110534668,1.235408067703247,0.038063894957304,0.008251613937318325,-0.00931633822619915
2650467490137,1.1611878871917725,-9.797073364257812,1.212663173675537,0.0327402763068676,0.00931633822619915,-0.013309055007994175
2650468727387,1.2234370708465576,-9.757569313049316,1.2222399711608887,0.0327402763068676,0.005855984054505825,-0.01410759799182415
2650469964662,1.212663173675537,-9.75158405303955,1.2090718746185303,0.02981228195130825,0.010114881210029125,-0.0138414166867733
2650471201912,1.217451572418213,-9.782708168029785,1.2282254695892334,0.0306108258664608,0.0077192517928779125,-0.014906140975654125
2650472439187,1.193509578704834,-9.780314445495605,1.237802267074585,0.03034464456140995,0.0090501569211483,-0.01171196810901165
2650473676412,1.213860273361206,-9.785102844238281,1.212663173675537,0.03087700717151165,0.010913425125181675,-0.01171196810901165
2650474913662,1.2413935661315918,-9.769539833068848,1.193509578704834,0.033538818359375,0.00692070834338665,-0.00958251953125
2650476150925,1.1803414821624756,-9.77552604675293,1.169567584991455,0.0354020856320858,0.00984870083630085,-0.0119781494140625
2650477388187,1.2210428714752197,-9.77552604675293,1.1887211799621582,0.0322079136967659,0.0119781494140625,-0.01224433071911335
2650478625475,1.2234370708465576,-9.732430458068848,1.235408067703247,0.0295461006462574,0.005855984054505825,-0.0090501569211483
2650479862700,1.2342109680175781,-9.75397777557373,1.1994950771331787,0.0268842913210392,0.0090501569211483,-0.01597086526453495
2650481099962,1.1851298809051514,-9.707290649414062,1.213860273361206,0.0247548408806324,0.008517795242369175,-0.01463996060192585
2650482337212,1.256955862045288,-9.730035781860352,1.237802267074585,0.02555338479578495,0.008251613937318325,-0.0114457868039608
2650483574487,1.236605167388916,-9.75517463684082,1.1743559837341309,0.0327402763068676,0.012776692397892475,-0.01171196810901165
2650484811737,1.2102689743041992,-9.730035781860352,1.2018892765045166,0.0319417305290699,0.005855984054505825,-0.01836649514734745
2650486048975,1.2234370708465576,-9.724050521850586,1.2401964664459229,0.03087700717151165,0.0090501569211483,-0.01410759799182415
2650487286250,1.2330138683319092,-9.709685325622559,1.2054805755615234,0.0316755510866642,0.010381062515079975,-0.014373779296875
2650488523500,1.2413935661315918,-9.678560256958008,1.194706678390503,0.0343373604118824,0.007985432632267475,-0.0162370465695858
2650489760750,1.2198457717895508,-9.703699111938477,1.1887211799621582,0.033272635191679,0.0063883461989462376,-0.013042873702943325
2650490998000,1.2868834733963013,-9.724050521850586,1.237802267074585,0.0319417305290699,0.005057440605014563,-0.008517795242369175
2650492235275,1.1887211799621582,-9.756372451782227,1.2258312702178955,0.0343373604118824,0.0066545275039970875,-0.0077192517928779125
2650493472525,1.2030863761901855,-9.7420072555542,1.2461819648742676,0.0330064557492733,0.0053236219100654125,-0.010114881210029125
2650494709775,1.2234370708465576,-9.718064308166504,1.1863269805908203,0.0327402763068676,0.00452507846057415,-0.008517795242369175
2650495947025,1.2042834758758545,-9.72285270690918,1.2006921768188477,0.033272635191679,0.005855984054505825,-0.013042873702943325
2650497184300,1.2114660739898682,-9.750386238098145,1.2186486721038818,0.0369991734623909,0.0013309054775163531,-0.015438503585755825
2650498421550,1.1887211799621582,-9.6989107131958,1.2485761642456055,0.0311431884765625,0.007453070487827063,-0.013042873702943325
2650499658787,1.2042834758758545,-9.746795654296875,1.2186486721038818,0.0338049978017807,0.0031941730994731188,-0.010114881210029125
2650500896050,1.2258312702178955,-9.706093788146973,1.2006921768188477,0.0316755510866642,-0.0005323622026480734,-0.00958251953125
2650502133325,1.1755530834197998,-9.72165584564209,1.2461819648742676,0.0324740931391716,0.0018632676219567657,-0.00692070834338665
2650503370587,1.2018892765045166,-9.720458984375,1.2186486721038818,0.0338049978017807,0.0005323622026480734,-0.0066545275039970875
2650504607837,1.2066776752471924,-9.749189376831055,1.173158884048462,0.0359344482421875,0.00452507846057415,-0.010381062515079975
2650505845087,1.2054805755615234,-9.744400978088379,1.2485761642456055,0.0351359061896801,0.013309055007994175,-0.0119781494140625
2650507082337,1.212663173675537,-9.732430458068848,1.212663173675537,0.0362006276845932,0.007453070487827063,-0.014373779296875
2650508319600,1.2186486721038818,-9.734824180603027,1.2042834758758545,0.0356682650744915,0.003460354171693325,-0.00984870083630085
2650509556850,1.191115379333496,-9.728838920593262,1.1971008777618408,0.0354020856320858,0.004791259765625,-0.0077192517928779125
2650510794137,1.1647791862487793,-9.715670585632324,1.2342109680175781,0.0340711809694767,0.0066545275039970875,-0.00931633822619915
2650512031362,1.2294225692749023,-9.738415718078613,1.2773066759109497,0.0372653529047966,0.0063883461989462376,-0.008251613937318325
2650513268625,1.191115379333496,-9.718064308166504,1.217451572418213,0.0369991734623909,0.003460354171693325,-0.005855984054505825
2650514505900,1.2330138683319092,-9.731232643127441,1.2246341705322266,0.0367329902946949,0.0013309054775163531,-0.0063883461989462376
2650515743137,1.215057373046875,-9.7791166305542,1.2198457717895508,0.0391286201775074,0.0042588976211845875,-0.0063883461989462376
2650516980387,1.194706678390503,-9.737218856811523,1.1791443824768066,0.0346035435795784,0.005057440605014563,-0.0077192517928779125
2650518217662,1.2102689743041992,-9.75397777557373,1.2425906658172607,0.0340711809694767,0.005057440605014563,-0.0037265352439135313
2650519454912,1.1851298809051514,-9.7420072555542,1.236605167388916,0.0354020856320858,0.0066545275039970875,0.0013309054775163531
2650520692162,1.2210428714752197,-9.761160850524902,1.2497732639312744,0.0385962575674057,0.0023956298828125,0.0007985432748682797
2650521929425,1.1875240802764893,-9.750386238098145,1.236605167388916,0.0377977155148983,0.0037265352439135313,-0.005589802749454975
2650523166687,1.1803414821624756,-9.761160850524902,1.2437877655029297,0.0372653529047966,0.0090501569211483,-0.0037265352439135313
2650524403925,1.212663173675537,-9.785102844238281,1.2509703636169434,0.0399271659553051,0.008783976547420025,-0.0039927163161337376
2650525641187,1.1755530834197998,-9.746795654296875,1.2342109680175781,0.0439198799431324,0.005057440605014563,-0.0010647244052961469
2650526878437,1.1528080701828003,-9.768342971801758,1.2342109680175781,0.038330078125,0.0007985432748682797,-0.0002661811013240367
2650528115700,1.1875240802764893,-9.761160850524902,1.238999366760254,0.038330078125,0.0042588976211845875,-0.0021294488105922937
2650529352950,1.2246341705322266,-9.740809440612793,1.2270283699035645,0.0420566126704216,0.00692070834338665,0.0013309054775163531
2650530590225,1.1971008777618408,-9.746795654296875,1.2497732639312744,0.0420566126704216,-0.0007985432748682797,0.0002661811013240367
2650531827462,1.1851298809051514,-9.7420072555542,1.2976573705673218,0.0417904332280159,0.0007985432748682797,0.0005323622026480734
2650533064737,1.2210428714752197,-9.804256439208984,1.2258312702178955,0.0388624407351017,0.00452507846057415,-0.004791259765625
2650534301975,1.2294225692749023,-9.805453300476074,1.2090718746185303,0.0388624407351017,0.0071868896484375,-0.0029279920272529125
2650535539250,1.1959037780761719,-9.80904483795166,1.2617442607879639,0.0399271659553051,0.005855984054505825,-0.0015970865497365594
2650536776487,1.1994950771331787,-9.759963035583496,1.2533645629882812,0.042855154722929,-0.0010647244052961469,-0.0018632676219567657
2650538013737,1.1767501831054688,-9.792284965515137,1.2246341705322266,0.038330078125,0.005589802749454975,-0.0007985432748682797
2650539251012,1.2114660739898682,-9.770737648010254,1.192312479019165,0.038063894957304,0.0037265352439135313,-0.0013309054775163531
2650540488250,1.2042834758758545,-9.730035781860352,1.2413935661315918,0.0423227921128273,0.0007985432748682797,-0.005855984054505825
2650541725537,1.1743559837341309,-9.757569313049316,1.2198457717895508,0.0364668108522892,-0.0007985432748682797,-0.0031941730994731188
2650542962775,1.2461819648742676,-9.789891242980957,1.237802267074585,0.0306108258664608,0.0023956298828125,-0.0029279920272529125
2650544200025,1.213860273361206,-9.782708168029785,1.235408067703247,0.0367329902946949,0.0026618109550327063,0.0007985432748682797
2650545437312,1.212663173675537,-9.75397777557373,1.2509703636169434,0.0449846051633358,0.00452507846057415,0.0005323622026480734
2650546674550,1.2030863761901855,-9.7791166305542,1.217451572418213,0.0425889752805233,-0.0013309054775163531,-0.003460354171693325
2650547911800,1.2066776752471924,-9.786299705505371,1.236605167388916,0.0372653529047966,-0.0029279920272529125,-0.0005323622026480734
2650549149050,1.2006921768188477,-9.780314445495605,1.259350061416626,0.0444522425532341,-0.003460354171693325,0.004791259765625
2650550386325,1.213860273361206,-9.75517463684082,1.2509703636169434,0.038063894957304,0.0018632676219567657,0.0007985432748682797
2650551623575,1.260547161102295,-9.771934509277344,1.259350061416626,0.038330078125,0.0007985432748682797,0.0026618109550327063
2650552860825,1.2222399711608887,-9.774328231811523,1.2701239585876465,0.0407257080078125,-0.0005323622026480734,-0.0005323622026480734
2650554098087,1.2617442607879639,-9.75397777557373,1.259350061416626,0.0399271659553051,0.0015970865497365594,0.0002661811013240367
2650555335350,1.2545616626739502,-9.770737648010254,1.2713210582733154,0.0417904332280159,0.0037265352439135313,0.003460354171693325
2650556572587,1.2054805755615234,-9.800664901733398,1.2689268589019775,0.0420566126704216,-0.003460354171693325,0.0037265352439135313
2650557809875,1.1875240802764893,-9.789891242980957,1.2545616626739502,0.0415242500603199,-0.0007985432748682797,-0.0007985432748682797
2650559047112,1.217451572418213,-9.795876502990723,1.2473790645599365,0.0351359061896801,0.003460354171693325,0.0015970865497365594
2650560284337,1.1516109704971313,-9.770737648010254,1.2521674633026123,0.0359344482421875,0.0005323622026480734,0.0042588976211845875
2650561521637,1.1971008777618408,-9.77791976928711,1.2461819648742676,0.0356682650744915,0.0029279920272529125,0.003460354171693325
2650562758887,1.1599907875061035,-9.803058624267578,1.2186486721038818,0.0348697230219841,0.0002661811013240367,0.0005323622026480734
2650563996137,1.193509578704834,-9.794679641723633,1.2306196689605713,0.0359344482421875,-0.0007985432748682797,-0.0005323622026480734
2650565233400,1.1743559837341309,-9.77672290802002,1.2425906658172607,0.0340711809694767,0.0010647244052961469,0.0066545275039970875
2650566470650,1.2258312702178955,-9.823410034179688,1.2054805755615234,0.0356682650744915,-0.0031941730994731188,0.0039927163161337376
2650567707900,1.1994950771331787,-9.78869342803955,1.2186486721038818,0.0348697230219841,-0.0023956298828125,0.0013309054775163531
2650568945162,1.194706678390503,-9.797073364257812,1.2785037755966187,0.0367329902946949,-0.0002661811013240367,0.0021294488105922937
2650570182412,1.192312479019165,-9.819818496704102,1.2856863737106323,0.0306108258664608,0.0029279920272529125,0.0013309054775163531
2650571419675,1.1863269805908203,-9.80904483795166,1.2473790645599365,0.0316755510866642,0.0,0.0018632676219567657
2650572656937,1.2234370708465576,-9.800664901733398,1.2054805755615234,0.0393948033452034,0.0010647244052961469,0.0013309054775163531
2650573894175,1.2078747749328613,-9.77672290802002,1.1994950771331787,0.0362006276845932,0.00452507846057415,0.0005323622026480734
2650575131450,1.1899182796478271,-9.749189376831055,1.1959037780761719,0.0359344482421875,0.0018632676219567657,0.0026618109550327063
2650576368700,1.212663173675537,-9.72285270690918,1.2449848651885986,0.0314093679189682,0.005057440605014563,-0.0026618109550327063
2650577605950,1.217451572418213,-9.767146110534668,1.2449848651885986,0.0340711809694767,0.0005323622026480734,0.0005323622026480734
2650578843225,1.1599907875061035,-9.800664901733398,1.2497732639312744,0.0322079136967659,0.00452507846057415,0.0015970865497365594
2650580080487,1.1971008777618408,-9.792284965515137,1.2342109680175781,0.0295461006462574,0.003460354171693325,-0.0002661811013240367
2650581317712,1.2030863761901855,-9.81143856048584,1.2641384601593018,0.02981228195130825,-0.003460354171693325,-0.0029279920272529125
2650582554962,1.2318167686462402,-9.815030097961426,1.2557587623596191,0.0268842913210392,0.0,-0.0026618109550327063
2650583792237,1.237802267074585,-9.81143856048584,1.212663173675537,0.0319417305290699,0.0005323622026480734,0.0013309054775163531
2650585029500,1.2294225692749023,-9.787496566772461,1.2521674633026123,0.0300784632563591,-0.0002661811013240367,-0.0039927163161337376
2650586266750,1.2078747749328613,-9.795876502990723,1.1994950771331787,0.02901373989880085,-0.0010647244052961469,0.0007985432748682797
2650587504000,1.1899182796478271,-9.813833236694336,1.2665326595306396,0.0362006276845932,-0.0071868896484375,0.0037265352439135313
2650588741287,1.2018892765045166,-9.792284965515137,1.256955862045288,0.0282151959836483,-0.0007985432748682797,-0.0037265352439135313
2650589978500,1.2042834758758545,-9.81024169921875,1.2653355598449707,0.0263519287109375,-0.0007985432748682797,-0.004791259765625
2650591215775,1.1863269805908203,-9.80904483795166,1.2713210582733154,0.02901373989880085,-0.003460354171693325,-0.0002661811013240367
2650592453025,1.1827356815338135,-9.785102844238281,1.260547161102295,0.0300784632563591,0.0,0.0002661811013240367
2650593690287,1.1875240802764893,-9.773131370544434,1.2761094570159912,0.0268842913210392,0.0029279920272529125,-0.0042588976211845875
2650594927550,1.2294225692749023,-9.7791166305542,1.2964602708816528,0.02502102218568325,0.0015970865497365594,-0.0002661811013240367
2650596164800,1.2342109680175781,-9.78869342803955,1.2318167686462402,0.02741665206849575,0.0005323622026480734,0.0018632676219567657
2650597402062,1.2222399711608887,-9.785102844238281,1.259350061416626,0.02502102218568325,-0.003460354171693325,-0.0031941730994731188
2650598639325,1.2078747749328613,-9.7420072555542,1.2868834733963013,0.02555338479578495,-0.0071868896484375,-0.0071868896484375
2650599876587,1.2090718746185303,-9.757569313049316,1.238999366760254,0.0191650390625,-0.0021294488105922937,-0.0042588976211845875
2650601113825,1.2509703636169434,-9.756372451782227,1.2653355598449707,0.0167694091796875,-0.0002661811013240367,-0.0005323622026480734
2650602351075,1.2030863761901855,-9.759963035583496,1.2725181579589844,0.02369011752307415,-0.0039927163161337376,-0.0031941730994731188
2650603588337,1.2270283699035645,-9.763554573059082,1.2617442607879639,0.0276828333735466,-0.0053236219100654125,-0.0053236219100654125
2650604825612,1.1767501831054688,-9.747992515563965,1.2797008752822876,0.02076212503015995,-0.003460354171693325,-0.00452507846057415
2650606062875,1.2066776752471924,-9.730035781860352,1.2413935661315918,0.02076212503015995,-0.007985432632267475,-0.0023956298828125
2650607300112,1.1827356815338135,-9.759963035583496,1.2533645629882812,0.02262539230287075,-0.0029279920272529125,-0.00452507846057415
2650608537362,1.2030863761901855,-9.758766174316406,1.2114660739898682,0.0220930315554142,-0.0013309054775163531,-0.0023956298828125
2650609774612,1.215057373046875,-9.750386238098145,1.2713210582733154,0.01889885775744915,0.0005323622026480734,-0.0042588976211845875
2650611011875,1.2090718746185303,-9.746795654296875,1.2497732639312744,0.02608574740588665,0.0039927163161337376,-0.005589802749454975
2650612249125,1.194706678390503,-9.726444244384766,1.2509703636169434,0.02315775491297245,0.0015970865497365594,-0.007453070487827063
2650613486387,1.1528080701828003,-9.758766174316406,1.2773066759109497,0.0186326764523983,-0.0010647244052961469,-0.010114881210029125
2650614723650,1.215057373046875,-9.773131370544434,1.256955862045288,0.0252872034907341,-0.0023956298828125,-0.0031941730994731188
2650615960912,1.237802267074585,-9.767146110534668,1.2102689743041992,0.0258195661008358,-0.003460354171693325,-0.0023956298828125
2650617198150,1.216254472732544,-9.758766174316406,1.2617442607879639,0.02315775491297245,-0.0007985432748682797,-0.0039927163161337376
2650618435412,1.1971008777618408,-9.783905029296875,1.2761094570159912,0.0157046839594841,0.0018632676219567657,-0.005057440605014563
2650619672675,1.2258312702178955,-9.758766174316406,1.213860273361206,0.0210283063352108,-0.0013309054775163531,-0.008517795242369175
2650620909925,1.1851298809051514,-9.798270225524902,1.3060370683670044,0.023956298828125,-0.0005323622026480734,-0.0002661811013240367
2650622147200,1.1839327812194824,-9.758766174316406,1.2641384601593018,0.01943122036755085,-0.0015970865497365594,-0.0023956298828125
2650623384450,1.1899182796478271,-9.794679641723633,1.2342109680175781,0.0186326764523983,-0.00452507846057415,-0.0039927163161337376
2650624621687,1.1683704853057861,-9.793481826782227,1.2557587623596191,0.0234239362180233,-0.007453070487827063,-0.0018632676219567657
2650625858950,1.213860273361206,-9.799468040466309,1.2342109680175781,0.0191650390625,-0.0010647244052961469,0.0010647244052961469
2650627096212,1.2054805755615234,-9.783905029296875,1.258152961730957,0.01943122036755085,0.0,0.0015970865497365594
2650628333462,1.2533645629882812,-9.758766174316406,1.2557587623596191,0.01889885775744915,0.0005323622026480734,0.0005323622026480734
2650629570712,1.213860273361206,-9.849745750427246,1.3036428689956665,0.0191650390625,0.0026618109550327063,-0.0029279920272529125
2650630807987,1.2066776752471924,-9.838972091674805,1.2737152576446533,0.0186326764523983,-0.0013309054775163531,0.0002661811013240367
2650632045237,1.192312479019165,-9.794679641723633,1.2521674633026123,0.01703559048473835,-0.0029279920272529125,0.0023956298828125
2650633282487,1.192312479019165,-9.787496566772461,1.2485761642456055,0.01889885775744915,0.0005323622026480734,0.0026618109550327063
2650634519750,1.171961784362793,-9.803058624267578,1.2282254695892334,0.015172322280704975,-0.0013309054775163531,0.0042588976211845875
2650635757000,1.1683704853057861,-9.832986831665039,1.2306196689605713,0.0162370465695858,-0.0007985432748682797,0.0037265352439135313
2650636994262,1.1851298809051514,-9.856928825378418,1.2785037755966187,0.01783413253724575,-0.0021294488105922937,0.0042588976211845875
2650638231512,1.1803414821624756,-9.821015357971191,1.2306196689605713,0.0162370465695858,-0.0005323622026480734,0.0066545275039970875
2650639468775,1.1959037780761719,-9.81024169921875,1.2294225692749023,0.0173017717897892,0.0005323622026480734,0.00958251953125
2650640706025,1.2018892765045166,-9.829395294189453,1.238999366760254,0.015438503585755825,-0.0005323622026480734,0.0090501569211483
2650641943287,1.1899182796478271,-9.819818496704102,1.2246341705322266,0.0138414166867733,-0.0010647244052961469,0.003460354171693325
2650643180575,1.1635820865631104,-9.798270225524902,1.2413935661315918,0.0167694091796875,-0.0021294488105922937,0.0063883461989462376
2650644417800,1.1587936878204346,-9.77791976928711,1.2437877655029297,0.0162370465695858,0.0029279920272529125,0.00984870083630085
2650645655062,1.1575965881347656,-9.75397777557373,1.235408067703247,0.0119781494140625,0.0015970865497365594,-0.0018632676219567657
2650646892325,1.1827356815338135,-9.806650161743164,1.2413935661315918,0.01224433071911335,-0.0015970865497365594,-0.0007985432748682797
2650648129575,1.1994950771331787,-9.739612579345703,1.236605167388916,0.0173017717897892,-0.0015970865497365594,0.0029279920272529125
2650649366825,1.1851298809051514,-9.740809440612793,1.2186486721038818,0.0114457868039608,0.0023956298828125,0.0018632676219567657
2650650604112,1.1599907875061035,-9.77552604675293,1.2557587623596191,0.013042873702943325,0.003460354171693325,0.004791259765625
2650651841337,1.170764684677124,-9.763554573059082,1.217451572418213,0.01463996060192585,-0.0015970865497365594,0.0021294488105922937
2650653078587,1.191115379333496,-9.747992515563965,1.2545616626739502,0.014373779296875,0.0037265352439135313,0.0023956298828125
2650654315875,1.2270283699035645,-9.725247383117676,1.2617442607879639,0.0119781494140625,0.0029279920272529125,-0.0018632676219567657
2650655553125,1.215057373046875,-9.744400978088379,1.2701239585876465,0.015438503585755825,0.0010647244052961469,0.0010647244052961469
2650656790375,1.171961784362793,-9.747992515563965,1.2797008752822876,0.013309055007994175,-0.0023956298828125,0.0066545275039970875
2650658027637,1.1899182796478271,-9.7420072555542,1.2629413604736328,0.014906140975654125,0.0039927163161337376,-0.0002661811013240367
2650659264887,1.1971008777618408,-9.738415718078613,1.2737152576446533,0.014373779296875,0.0029279920272529125,-0.0005323622026480734
2650660502150,1.1875240802764893,-9.745597839355469,1.2677297592163086,0.0138414166867733,0.0005323622026480734,0.0031941730994731188
2650661739400,1.1767501831054688,-9.786299705505371,1.2701239585876465,0.0138414166867733,0.00452507846057415,-0.0039927163161337376
2650662976662,1.191115379333496,-9.733627319335938,1.3024457693099976,0.0119781494140625,0.0026618109550327063,-0.0010647244052961469
2650664213925,1.2497732639312744,-9.738415718078613,1.3108254671096802,0.00692070834338665,0.0018632676219567657,-0.0026618109550327063
2650665451175,1.2294225692749023,-9.744400978088379,1.2844892740249634,0.01117960549890995,0.00692070834338665,0.0026618109550327063
2650666688425,1.2234370708465576,-9.762357711791992,1.2557587623596191,0.0157046839594841,0.004791259765625,0.003460354171693325
2650667925700,1.2270283699035645,-9.740809440612793,1.2832921743392944,0.013042873702943325,0.0031941730994731188,-0.0010647244052961469
2650669162950,1.2533645629882812,-9.747992515563965,1.2533645629882812,0.00984870083630085,0.0029279920272529125,-0.0021294488105922937
2650670400200,1.2258312702178955,-9.81024169921875,1.258152961730957,0.0157046839594841,0.0023956298828125,0.0026618109550327063
2650671637450,1.1671733856201172,-9.762357711791992,1.2856863737106323,0.01650322787463665,0.0077192517928779125,-0.0037265352439135313
2650672874712,1.1552022695541382,-9.72165584564209,1.2653355598449707,0.010647243820130825,0.005589802749454975,-0.006122165359556675
2650674111975,1.1971008777618408,-9.704896926879883,1.236605167388916,0.0114457868039608,0.0023956298828125,-0.0037265352439135313
2650675349237,1.1815385818481445,-9.740809440612793,1.2617442607879639,0.010647243820130825,0.0071868896484375,-0.0026618109550327063
2650676586487,1.1959037780761719,-9.743204116821289,1.292868971824646,0.013042873702943325,0.00931633822619915,-0.0018632676219567657
2650677823737,1.2030863761901855,-9.744400978088379,1.2641384601593018,0.0157046839594841,0.0066545275039970875,-0.0026618109550327063
2650679060987,1.1863269805908203,-9.747992515563965,1.2306196689605713,0.008783976547420025,0.007453070487827063,-0.0053236219100654125
2650680298262,1.1971008777618408,-9.692925453186035,1.260547161102295,0.0138414166867733,0.010381062515079975,-0.008251613937318325
2650681535512,1.1899182796478271,-9.761160850524902,1.2509703636169434,0.012776692397892475,0.00692070834338665,-0.0071868896484375
2650682772750,1.2306196689605713,-9.786299705505371,1.2629413604736328,0.010913425125181675,0.010381062515079975,-0.0042588976211845875
2650684010037,1.2294225692749023,-9.740809440612793,1.2557587623596191,0.01463996060192585,0.013309055007994175,-0.0015970865497365594
2650685247275,1.191115379333496,-9.734824180603027,1.2545616626739502,0.0157046839594841,0.0066545275039970875,-0.007453070487827063
2650686484537,1.2030863761901855,-9.747992515563965,1.2078747749328613,0.0167694091796875,0.0029279920272529125,0.0018632676219567657
2650687721787,1.2557587623596191,-9.713275909423828,1.2437877655029297,0.01783413253724575,0.004791259765625,0.0013309054775163531
2650688959025,1.1994950771331787,-9.770737648010254,1.290474772453308,0.01410759799182415,0.0042588976211845875,-0.005057440605014563
2650690196300,1.2401964664459229,-9.736021041870117,1.2617442607879639,0.012776692397892475,0.007453070487827063,-0.008251613937318325
2650691433562,1.2473790645599365,-9.728838920593262,1.260547161102295,0.015172322280704975,0.00958251953125,-0.003460354171693325
2650692670812,1.2617442607879639,-9.737218856811523,1.291671872138977,0.0186326764523983,0.0066545275039970875,-0.0007985432748682797
2650693908075,1.2964602708816528,-9.725247383117676,1.2509703636169434,0.0196974016726017,0.0053236219100654125,0.0005323622026480734
2650695145350,1.194706678390503,-9.696516990661621,1.2342109680175781,0.0220930315554142,0.0071868896484375,-0.0010647244052961469
2650696382587,1.212663173675537,-9.75158405303955,1.2749123573303223,0.0196974016726017,0.008783976547420025,-0.0021294488105922937
2650697619862,1.1959037780761719,-9.728838920593262,1.2509703636169434,0.0220930315554142,0.0071868896484375,-0.0015970865497365594
2650698857087,1.194706678390503,-9.703699111938477,1.292868971824646,0.01783413253724575,0.010647243820130825,0.0018632676219567657
2650700094350,1.1803414821624756,-9.715670585632324,1.2844892740249634,0.02129448764026165,0.0053236219100654125,0.0015970865497365594
2650701331625,1.1982979774475098,-9.734824180603027,1.2725181579589844,0.02022976242005825,0.007453070487827063,0.0042588976211845875
2650702568887,1.2078747749328613,-9.75278091430664,1.2761094570159912,0.0204959437251091,0.0090501569211483,-0.0015970865497365594
2650703806137,1.1779472827911377,-9.7420072555542,1.2749123573303223,0.01943122036755085,0.006122165359556675,0.0010647244052961469
2650705043387,1.2210428714752197,-9.743204116821289,1.258152961730957,0.02022976242005825,0.0071868896484375,0.0010647244052961469
2650706280650,1.1994950771331787,-9.72165584564209,1.2629413604736328,0.0204959437251091,0.00452507846057415,0.0053236219100654125
2650707517887,1.1971008777618408,-9.763554573059082,1.2617442607879639,0.0234239362180233,0.0023956298828125,0.0010647244052961469
2650708755137,1.2413935661315918,-9.715670585632324,1.2330138683319092,0.0223592109978199,0.0037265352439135313,-0.0010647244052961469
2650709992425,1.2461819648742676,-9.75517463684082,1.2713210582733154,0.02129448764026165,0.00692070834338665,0.00452507846057415
2650711229662,1.2413935661315918,-9.740809440612793,1.2533645629882812,0.0223592109978199,0.006122165359556675,0.0042588976211845875
2650712466950,1.2078747749328613,-9.728838920593262,1.2677297592163086,0.0191650390625,0.006122165359556675,0.0021294488105922937
2650713704187,1.212663173675537,-9.731232643127441,1.3024457693099976,0.02262539230287075,0.005057440605014563,0.0026618109550327063
2650714941450,1.256955862045288,-9.718064308166504,1.2737152576446533,0.0220930315554142,0.01171196810901165,0.0015970865497365594
2650716178700,1.2342109680175781,-9.744400978088379,1.2677297592163086,0.02022976242005825,0.010114881210029125,-0.0010647244052961469
2650717415950,1.2006921768188477,-9.720458984375,1.3227964639663696,0.0268842913210392,0.003460354171693325,-0.0002661811013240367
2650718653212,1.2054805755615234,-9.714473724365234,1.2952631711959839,0.02741665206849575,0.0053236219100654125,0.0005323622026480734
2650719890475,1.216254472732544,-9.737218856811523,1.2713210582733154,0.0252872034907341,0.00452507846057415,0.003460354171693325
2650721127737,1.2222399711608887,-9.763554573059082,1.2521674633026123,0.02741665206849575,0.006122165359556675,-0.005589802749454975
2650722364975,1.1839327812194824,-9.764751434326172,1.2976573705673218,0.02262539230287075,0.0063883461989462376,0.0005323622026480734
2650723602237,1.237802267074585,-9.758766174316406,1.3108254671096802,0.0247548408806324,0.004791259765625,0.0031941730994731188
2650724839500,1.1959037780761719,-9.738415718078613,1.236605167388916,0.02848137728869915,0.006122165359556675,0.0023956298828125
2650726076750,1.2042834758758545,-9.756372451782227,1.2042834758758545,0.02182685025036335,0.00452507846057415,0.0007985432748682797
2650727314012,1.216254472732544,-9.75278091430664,1.3239935636520386,0.0295461006462574,0.007985432632267475,0.007985432632267475
2650728551275,1.191115379333496,-9.72165584564209,1.2832921743392944,0.0306108258664608,0.00931633822619915,0.007453070487827063
2650729788525,1.2246341705322266,-9.759963035583496,1.2820950746536255,0.0295461006462574,0.00984870083630085,0.0021294488105922937
2650731025787,1.2270283699035645,-9.783905029296875,1.2952631711959839,0.02848137728869915,0.00452507846057415,0.0023956298828125
2650732263050,1.2401964664459229,-9.75517463684082,1.3048399686813354,0.02315775491297245,0.004791259765625,0.0015970865497365594
2650733500300,1.215057373046875,-9.744400978088379,1.2761094570159912,0.02182685025036335,0.008517795242369175,0.0021294488105922937
2650734737562,1.213860273361206,-9.782708168029785,1.3072341680526733,0.02502102218568325,0.01224433071911335,0.0039927163161337376
2650735974825,1.2210428714752197,-9.774328231811523,1.315613865852356,0.0295461006462574,0.00984870083630085,0.0015970865497365594
2650737212062,1.2018892765045166,-9.771934509277344,1.3072341680526733,0.0276828333735466,0.00931633822619915,-0.0018632676219567657
2650738449337,1.1875240802764893,-9.818621635437012,1.3000515699386597,0.02874755859375,0.00931633822619915,0.0026618109550327063
2650739686587,1.1827356815338135,-9.798270225524902,1.2749123573303223,0.03034464456140995,0.014906140975654125,0.0015970865497365594
2650740923837,1.2234370708465576,-9.785102844238281,1.3072341680526733,0.0276828333735466,0.01171196810901165,-0.0037265352439135313
2650742161100,1.2425906658172607,-9.769539833068848,1.3096283674240112,0.02076212503015995,0.012510511092841625,-0.003460354171693325
2650743398350,1.236605167388916,-9.774328231811523,1.3000515699386597,0.02422248013317585,0.0066545275039970875,0.0021294488105922937
2650744635600,1.2294225692749023,-9.783905029296875,1.3012486696243286,0.02848137728869915,0.0015970865497365594,0.004791259765625
2650745872875,1.2342109680175781,-9.785102844238281,1.338358759880066,0.0263519287109375,0.004791259765625,0.0013309054775163531
2650747110125,1.2425906658172607,-9.7791166305542,1.3251906633377075,0.0204959437251091,0.0077192517928779125,0.0010647244052961469
2650748347387,1.236605167388916,-9.829395294189453,1.294066071510315,0.02502102218568325,0.008251613937318325,-0.0002661811013240367
2650749584650,1.2425906658172607,-9.78869342803955,1.2749123573303223,0.02129448764026165,0.008517795242369175,0.0
2650750821900,1.2318167686462402,-9.81024169921875,1.2892776727676392,0.02555338479578495,0.00452507846057415,0.0037265352439135313
2650752059162,1.2545616626739502,-9.797073364257812,1.2832921743392944,0.02741665206849575,0.0039927163161337376,0.0002661811013240367
2650753296412,1.235408067703247,-9.785102844238281,1.3024457693099976,0.02182685025036335,0.0026618109550327063,0.0042588976211845875
2650754533662,1.217451572418213,-9.827000617980957,1.2713210582733154,0.0191650390625,0.0037265352439135313,0.003460354171693325
2650755770925,1.2521674633026123,-9.859322547912598,1.3000515699386597,0.02182685025036335,0.0053236219100654125,0.0026618109550327063
2650757008187,1.2653355598449707,-9.815030097961426,1.2473790645599365,0.0234239362180233,0.008251613937318325,0.0026618109550327063
2650758245450,1.217451572418213,-9.840168952941895,1.3227964639663696,0.0196974016726017,0.0063883461989462376,0.0013309054775163531
2650759482687,1.217451572418213,-9.799468040466309,1.3479355573654175,0.02182685025036335,0.012510511092841625,0.0042588976211845875
2650760719962,1.2342109680175781,-9.81263542175293,1.3263877630233765,0.01703559048473835,0.014906140975654125,-0.0010647244052961469
2650761957200,1.2066776752471924,-9.817423820495605,1.3024457693099976,0.01650322787463665,0.004791259765625,0.0005323622026480734
2650763194462,1.1863269805908203,-9.765949249267578,1.3000515699386597,0.0223592109978199,0.0026618109550327063,0.008517795242369175
2650764431737,1.2342109680175781,-9.858125686645508,1.2868834733963013,0.02262539230287075,0.0029279920272529125,0.0066545275039970875
2650765668975,1.1659762859344482,-9.818621635437012,1.3084312677383423,0.02076212503015995,0.004791259765625,0.0023956298828125
2650766906237,1.1587936878204346,-9.793481826782227,1.2880805730819702,0.0204959437251091,0.010114881210029125,-0.0010647244052961469
2650768143487,1.1767501831054688,-9.848548889160156,1.2725181579589844,0.0167694091796875,0.008783976547420025,0.00452507846057415
2650769380762,1.1875240802764893,-9.791088104248047,1.3479355573654175,0.01410759799182415,0.00931633822619915,-0.0002661811013240367
2650770618000,1.2234370708465576,-9.798270225524902,1.3036428689956665,0.0138414166867733,0.010647243820130825,0.0026618109550327063
2650771855275,1.192312479019165,-9.792284965515137,1.294066071510315,0.0157046839594841,0.01117960549890995,0.0029279920272529125
2650773092525,1.1647791862487793,-9.791088104248047,1.2725181579589844,0.0191650390625,0.008783976547420025,0.0039927163161337376
2650774329775,1.1803414821624756,-9.84376049041748,1.2761094570159912,0.01171196810901165,0.014373779296875,0.0026618109550327063
2650775567037,1.215057373046875,-9.799468040466309,1.2725181579589844,0.01171196810901165,0.012510511092841625,0.0021294488105922937
2650776804312,1.1971008777618408,-9.795876502990723,1.3263877630233765,0.013042873702943325,0.006122165359556675,0.006122165359556675
2650778041562,1.2042834758758545,-9.834183692932129,1.3239935636520386,0.008517795242369175,0.007453070487827063,0.0018632676219567657
2650779278812,1.2318167686462402,-9.821015357971191,1.290474772453308,0.007453070487827063,0.01171196810901165,0.0026618109550327063
2650780516050,1.212663173675537,-9.84615421295166,1.2773066759109497,0.010913425125181675,0.0010647244052961469,-0.00452507846057415
2650781753325,1.2234370708465576,-9.78869342803955,1.3204022645950317,0.005589802749454975,0.007985432632267475,-0.0018632676219567657
2650782990562,1.216254472732544,-9.824606895446777,1.3084312677383423,0.005855984054505825,0.008517795242369175,-0.0018632676219567657
2650784227837,1.169567584991455,-9.817423820495605,1.291671872138977,0.0053236219100654125,0.008251613937318325,-0.0007985432748682797
2650785465100,1.1839327812194824,-9.782708168029785,1.2641384601593018,0.008251613937318325,0.0077192517928779125,0.005589802749454975
2650786702350,1.169567584991455,-9.78869342803955,1.2832921743392944,0.0031941730994731188,0.00958251953125,0.0002661811013240367
2650787939600,1.2042834758758545,-9.795876502990723,1.3527239561080933,0.0053236219100654125,0.012510511092841625,0.0026618109550327063
2650789176850,1.1791443824768066,-9.789891242980957,1.2952631711959839,0.007985432632267475,0.014373779296875,0.0031941730994731188
2650790414112,1.2006921768188477,-9.773131370544434,1.294066071510315,0.01171196810901165,0.01117960549890995,0.005855984054505825
2650791651375,1.1851298809051514,-9.780314445495605,1.313219666481018,0.005057440605014563,0.01171196810901165,0.006122165359556675
2650792888625,1.1575965881347656,-9.75158405303955,1.3012486696243286,0.0002661811013240367,0.01117960549890995,0.005589802749454975
2650794125875,1.1982979774475098,-9.774328231811523,1.3060370683670044,0.0013309054775163531,0.013042873702943325,0.0042588976211845875
2650795363137,1.2258312702178955,-9.75397777557373,1.3108254671096802,0.003460354171693325,0.01224433071911335,0.00452507846057415
2650796600375,1.2078747749328613,-9.794679641723633,1.3251906633377075,-0.0029279920272529125,0.0114457868039608,0.0039927163161337376
2650797837675,1.2066776752471924,-9.81263542175293,1.2976573705673218,-0.0013309054775163531,0.012776692397892475,0.0037265352439135313
2650799074912,1.1659762859344482,-9.781511306762695,1.3072341680526733,-0.0029279920272529125,0.010913425125181675,0.008251613937318325
2650800312175,1.2198457717895508,-9.84615421295166,1.2832921743392944,-0.0023956298828125,0.005057440605014563,0.008783976547420025
2650801549425,1.1982979774475098,-9.861717224121094,1.290474772453308,-0.0026618109550327063,0.01597086526453495,0.0066545275039970875
2650802786662,1.2030863761901855,-9.847352027893066,1.3299790620803833,-0.0037265352439135313,0.01597086526453495,0.0029279920272529125
2650804023950,1.1875240802764893,-9.831789016723633,1.2844892740249634,-0.0063883461989462376,0.00984870083630085,0.005855984054505825
2650805261187,1.2054805755615234,-9.804256439208984,1.256955862045288,-0.0066545275039970875,0.01117960549890995,0.005855984054505825
2650806498450,1.1659762859344482,-9.830592155456543,1.3084312677383423,-0.0037265352439135313,0.0173017717897892,0.0077192517928779125
2650807735700,1.170764684677124,-9.84376049041748,1.292868971824646,-0.0063883461989462376,0.01756795309484005,0.0138414166867733
2650808972962,1.1899182796478271,-9.799468040466309,1.3180080652236938,-0.00958251953125,0.01597086526453495,0.010381062515079975
2650810210225,1.2330138683319092,-9.77672290802002,1.2964602708816528,-0.02022976242005825,0.0173017717897892,0.004791259765625
2650811447462,1.2042834758758545,-9.7791166305542,1.2952631711959839,-0.012776692397892475,0.014906140975654125,0.008251613937318325
2650812684725,1.2030863761901855,-9.828198432922363,1.2868834733963013,-0.010913425125181675,0.013042873702943325,0.007985432632267475
2650813922000,1.1994950771331787,-9.84615421295166,1.291671872138977,-0.01463996060192585,0.01703559048473835,0.012776692397892475
2650815159250,1.2006921768188477,-9.816226959228516,1.256955862045288,-0.0196974016726017,0.0191650390625,0.01597086526453495
2650816396512,1.2090718746185303,-9.767146110534668,1.2653355598449707,-0.0181003138422966,0.01650322787463665,0.010913425125181675
2650817633762,1.1971008777618408,-9.815030097961426,1.2521674633026123,-0.015172322280704975,0.012776692397892475,0.01410759799182415
2650818871025,1.1671733856201172,-9.77672290802002,1.256955862045288,-0.0215606689453125,0.010381062515079975,0.010913425125181675
2650820108262,1.2054805755615234,-9.80904483795166,1.2617442607879639,-0.01943122036755085,0.014373779296875,0.013309055007994175
2650821345525,1.2090718746185303,-9.81024169921875,1.2713210582733154,-0.01171196810901165,0.013309055007994175,0.015172322280704975
2650822582812,1.213860273361206,-9.773131370544434,1.2988544702529907,-0.01650322787463665,0.010114881210029125,0.0138414166867733
2650823820050,1.1971008777618408,-9.736021041870117,1.3036428689956665,-0.01996358297765255,0.00984870083630085,0.0119781494140625
2650825057312,1.2318167686462402,-9.725247383117676,1.3000515699386597,-0.0223592109978199,0.012776692397892475,0.013309055007994175
2650826294537,1.259350061416626,-9.744400978088379,1.2689268589019775,-0.0204959437251091,0.0119781494140625,0.0191650390625
2650827531825,1.2270283699035645,-9.734824180603027,1.2737152576446533,-0.0191650390625,0.010913425125181675,0.023956298828125
2650828769075,1.191115379333496,-9.773131370544434,1.2689268589019775,-0.0210283063352108,0.01410759799182415,0.0215606689453125
2650830006325,1.1994950771331787,-9.728838920593262,1.2629413604736328,-0.02741665206849575,0.0077192517928779125,0.0167694091796875
2650831243575,1.2342109680175781,-9.745597839355469,1.2449848651885986,-0.01889885775744915,0.014373779296875,0.0196974016726017
2650832480837,1.193509578704834,-9.77552604675293,1.2521674633026123,-0.0215606689453125,0.01117960549890995,0.02022976242005825
2650833718112,1.2078747749328613,-9.770737648010254,1.2521674633026123,-0.0263519287109375,0.015438503585755825,0.01650322787463665
2650834955362,1.2485761642456055,-9.75397777557373,1.2533645629882812,-0.0210283063352108,0.02129448764026165,0.0215606689453125
2650836192625,1.2437877655029297,-9.771934509277344,1.2653355598449707,-0.0210283063352108,0.0162370465695858,0.02022976242005825
2650837429875,1.1540051698684692,-9.77791976928711,1.2832921743392944,-0.0228915736079216,0.010114881210029125,0.0167694091796875
2650838667125,1.1875240802764893,-9.731232643127441,1.2342109680175781,-0.0173017717897892,0.014373779296875,0.0191650390625
2650839904387,1.217451572418213,-9.758766174316406,1.2318167686462402,-0.02422248013317585,0.01224433071911335,0.01463996060192585
2650841141650,1.2102689743041992,-9.75278091430664,1.291671872138977,-0.02129448764026165,0.01357523538172245,0.02022976242005825
2650842378912,1.2258312702178955,-9.724050521850586,1.2952631711959839,-0.0204959437251091,0.010114881210029125,0.01996358297765255
2650843616150,1.215057373046875,-9.75278091430664,1.2964602708816528,-0.02315775491297245,0.00958251953125,0.015172322280704975
2650844853412,1.2186486721038818,-9.734824180603027,1.2318167686462402,-0.0244886614382267,0.01357523538172245,0.01650322787463665
2650846090675,1.1971008777618408,-9.7420072555542,1.2306196689605713,-0.02022976242005825,0.012776692397892475,0.01943122036755085
2650847327950,1.2030863761901855,-9.757569313049316,1.2473790645599365,-0.0191650390625,0.0138414166867733,0.0162370465695858
2650848565175,1.193509578704834,-9.738415718078613,1.2880805730819702,-0.01703559048473835,0.01224433071911335,0.01836649514734745
2650849802450,1.1982979774475098,-9.737218856811523,1.2629413604736328,-0.0181003138422966,0.01357523538172245,0.0228915736079216
2650851039700,1.2222399711608887,-9.676166534423828,1.3036428689956665,-0.01889885775744915,0.015438503585755825,0.01756795309484005
2650852276962,1.2222399711608887,-9.728838920593262,1.2964602708816528,-0.0215606689453125,0.014906140975654125,0.01357523538172245
2650853514225,1.1839327812194824,-9.714473724365234,1.2509703636169434,-0.0196974016726017,0.012776692397892475,0.0157046839594841
2650854751500,1.1803414821624756,-9.709685325622559,1.2509703636169434,-0.0167694091796875,0.015438503585755825,0.015438503585755825
2650855988725,1.2222399711608887,-9.747992515563965,1.256955862045288,-0.0167694091796875,0.012776692397892475,0.00984870083630085
2650857225987,1.2066776752471924,-9.731232643127441,1.2868834733963013,-0.0167694091796875,0.010913425125181675,0.01410759799182415
2650858463250,1.216254472732544,-9.713275909423828,1.2521674633026123,-0.0181003138422966,0.01463996060192585,0.0167694091796875
2650859700500,1.2186486721038818,-9.72165584564209,1.2868834733963013,-0.02262539230287075,0.01357523538172245,0.01836649514734745
2650860937762,1.1971008777618408,-9.737218856811523,1.2892776727676392,-0.01756795309484005,0.01357523538172245,0.01650322787463665
2650862175012,1.1851298809051514,-9.712079048156738,1.290474772453308,-0.013042873702943325,0.0181003138422966,0.01703559048473835
2650863412287,1.2006921768188477,-9.710882186889648,1.2653355598449707,-0.0157046839594841,0.01889885775744915,0.010913425125181675
2650864649525,1.2461819648742676,-9.724050521850586,1.259350061416626,-0.0181003138422966,0.015438503585755825,0.00958251953125
2650865886787,1.2090718746185303,-9.695320129394531,1.2964602708816528,-0.014906140975654125,0.01224433071911335,0.013042873702943325
2650867124062,1.1767501831054688,-9.65222454071045,1.2856863737106323,-0.012776692397892475,0.0186326764523983,0.010114881210029125
2650868361312,1.2102689743041992,-9.716867446899414,1.2413935661315918,-0.006122165359556675,0.0157046839594841,0.007985432632267475
2650869598562,1.2234370708465576,-9.671378135681152,1.2306196689605713,-0.008251613937318325,0.0114457868039608,0.007453070487827063
2650870835812,1.1863269805908203,-9.68933391571045,1.2820950746536255,-0.005855984054505825,0.01463996060192585,0.00692070834338665
2650872073062,1.2054805755615234,-9.695320129394531,1.2318167686462402,-0.0077192517928779125,0.0167694091796875,0.0023956298828125
2650873310337,1.2054805755615234,-9.623494148254395,1.2425906658172607,-0.01224433071911335,0.01703559048473835,0.003460354171693325
2650874547587,1.2306196689605713,-9.659406661987305,1.2234370708465576,-0.00692070834338665,0.01756795309484005,0.008517795242369175
2650875784862,1.2509703636169434,-9.649829864501953,1.2425906658172607,-0.0010647244052961469,0.02076212503015995,0.005855984054505825
2650877022100,1.2330138683319092,-9.642647743225098,1.2330138683319092,-0.0023956298828125,0.0162370465695858,0.0023956298828125
2650878259362,1.217451572418213,-9.648633003234863,1.2437877655029297,-0.0010647244052961469,0.0157046839594841,0.0037265352439135313
2650879496625,1.2617442607879639,-9.621099472045898,1.2557587623596191,0.0010647244052961469,0.01463996060192585,0.003460354171693325
2650880733887,1.1779472827911377,-9.65222454071045,1.2785037755966187,-0.0002661811013240367,0.0215606689453125,-0.0005323622026480734
2650881971137,1.2306196689605713,-9.623494148254395,1.3024457693099976,0.0039927163161337376,0.01783413253724575,0.0013309054775163531
2650883208400,1.2509703636169434,-9.635464668273926,1.359906554222107,0.0037265352439135313,0.01756795309484005,-0.0013309054775163531
2650884445662,1.2270283699035645,-9.624691009521484,1.2797008752822876,0.0042588976211845875,0.01463996060192585,-0.0023956298828125
2650885682900,1.2102689743041992,-9.648633003234863,1.2785037755966187,0.004791259765625,0.015438503585755825,-0.0013309054775163531
2650886920175,1.2258312702178955,-9.674968719482422,1.2701239585876465,0.010647243820130825,0.0181003138422966,-0.0037265352439135313
2650888157412,1.238999366760254,-9.651026725769043,1.2964602708816528,0.00984870083630085,0.0173017717897892,-0.004791259765625
2650889394687,1.2557587623596191,-9.618705749511719,1.238999366760254,0.01463996060192585,0.013309055007994175,-0.006122165359556675
2650890631925,1.192312479019165,-9.677363395690918,1.2054805755615234,0.010114881210029125,0.0181003138422966,-0.0013309054775163531
2650891869187,1.2330138683319092,-9.68933391571045,1.2413935661315918,0.01410759799182415,0.0157046839594841,-0.005589802749454975
2650893106462,1.2533645629882812,-9.666589736938477,1.235408067703247,0.0167694091796875,0.01703559048473835,-0.010647243820130825
2650894343712,1.1959037780761719,-9.672574996948242,1.2713210582733154,0.0167694091796875,0.01756795309484005,-0.0090501569211483
2650895580962,1.2186486721038818,-9.667786598205566,1.2509703636169434,0.01463996060192585,0.01783413253724575,-0.0053236219100654125
2650896818225,1.1791443824768066,-9.684545516967773,1.2653355598449707,0.0181003138422966,0.01836649514734745,-0.00692070834338665
2650898055475,1.1959037780761719,-9.731232643127441,1.2892776727676392,0.02022976242005825,0.01756795309484005,-0.0071868896484375
2650899292712,1.2054805755615234,-9.68813705444336,1.2797008752822876,0.0204959437251091,0.01597086526453495,-0.00984870083630085
2650900529987,1.2617442607879639,-9.701305389404297,1.2761094570159912,0.0191650390625,0.014373779296875,-0.005855984054505825
2650901767262,1.2497732639312744,-9.695320129394531,1.2665326595306396,0.0244886614382267,0.01650322787463665,-0.008251613937318325
2650903004500,1.2653355598449707,-9.671378135681152,1.2713210582733154,0.02315775491297245,0.01463996060192585,-0.00984870083630085
2650904241775,1.2294225692749023,-9.674968719482422,1.237802267074585,0.0234239362180233,0.013309055007994175,-0.008517795242369175
2650905479025,1.217451572418213,-9.696516990661621,1.3120225667953491,0.02874755859375,0.0114457868039608,-0.014906140975654125
2650906716287,1.259350061416626,-9.65222454071045,1.2725181579589844,0.0295461006462574,0.01117960549890995,-0.01463996060192585
2650907953537,1.260547161102295,-9.6618013381958,1.2892776727676392,0.02848137728869915,0.012510511092841625,-0.0063883461989462376
2650909190787,1.2557587623596191,-9.680954933166504,1.2725181579589844,0.0263519287109375,0.0186326764523983,-0.010647243820130825
2650910428050,1.2246341705322266,-9.66299819946289,1.2461819648742676,0.0292799212038517,0.012510511092841625,-0.0157046839594841
2650911665312,1.2294225692749023,-9.659406661987305,1.256955862045288,0.0311431884765625,0.014373779296875,-0.0090501569211483
2650912902575,1.2485761642456055,-9.691728591918945,1.259350061416626,0.0327402763068676,0.01703559048473835,-0.00984870083630085
2650914139825,1.2330138683319092,-9.696516990661621,1.2880805730819702,0.0324740931391716,0.0114457868039608,-0.008783976547420025
2650915377100,1.2473790645599365,-9.704896926879883,1.236605167388916,0.0322079136967659,0.014906140975654125,-0.0119781494140625
2650916614362,1.258152961730957,-9.708487510681152,1.236605167388916,0.02981228195130825,0.0162370465695858,-0.0138414166867733
2650917851600,1.2198457717895508,-9.696516990661621,1.2880805730819702,0.02848137728869915,0.00958251953125,-0.010913425125181675
2650919088862,1.2186486721038818,-9.713275909423828,1.2509703636169434,0.02874755859375,0.0119781494140625,-0.01224433071911335
2650920326112,1.2342109680175781,-9.731232643127441,1.2761094570159912,0.0324740931391716,0.013042873702943325,-0.0114457868039608
2650921563362,1.2306196689605713,-9.714473724365234,1.2521674633026123,0.033538818359375,0.012510511092841625,-0.0119781494140625
2650922800637,1.2473790645599365,-9.718064308166504,1.2629413604736328,0.0367329902946949,0.00931633822619915,-0.00958251953125
2650924037875,1.2342109680175781,-9.734824180603027,1.2413935661315918,0.0377977155148983,0.0114457868039608,-0.008517795242369175
2650925275150,1.238999366760254,-9.724050521850586,1.1994950771331787,0.03034464456140995,0.0173017717897892,-0.0037265352439135313
2650926512400,1.2210428714752197,-9.726444244384766,1.3024457693099976,0.0300784632563591,0.01650322787463665,-0.0114457868039608
2650927749650,1.2521674633026123,-9.684545516967773,1.3192051649093628,0.0324740931391716,0.013042873702943325,-0.010647243820130825
2650928986925,1.2701239585876465,-9.75158405303955,1.294066071510315,0.0330064557492733,0.0119781494140625,-0.010913425125181675
2650930224162,1.2749123573303223,-9.696516990661621,1.2497732639312744,0.0356682650744915,0.00452507846057415,-0.0119781494140625
2650931461425,1.2617442607879639,-9.738415718078613,1.3192051649093628,0.0372653529047966,0.012510511092841625,-0.012510511092841625
2650932698712,1.2210428714752197,-9.730035781860352,1.3024457693099976,0.0343373604118824,0.012776692397892475,-0.010913425125181675
2650933935937,1.2533645629882812,-9.72165584564209,1.3036428689956665,0.0346035435795784,0.00958251953125,-0.010114881210029125
2650935173200,1.2270283699035645,-9.724050521850586,1.3108254671096802,0.0338049978017807,0.0119781494140625,-0.0063883461989462376
2650936410462,1.2473790645599365,-9.678560256958008,1.2761094570159912,0.0316755510866642,0.014373779296875,-0.010647243820130825
2650937647725,1.213860273361206,-9.692925453186035,1.2737152576446533,0.0340711809694767,0.013042873702943325,-0.010381062515079975
2650938884975,1.236605167388916,-9.713275909423828,1.2976573705673218,0.0369991734623909,0.00931633822619915,-0.010913425125181675
2650940122237,1.2497732639312744,-9.715670585632324,1.2761094570159912,0.038063894957304,0.010381062515079975,-0.0066545275039970875
2650941359500,1.2521674633026123,-9.683348655700684,1.2713210582733154,0.0369991734623909,0.0090501569211483,-0.008251613937318325
2650942596750,1.216254472732544,-9.72165584564209,1.2713210582733154,0.0324740931391716,0.008783976547420025,-0.0162370465695858
2650943834000,1.238999366760254,-9.72285270690918,1.2557587623596191,0.0404595248401165,0.006122165359556675,-0.01357523538172245
2650945071275,1.216254472732544,-9.68574333190918,1.2461819648742676,0.0407257080078125,0.008783976547420025,-0.00984870083630085
2650946308512,1.2330138683319092,-9.716867446899414,1.2773066759109497,0.0377977155148983,0.013309055007994175,-0.013042873702943325
2650947545775,1.2210428714752197,-9.715670585632324,1.2222399711608887,0.0407257080078125,0.0039927163161337376,-0.0090501569211483
2650948783012,1.2318167686462402,-9.716867446899414,1.2689268589019775,0.0417904332280159,0.012776692397892475,-0.0119781494140625
2650950020287,1.2413935661315918,-9.71926212310791,1.2306196689605713,0.0409918874502182,0.00692070834338665,-0.01224433071911335
2650951257550,1.2545616626739502,-9.684545516967773,1.259350061416626,0.0449846051633358,0.0063883461989462376,-0.01224433071911335
2650952494800,1.2330138683319092,-9.657012939453125,1.3036428689956665,0.0449846051633358,0.008783976547420025,-0.00984870083630085
2650953732062,1.2437877655029297,-9.713275909423828,1.2713210582733154,0.0433875173330307,0.0039927163161337376,-0.01117960549890995
2650954969325,1.2533645629882812,-9.750386238098145,1.2820950746536255,0.0415242500603199,0.006122165359556675,-0.015438503585755825
2650956206587,1.2258312702178955,-9.740809440612793,1.2629413604736328,0.0460493303835392,0.005057440605014563,-0.01410759799182415
2650957443837,1.238999366760254,-9.773131370544434,1.2976573705673218,0.047646414488554,0.00452507846057415,-0.01463996060192585
2650958681100,1.1851298809051514,-9.743204116821289,1.2844892740249634,0.0457831472158432,0.005855984054505825,-0.0138414166867733
2650959918350,1.2306196689605713,-9.785102844238281,1.2545616626739502,0.0433875173330307,0.0026618109550327063,-0.012776692397892475
2650961155612,1.237802267074585,-9.771934509277344,1.2892776727676392,0.0444522425532341,0.0021294488105922937,-0.0090501569211483
2650962392875,1.2030863761901855,-9.774328231811523,1.2785037755966187,0.0495096817612648,0.0077192517928779125,-0.0077192517928779125
2650963630125,1.216254472732544,-9.768342971801758,1.2749123573303223,0.0433875173330307,0.00452507846057415,-0.013309055007994175
2650964867387,1.2653355598449707,-9.764751434326172,1.2844892740249634,0.0455169677734375,0.0026618109550327063,-0.013309055007994175
2650966104637,1.2270283699035645,-9.813833236694336,1.2485761642456055,0.0473802350461483,-0.0005323622026480734,-0.013042873702943325
2650967341912,1.2545616626739502,-9.795876502990723,1.2401964664459229,0.0447184219956398,-0.0026618109550327063,-0.014373779296875
2650968579162,1.2509703636169434,-9.786299705505371,1.2617442607879639,0.038330078125,0.0023956298828125,-0.01597086526453495
2650969816425,1.2186486721038818,-9.800664901733398,1.258152961730957,0.0417904332280159,0.008517795242369175,-0.0138414166867733
2650971053675,1.238999366760254,-9.768342971801758,1.2473790645599365,0.0513729527592659,0.003460354171693325,-0.014906140975654125
2650972290925,1.2509703636169434,-9.71926212310791,1.2832921743392944,0.0484449602663517,0.0015970865497365594,-0.007453070487827063
2650973528187,1.2030863761901855,-9.746795654296875,1.2497732639312744,0.0492435023188591,0.0005323622026480734,-0.008251613937318325
2650974765450,1.2677297592163086,-9.757569313049316,1.2401964664459229,0.0540347620844841,0.0023956298828125,-0.010381062515079975
2650976002712,1.236605167388916,-9.759963035583496,1.2820950746536255,0.0511067695915699,0.0002661811013240367,-0.01117960549890995
2650977239950,1.2509703636169434,-9.71926212310791,1.2497732639312744,0.0481787770986557,-0.0018632676219567657,-0.010114881210029125
2650978477212,1.2473790645599365,-9.718064308166504,1.2437877655029297,0.0513729527592659,0.0039927163161337376,-0.012510511092841625
2650979714475,1.2437877655029297,-9.6989107131958,1.290474772453308,0.0495096817612648,0.0007985432748682797,-0.00692070834338665
2650980951725,1.2054805755615234,-9.676166534423828,1.259350061416626,0.0495096817612648,-0.0018632676219567657,-0.010381062515079975
2650982189012,1.1994950771331787,-9.709685325622559,1.2485761642456055,0.0457831472158432,-0.003460354171693325,-0.013042873702943325
2650983426250,1.237802267074585,-9.706093788146973,1.3215993642807007,0.0497758649289608,-0.0037265352439135313,-0.01224433071911335
2650984663500,1.2042834758758545,-9.682151794433594,1.3108254671096802,0.0500420443713665,-0.0010647244052961469,-0.00931633822619915
2650985900762,1.215057373046875,-9.678560256958008,1.2964602708816528,0.0513729527592659,-0.0005323622026480734,-0.010381062515079975
2650987138012,1.2330138683319092,-9.68574333190918,1.2461819648742676,0.0511067695915699,-0.008517795242369175,-0.005057440605014563
2650988375275,1.2473790645599365,-9.714473724365234,1.3036428689956665,0.057228934019804,-0.005057440605014563,-0.012776692397892475
2650989612537,1.213860273361206,-9.72165584564209,1.2820950746536255,0.0548333041369915,0.0005323622026480734,-0.0071868896484375
2650990849787,1.1851298809051514,-9.728838920593262,1.2617442607879639,0.0508405901491642,-0.0013309054775163531,-0.00692070834338665
2650992087037,1.2294225692749023,-9.740809440612793,1.2461819648742676,0.0569627545773983,-0.0021294488105922937,-0.010114881210029125
2650993324300,1.2066776752471924,-9.713275909423828,1.2653355598449707,0.0590922012925148,-0.0042588976211845875,-0.010381062515079975
2650994561562,1.191115379333496,-9.759963035583496,1.2449848651885986,0.0582936592400074,-0.003460354171693325,-0.01463996060192585
2650995798825,1.2042834758758545,-9.758766174316406,1.2808979749679565,0.0553656667470932,-0.0029279920272529125,-0.012510511092841625
2650997036087,1.1827356815338135,-9.75517463684082,1.2856863737106323,0.0577612966299057,-0.0039927163161337376,-0.01171196810901165
2650998273337,1.2102689743041992,-9.817423820495605,1.2713210582733154,0.0585598424077034,-0.0031941730994731188,-0.007453070487827063
2650999510587,1.2473790645599365,-9.77791976928711,1.2797008752822876,0.0564303919672966,-0.0018632676219567657,-0.00958251953125
2651000747875,1.2246341705322266,-9.78869342803955,1.2689268589019775,0.0537685826420784,-0.0029279920272529125,-0.01224433071911335
2651001985125,1.2653355598449707,-9.77791976928711,1.259350061416626,0.0489773228764534,-0.0002661811013240367,-0.01171196810901165
2651003222350,1.2318167686462402,-9.761160850524902,1.2521674633026123,0.0500420443713665,0.0005323622026480734,-0.008783976547420025
2651004459625,1.235408067703247,-9.749189376831055,1.314416766166687,0.0566965714097023,-0.0042588976211845875,-0.007985432632267475
2651005696875,1.213860273361206,-9.773131370544434,1.3120225667953491,0.0564303919672966,-0.00452507846057415,-0.007985432632267475
2651006934125,1.2222399711608887,-9.803058624267578,1.2342109680175781,0.0516391322016716,-0.008517795242369175,-0.006122165359556675
2651008171400,1.2246341705322266,-9.800664901733398,1.2533645629882812,0.0487111397087574,-0.0010647244052961469,-0.0090501569211483
2651009408650,1.2294225692749023,-9.78869342803955,1.2844892740249634,0.04791259765625,0.0021294488105922937,-0.008783976547420025
2651010645912,1.1959037780761719,-9.771934509277344,1.2509703636169434,0.0543009415268898,-0.0010647244052961469,-0.008251613937318325
2651011883175,1.2102689743041992,-9.798270225524902,1.2737152576446533,0.0532362200319767,-0.00692070834338665,-0.007985432632267475
2651013120425,1.2114660739898682,-9.759963035583496,1.2725181579589844,0.04791259765625,-0.0042588976211845875,-0.0031941730994731188
2651014357687,1.1899182796478271,-9.781511306762695,1.3036428689956665,0.0489773228764534,-0.010647243820130825,-0.0007985432748682797
2651015594937,1.2090718746185303,-9.763554573059082,1.3251906633377075,0.0532362200319767,-0.0077192517928779125,-0.0010647244052961469
2651016832187,1.2090718746185303,-9.785102844238281,1.315613865852356,0.0495096817612648,-0.006122165359556675,-0.0053236219100654125
2651018069450,1.2533645629882812,-9.747992515563965,1.2545616626739502,0.0484449602663517,-0.010114881210029125,-0.0042588976211845875
2651019306712,1.2030863761901855,-9.750386238098145,1.2964602708816528,0.0471140518784523,-0.0063883461989462376,-0.0021294488105922937
2651020543987,1.2102689743041992,-9.765949249267578,1.2868834733963013,0.0473802350461483,-0.0018632676219567657,0.0
2651021781237,1.2425906658172607,-9.747992515563965,1.3060370683670044,0.0497758649289608,-0.005855984054505825,-0.0031941730994731188
2651023018487,1.237802267074585,-9.737218856811523,1.3012486696243286,0.0441860631108284,-0.0066545275039970875,-0.003460354171693325
2651024255762,1.2461819648742676,-9.767146110534668,1.2952631711959839,0.0457831472158432,-0.00958251953125,-0.0007985432748682797
2651025493000,1.2270283699035645,-9.758766174316406,1.3048399686813354,0.0473802350461483,-0.0114457868039608,0.0002661811013240367
2651026730287,1.2629413604736328,-9.738415718078613,1.3180080652236938,0.0492435023188591,-0.00984870083630085,-0.0023956298828125
2651027967525,1.2437877655029297,-9.743204116821289,1.2880805730819702,0.0457831472158432,-0.008783976547420025,-0.0023956298828125
2651029204787,1.236605167388916,-9.737218856811523,1.2761094570159912,0.0444522425532341,-0.010913425125181675,-0.0042588976211845875
2651030442037,1.2066776752471924,-9.691728591918945,1.2749123573303223,0.0481787770986557,-0.01171196810901165,-0.0015970865497365594
2651031679275,1.2186486721038818,-9.684545516967773,1.316810965538025,0.0444522425532341,-0.012510511092841625,-0.0007985432748682797
2651032916562,1.258152961730957,-9.6989107131958,1.2749123573303223,0.0441860631108284,-0.012510511092841625,-0.0021294488105922937
2651034153812,1.2509703636169434,-9.759963035583496,1.3263877630233765,0.042855154722929,-0.008251613937318325,0.0
2651035391075,1.2318167686462402,-9.720458984375,1.3419500589370728,0.04791259765625,-0.015172322280704975,0.0063883461989462376
2651036628337,1.237802267074585,-9.684545516967773,1.2725181579589844,0.0449846051633358,-0.01783413253724575,0.0015970865497365594
2651037865587,1.2401964664459229,-9.718064308166504,1.3287819623947144,0.0393948033452034,-0.01889885775744915,-0.00692070834338665
2651039102837,1.2294225692749023,-9.714473724365234,1.2689268589019775,0.0487111397087574,-0.015172322280704975,-0.003460354171693325
2651040340112,1.217451572418213,-9.680954933166504,1.2964602708816528,0.0489773228764534,-0.01410759799182415,0.0010647244052961469
2651041577362,1.216254472732544,-9.66299819946289,1.3479355573654175,0.0441860631108284,-0.01783413253724575,-0.00452507846057415
2651042814612,1.2485761642456055,-9.678560256958008,1.313219666481018,0.0463155098259449,-0.0210283063352108,-0.0010647244052961469
2651044051875,1.2701239585876465,-9.680954933166504,1.314416766166687,0.042855154722929,-0.0173017717897892,-0.0021294488105922937
2651045289112,1.2401964664459229,-9.740809440612793,1.3479355573654175,0.043121337890625,-0.014906140975654125,-0.003460354171693325
2651046526375,1.2270283699035645,-9.708487510681152,1.3335703611373901,0.047646414488554,-0.013309055007994175,0.0031941730994731188
2651047763650,1.235408067703247,-9.702502250671387,1.3299790620803833,0.0463155098259449,-0.0157046839594841,-0.0007985432748682797
2651049000900,1.2282254695892334,-9.747992515563965,1.3311761617660522,0.0503082275390625,-0.012776692397892475,-0.0026618109550327063
2651050238162,1.2102689743041992,-9.713275909423828,1.3108254671096802,0.0452507846057415,-0.013042873702943325,-0.0063883461989462376
2651051475425,1.2545616626739502,-9.697713851928711,1.2737152576446533,0.0399271659553051,-0.010913425125181675,-0.010114881210029125
2651052712662,1.2401964664459229,-9.726444244384766,1.3335703611373901,0.0460493303835392,-0.01410759799182415,-0.0042588976211845875
2651053949950,1.1971008777618408,-9.731232643127441,1.3395558595657349,0.0417904332280159,-0.01996358297765255,-0.007453070487827063
2651055187187,1.2090718746185303,-9.739612579345703,1.3551181554794312,0.038330078125,-0.01756795309484005,-0.0063883461989462376
2651056424437,1.2294225692749023,-9.749189376831055,1.3623007535934448,0.0425889752805233,-0.0220930315554142,-0.0037265352439135313
2651057661700,1.2306196689605713,-9.757569313049316,1.3180080652236938,0.0449846051633358,-0.02129448764026165,-0.0021294488105922937
2651058898950,1.193509578704834,-9.747992515563965,1.3730746507644653,0.0457831472158432,-0.0181003138422966,-0.0077192517928779125
2651060136237,1.215057373046875,-9.737218856811523,1.3551181554794312,0.0444522425532341,-0.02182685025036335,-0.006122165359556675
2651061373487,1.1899182796478271,-9.726444244384766,1.3838485479354858,0.0439198799431324,-0.01996358297765255,-0.005057440605014563
2651062610762,1.1959037780761719,-9.733627319335938,1.37906014919281,0.0423227921128273,-0.0191650390625,-0.0029279920272529125
2651063848000,1.173158884048462,-9.740809440612793,1.359906554222107,0.0425889752805233,-0.0263519287109375,0.0002661811013240367
2651065085250,1.2222399711608887,-9.749189376831055,1.358709454536438,0.0404595248401165,-0.01703559048473835,-0.0005323622026480734
2651066322500,1.217451572418213,-9.725247383117676,1.3192051649093628,0.0423227921128273,-0.0157046839594841,-0.0037265352439135313
2651067559762,1.2102689743041992,-9.744400978088379,1.3263877630233765,0.0439198799431324,-0.0210283063352108,-0.0002661811013240367
2651068797037,1.2054805755615234,-9.758766174316406,1.2856863737106323,0.0391286201775074,-0.01889885775744915,-0.0053236219100654125
2651070034287,1.2294225692749023,-9.75397777557373,1.3455413579940796,0.0375315360724926,-0.0204959437251091,-0.0031941730994731188
2651071271562,1.1887211799621582,-9.75397777557373,1.359906554222107,0.0391286201775074,-0.02262539230287075,-0.0005323622026480734
2651072508800,1.2042834758758545,-9.782708168029785,1.3730746507644653,0.042855154722929,-0.02076212503015995,0.0002661811013240367
2651073746075,1.2246341705322266,-9.789891242980957,1.3419500589370728,0.0399271659553051,-0.01756795309484005,-0.006122165359556675
2651074983325,1.2318167686462402,-9.730035781860352,1.3742717504501343,0.0439198799431324,-0.0220930315554142,-0.0031941730994731188
2651076220600,1.2413935661315918,-9.774328231811523,1.338358759880066,0.0425889752805233,-0.01836649514734745,-0.0031941730994731188
2651077457837,1.2006921768188477,-9.756372451782227,1.3862427473068237,0.0415242500603199,-0.01889885775744915,-0.004791259765625
2651078695087,1.173158884048462,-9.75397777557373,1.3766659498214722,0.0433875173330307,-0.01943122036755085,-0.0066545275039970875
2651079932375,1.212663173675537,-9.758766174316406,1.3443442583084106,0.0417904332280159,-0.0191650390625,-0.006122165359556675
2651081169612,1.2114660739898682,-9.763554573059082,1.3634978532791138,0.0356682650744915,-0.01756795309484005,-0.0010647244052961469
2651082406875,1.2449848651885986,-9.739612579345703,1.3874398469924927,0.0404595248401165,-0.02422248013317585,-0.0013309054775163531
2651083644125,1.212663173675537,-9.75278091430664,1.3623007535934448,0.038330078125,-0.01996358297765255,-0.0002661811013240367
2651084881400,1.212663173675537,-9.756372451782227,1.4065935611724854,0.0372653529047966,-0.02262539230287075,-0.0063883461989462376
2651086118650,1.2330138683319092,-9.7791166305542,1.3646949529647827,0.0388624407351017,-0.01783413253724575,-0.0071868896484375
2651087355900,1.1899182796478271,-9.773131370544434,1.3503297567367554,0.0401933453977108,-0.0247548408806324,-0.0007985432748682797
2651088593150,1.2234370708465576,-9.749189376831055,1.3862427473068237,0.038063894957304,-0.0220930315554142,-0.0002661811013240367
2651089830412,1.1971008777618408,-9.75517463684082,1.3467384576797485,0.0364668108522892,-0.0234239362180233,-0.0023956298828125
2651091067675,1.2330138683319092,-9.780314445495605,1.335964560508728,0.0399271659553051,-0.0223592109978199,-0.0013309054775163531
2651092304925,1.237802267074585,-9.77552604675293,1.3539210557937622,0.0375315360724926,-0.02076212503015995,-0.0015970865497365594
2651093542200,1.1887211799621582,-9.767146110534668,1.3850456476211548,0.0346035435795784,-0.0210283063352108,-0.0007985432748682797
2651094779462,1.1815385818481445,-9.774328231811523,1.3862427473068237,0.0362006276845932,-0.02422248013317585,-0.00452507846057415
2651096016712,1.1971008777618408,-9.780314445495605,1.3515268564224243,0.0369991734623909,-0.0228915736079216,0.0005323622026480734
2651097253975,1.236605167388916,-9.783905029296875,1.3742717504501343,0.0409918874502182,-0.0244886614382267,0.0007985432748682797
2651098491212,1.2270283699035645,-9.798270225524902,1.3742717504501343,0.0388624407351017,-0.02129448764026165,-0.0007985432748682797
2651099728487,1.2330138683319092,-9.786299705505371,1.3922282457351685,0.0388624407351017,-0.0228915736079216,-0.0029279920272529125
2651100965737,1.2102689743041992,-9.81143856048584,1.3958195447921753,0.0354020856320858,-0.01996358297765255,-0.0031941730994731188
2651102203000,1.2629413604736328,-9.791088104248047,1.3994109630584717,0.0367329902946949,-0.02182685025036335,0.00452507846057415
2651103440262,1.2042834758758545,-9.84615421295166,1.3754688501358032,0.0385962575674057,-0.0252872034907341,0.0031941730994731188
2651104677512,1.2210428714752197,-9.84615421295166,1.3730746507644653,0.0346035435795784,-0.0210283063352108,-0.0015970865497365594
2651105914775,1.1671733856201172,-9.816226959228516,1.4030022621154785,0.03087700717151165,-0.02076212503015995,0.0010647244052961469
2651107152037,1.2030863761901855,-9.78869342803955,1.4006080627441406,0.0351359061896801,-0.0234239362180233,0.0042588976211845875
2651108389287,1.2306196689605713,-9.804256439208984,1.3718775510787964,0.0311431884765625,-0.0210283063352108,0.0063883461989462376
2651109626537,1.235408067703247,-9.818621635437012,1.3910311460494995,0.0316755510866642,-0.0186326764523983,0.0071868896484375
2651110863825,1.2246341705322266,-9.804256439208984,1.3742717504501343,0.0327402763068676,-0.0196974016726017,0.00452507846057415
2651112101062,1.2437877655029297,-9.789891242980957,1.3862427473068237,0.0247548408806324,-0.02422248013317585,0.003460354171693325
2651113338337,1.2641384601593018,-9.815030097961426,1.3706804513931274,0.0263519287109375,-0.02262539230287075,0.0018632676219567657
2651114575575,1.217451572418213,-9.803058624267578,1.4245500564575195,0.0252872034907341,-0.0162370465695858,0.0026618109550327063
2651115812850,1.2425906658172607,-9.797073364257812,1.4113819599151611,0.0282151959836483,-0.0196974016726017,0.0039927163161337376
2651117050087,1.2090718746185303,-9.789891242980957,1.4030022621154785,0.0252872034907341,-0.0223592109978199,0.0053236219100654125
2651118287375,1.2006921768188477,-9.822212219238281,1.3970166444778442,0.0276828333735466,-0.02369011752307415,0.0037265352439135313
2651119524612,1.260547161102295,-9.77672290802002,1.4209587574005127,0.0234239362180233,-0.0223592109978199,0.0015970865497365594
2651120761875,1.2797008752822876,-9.786299705505371,1.382651448249817,0.0215606689453125,-0.01756795309484005,0.0042588976211845875
2651121999125,1.2808979749679565,-9.780314445495605,1.4089877605438232,0.0234239362180233,-0.0181003138422966,0.0053236219100654125
2651123236387,1.2461819648742676,-9.767146110534668,1.4628572463989258,0.02608574740588665,-0.0186326764523983,0.007453070487827063
2651124473662,1.2725181579589844,-9.789891242980957,1.3934253454208374,0.02422248013317585,-0.0228915736079216,0.006122165359556675
2651125710900,1.2533645629882812,-9.792284965515137,1.382651448249817,0.02315775491297245,-0.02022976242005825,0.004791259765625
2651126948150,1.2545616626739502,-9.75517463684082,1.3910311460494995,0.0247548408806324,-0.0220930315554142,0.008251613937318325
2651128185425,1.2713210582733154,-9.764751434326172,1.3718775510787964,0.0210283063352108,-0.02129448764026165,0.005589802749454975
2651129422700,1.2330138683319092,-9.757569313049316,1.381454348564148,0.0191650390625,-0.01996358297765255,0.005589802749454975
2651130659937,1.238999366760254,-9.739612579345703,1.3778630495071411,0.02369011752307415,-0.0210283063352108,0.00931633822619915
2651131897200,1.2689268589019775,-9.762357711791992,1.4089877605438232,0.0215606689453125,-0.0204959437251091,0.010913425125181675
2651133134450,1.216254472732544,-9.75517463684082,1.3922282457351685,0.02182685025036335,-0.0204959437251091,0.0063883461989462376
2651134371712,1.1982979774475098,-9.759963035583496,1.381454348564148,0.0220930315554142,-0.0220930315554142,0.0119781494140625
2651135608962,1.2018892765045166,-9.785102844238281,1.4113819599151611,0.02502102218568325,-0.02502102218568325,0.0162370465695858
2651136846237,1.217451572418213,-9.798270225524902,1.3862427473068237,0.0181003138422966,-0.014373779296875,0.010913425125181675
2651138083487,1.2425906658172607,-9.767146110534668,1.4472949504852295,0.01996358297765255,-0.0215606689453125,0.010381062515079975
2651139320737,1.1552022695541382,-9.75278091430664,1.4233529567718506,0.01943122036755085,-0.02608574740588665,0.00692070834338665
2651140558012,1.1815385818481445,-9.740809440612793,1.3994109630584717,0.0181003138422966,-0.02315775491297245,0.0090501569211483
2651141795287,1.1815385818481445,-9.765949249267578,1.4329297542572021,0.0223592109978199,-0.01597086526453495,0.01117960549890995
2651143032537,1.215057373046875,-9.75517463684082,1.4233529567718506,0.01836649514734745,-0.0138414166867733,0.010913425125181675
2651144269775,1.1767501831054688,-9.768342971801758,1.3898340463638306,0.0223592109978199,-0.01597086526453495,0.0090501569211483
2651145507037,1.2222399711608887,-9.764751434326172,1.4293384552001953,0.0181003138422966,-0.01357523538172245,0.010381062515079975
2651146744300,1.2258312702178955,-9.75517463684082,1.436521053314209,0.0173017717897892,-0.01756795309484005,0.0138414166867733
2651147981550,1.1743559837341309,-9.799468040466309,1.4233529567718506,0.0167694091796875,-0.0186326764523983,0.015438503585755825
2651149218825,1.2258312702178955,-9.786299705505371,1.4185645580291748,0.01783413253724575,-0.014906140975654125,0.01171196810901165
2651150456062,1.2485761642456055,-9.749189376831055,1.3658920526504517,0.02076212503015995,-0.014906140975654125,0.0114457868039608
2651151693325,1.238999366760254,-9.763554573059082,1.4006080627441406,0.02262539230287075,-0.0196974016726017,0.0157046839594841
2651152930587,1.2102689743041992,-9.747992515563965,1.4209587574005127,0.0196974016726017,-0.01889885775744915,0.010114881210029125
2651154167837,1.2066776752471924,-9.738415718078613,1.3922282457351685,0.01410759799182415,-0.015438503585755825,0.0119781494140625
2651155405112,1.2413935661315918,-9.75517463684082,1.414973258972168,0.01703559048473835,-0.01357523538172245,0.015172322280704975
2651156642350,1.2102689743041992,-9.712079048156738,1.4030022621154785,0.0157046839594841,-0.014373779296875,0.00931633822619915
2651157879637,1.2090718746185303,-9.7420072555542,1.3862427473068237,0.0157046839594841,-0.01117960549890995,0.014906140975654125
2651159116887,1.191115379333496,-9.740809440612793,1.4472949504852295,0.0138414166867733,-0.00931633822619915,0.01410759799182415
2651160354150,1.235408067703247,-9.737218856811523,1.4425065517425537,0.01943122036755085,-0.015172322280704975,0.00931633822619915
2651161591387,1.1767501831054688,-9.725247383117676,1.3862427473068237,0.0210283063352108,-0.01171196810901165,0.0066545275039970875
2651162828625,1.2234370708465576,-9.724050521850586,1.3898340463638306,0.01703559048473835,-0.014373779296875,0.0090501569211483
2651164065925,1.2533645629882812,-9.725247383117676,1.4305355548858643,0.01889885775744915,-0.0181003138422966,0.012776692397892475
2651165303187,1.2066776752471924,-9.728838920593262,1.4018051624298096,0.0186326764523983,-0.010913425125181675,0.013042873702943325
2651166540425,1.1743559837341309,-9.731232643127441,1.4209587574005127,0.0119781494140625,-0.008251613937318325,0.01171196810901165
2651167777700,1.1779472827911377,-9.720458984375,1.41257905960083,0.015172322280704975,-0.010381062515079975,0.00958251953125
2651169014950,1.2282254695892334,-9.739612579345703,1.3922282457351685,0.0138414166867733,-0.01171196810901165,0.00931633822619915
2651170252200,1.2234370708465576,-9.768342971801758,1.3730746507644653,0.01889885775744915,-0.01463996060192585,0.00984870083630085
2651171489450,1.1971008777618408,-9.737218856811523,1.3766659498214722,0.0220930315554142,-0.00692070834338665,0.0053236219100654125
2651172726712,1.1647791862487793,-9.694122314453125,1.3730746507644653,0.015438503585755825,-0.0063883461989462376,0.00692070834338665
2651173963975,1.193509578704834,-9.712079048156738,1.3551181554794312,0.014373779296875,-0.010647243820130825,0.010114881210029125
2651175201237,1.2461819648742676,-9.762357711791992,1.358709454536438,0.0191650390625,-0.010114881210029125,0.0071868896484375
2651176438487,1.2102689743041992,-9.749189376831055,1.4065935611724854,0.012510511092841625,-0.0077192517928779125,0.0037265352439135313
2651177675750,1.1971008777618408,-9.707290649414062,1.434126853942871,0.01783413253724575,-0.006122165359556675,0.0053236219100654125
2651178913000,1.1851298809051514,-9.694122314453125,1.3874398469924927,0.01650322787463665,-0.0031941730994731188,0.0053236219100654125
2651180150275,1.217451572418213,-9.6989107131958,1.3670891523361206,0.01756795309484005,-0.0018632676219567657,0.004791259765625
2651181387537,1.192312479019165,-9.68813705444336,1.3910311460494995,0.01410759799182415,-0.0023956298828125,0.00692070834338665
2651182624775,1.194706678390503,-9.709685325622559,1.3718775510787964,0.014906140975654125,0.0018632676219567657,0.0005323622026480734
2651183862050,1.1839327812194824,-9.704896926879883,1.3539210557937622,0.0191650390625,-0.0021294488105922937,0.0023956298828125
2651185099300,1.1875240802764893,-9.706093788146973,1.3527239561080933,0.01996358297765255,-0.00452507846057415,0.0029279920272529125
2651186336562,1.1839327812194824,-9.6989107131958,1.3706804513931274,0.0181003138422966,-0.0029279920272529125,-0.0013309054775163531
2651187573825,1.2090718746185303,-9.737218856811523,1.3527239561080933,0.0119781494140625,0.0013309054775163531,-0.005855984054505825
2651188811087,1.191115379333496,-9.701305389404297,1.3694833517074585,0.0196974016726017,-0.0005323622026480734,-0.003460354171693325
2651190048337,1.1887211799621582,-9.728838920593262,1.3563152551651,0.0181003138422966,-0.004791259765625,-0.0026618109550327063
2651191285587,1.1683704853057861,-9.716867446899414,1.3407529592514038,0.0186326764523983,-0.0005323622026480734,-0.0077192517928779125
2651192522850,1.1899182796478271,-9.736021041870117,1.3682862520217896,0.0191650390625,-0.0021294488105922937,-0.0053236219100654125
2651193760112,1.191115379333496,-9.6989107131958,1.4041993618011475,0.01889885775744915,0.0013309054775163531,0.0021294488105922937
2651194997375,1.1815385818481445,-9.730035781860352,1.3742717504501343,0.01703559048473835,-0.0002661811013240367,0.0013309054775163531
2651196234625,1.1264718770980835,-9.700108528137207,1.3730746507644653,0.0167694091796875,-0.0013309054775163531,-0.0010647244052961469
2651197471887,1.1599907875061035,-9.716867446899414,1.382651448249817,0.02262539230287075,0.003460354171693325,-0.0005323622026480734
2651198709162,1.1755530834197998,-9.724050521850586,1.3838485479354858,0.023956298828125,0.0007985432748682797,-0.0023956298828125
2651199946400,1.2198457717895508,-9.747992515563965,1.380257248878479,0.01783413253724575,-0.0018632676219567657,0.0007985432748682797
2651201183650,1.1683704853057861,-9.770737648010254,1.416170358657837,0.02076212503015995,0.0015970865497365594,-0.0023956298828125
2651202420912,1.194706678390503,-9.757569313049316,1.3946224451065063,0.01650322787463665,0.0010647244052961469,-0.0119781494140625
2651203658162,1.2270283699035645,-9.771934509277344,1.3946224451065063,0.01650322787463665,0.005057440605014563,-0.010114881210029125
2651204895425,1.1971008777618408,-9.75158405303955,1.3898340463638306,0.0157046839594841,0.0042588976211845875,-0.0005323622026480734
2651206132687,1.191115379333496,-9.747992515563965,1.359906554222107,0.02076212503015995,0.0021294488105922937,-0.0042588976211845875
2651207369937,1.170764684677124,-9.761160850524902,1.3958195447921753,0.0258195661008358,0.0031941730994731188,-0.008783976547420025
2651208607200,1.1959037780761719,-9.78869342803955,1.3623007535934448,0.02022976242005825,0.003460354171693325,-0.0023956298828125
2651209844475,1.1994950771331787,-9.780314445495605,1.3922282457351685,0.01836649514734745,0.006122165359556675,-0.005057440605014563
2651211081725,1.1599907875061035,-9.780314445495605,1.380257248878479,0.02022976242005825,0.005057440605014563,-0.005855984054505825
2651212319000,1.216254472732544,-9.793481826782227,1.3994109630584717,0.01650322787463665,0.0039927163161337376,-0.0066545275039970875
2651213556212,1.2294225692749023,-9.773131370544434,1.381454348564148,0.0220930315554142,0.00984870083630085,-0.0037265352439135313
2651214793500,1.2210428714752197,-9.7791166305542,1.380257248878479,0.02022976242005825,0.008517795242369175,-0.0071868896484375
2651216030775,1.1827356815338135,-9.765949249267578,1.3611036539077759,0.015172322280704975,0.00958251953125,-0.005589802749454975
2651217268025,1.1468225717544556,-9.747992515563965,1.43532395362854,0.01756795309484005,0.0066545275039970875,-0.0063883461989462376
2651218505275,1.1659762859344482,-9.743204116821289,1.3862427473068237,0.0196974016726017,0.003460354171693325,-0.007985432632267475
2651219742550,1.1899182796478271,-9.725247383117676,1.416170358657837,0.01889885775744915,0.0053236219100654125,-0.005057440605014563
2651220979775,1.1779472827911377,-9.744400978088379,1.3551181554794312,0.0210283063352108,0.013309055007994175,-0.0037265352439135313
2651222217050,1.1647791862487793,-9.724050521850586,1.3850456476211548,0.023956298828125,0.008517795242369175,-0.0042588976211845875
2651223454312,1.193509578704834,-9.712079048156738,1.3898340463638306,0.01836649514734745,0.01171196810901165,-0.008783976547420025
2651224691575,1.1875240802764893,-9.716867446899414,1.4245500564575195,0.02076212503015995,0.007985432632267475,-0.0071868896484375
2651225928825,1.2210428714752197,-9.733627319335938,1.3742717504501343,0.0196974016726017,0.00692070834338665,-0.0071868896484375
2651227166075,1.2533645629882812,-9.744400978088379,1.3862427473068237,0.01703559048473835,0.0090501569211483,-0.003460354171693325
2651228403337,1.2545616626739502,-9.734824180603027,1.3982137441635132,0.02422248013317585,0.0114457868039608,-0.008517795242369175
2651229640600,1.1659762859344482,-9.749189376831055,1.3718775510787964,0.0210283063352108,0.01357523538172245,-0.0063883461989462376
2651230877862,1.2078747749328613,-9.718064308166504,1.3994109630584717,0.0157046839594841,0.010381062515079975,-0.010647243820130825
2651232115100,1.1982979774475098,-9.732430458068848,1.3838485479354858,0.0181003138422966,0.013042873702943325,-0.00984870083630085
2651233352375,1.1779472827911377,-9.718064308166504,1.4030022621154785,0.01597086526453495,0.010381062515079975,-0.013309055007994175
2651234589625,1.2198457717895508,-9.740809440612793,1.3946224451065063,0.02369011752307415,0.0090501569211483,-0.008783976547420025
2651235826887,1.2090718746185303,-9.732430458068848,1.3946224451065063,0.0220930315554142,0.010381062515079975,-0.005057440605014563
2651237064150,1.1959037780761719,-9.733627319335938,1.4101848602294922,0.02182685025036335,0.010381062515079975,-0.0114457868039608
2651238301400,1.2066776752471924,-9.713275909423828,1.3970166444778442,0.0215606689453125,0.0119781494140625,-0.013309055007994175
2651239538662,1.2210428714752197,-9.740809440612793,1.3623007535934448,0.0228915736079216,0.013309055007994175,-0.00692070834338665
2651240775925,1.258152961730957,-9.77552604675293,1.4077906608581543,0.02076212503015995,0.010381062515079975,-0.013309055007994175
2651242013187,1.2066776752471924,-9.712079048156738,1.3982137441635132,0.01836649514734745,0.0090501569211483,-0.013309055007994175
2651243250412,1.2210428714752197,-9.765949249267578,1.4041993618011475,0.0220930315554142,0.014906140975654125,-0.014906140975654125
2651244487700,1.2641384601593018,-9.726444244384766,1.3898340463638306,0.0196974016726017,0.01597086526453495,-0.0119781494140625
2651245724950,1.237802267074585,-9.716867446899414,1.416170358657837,0.0173017717897892,0.01410759799182415,-0.01224433071911335
2651246962212,1.2102689743041992,-9.7420072555542,1.4018051624298096,0.0173017717897892,0.01783413253724575,-0.013042873702943325
2651248199462,1.2066776752471924,-9.72285270690918,1.413776159286499,0.01943122036755085,0.0162370465695858,-0.01410759799182415
2651249436725,1.238999366760254,-9.727641105651855,1.4030022621154785,0.023956298828125,0.01597086526453495,-0.01357523538172245
2651250673987,1.2641384601593018,-9.704896926879883,1.4245500564575195,0.0204959437251091,0.01703559048473835,-0.0119781494140625
2651251911250,1.2210428714752197,-9.700108528137207,1.434126853942871,0.0181003138422966,0.01703559048473835,-0.01650322787463665
2651253148512,1.2306196689605713,-9.710882186889648,1.3982137441635132,0.01836649514734745,0.0167694091796875,-0.01783413253724575
2651254385762,1.236605167388916,-9.706093788146973,1.3946224451065063,0.02182685025036335,0.014373779296875,-0.01117960549890995
2651255623037,1.237802267074585,-9.715670585632324,1.4520833492279053,0.0191650390625,0.010114881210029125,-0.007985432632267475
2651256860262,1.2306196689605713,-9.730035781860352,1.3754688501358032,0.010913425125181675,0.01463996060192585,-0.010381062515079975
2651258097525,1.1827356815338135,-9.712079048156738,1.3922282457351685,0.01889885775744915,0.01836649514734745,-0.01117960549890995
2651259334787,1.1839327812194824,-9.692925453186035,1.3623007535934448,0.0157046839594841,0.0196974016726017,-0.00958251953125
2651260572062,1.2306196689605713,-9.743204116821289,1.4317326545715332,0.01889885775744915,0.0162370465695858,-0.0071868896484375
2651261809312,1.1994950771331787,-9.750386238098145,1.3970166444778442,0.0186326764523983,0.01357523538172245,-0.008783976547420025
2651263046575,1.1755530834197998,-9.783905029296875,1.4006080627441406,0.01703559048473835,0.01783413253724575,-0.01463996060192585
2651264283812,1.2210428714752197,-9.715670585632324,1.4269442558288574,0.02129448764026165,0.02022976242005825,-0.012776692397892475
2651265521075,1.2413935661315918,-9.736021041870117,1.3706804513931274,0.0196974016726017,0.01756795309484005,-0.008251613937318325
2651266758337,1.2306196689605713,-9.704896926879883,1.4113819599151611,0.01996358297765255,0.01650322787463665,-0.010381062515079975
2651267995600,1.216254472732544,-9.724050521850586,1.3946224451065063,0.01889885775744915,0.01357523538172245,-0.0119781494140625
2651269232862,1.2557587623596191,-9.728838920593262,1.3946224451065063,0.01783413253724575,0.01836649514734745,-0.013309055007994175
2651270470112,1.2473790645599365,-9.696516990661621,1.382651448249817,0.01889885775744915,0.0223592109978199,-0.0114457868039608
2651271707375,1.290474772453308,-9.731232643127441,1.3910311460494995,0.0210283063352108,0.01996358297765255,-0.01171196810901165
2651272944650,1.212663173675537,-9.7420072555542,1.3958195447921753,0.01703559048473835,0.02022976242005825,-0.015172322280704975
2651274181900,1.1887211799621582,-9.734824180603027,1.4173674583435059,0.0191650390625,0.01783413253724575,-0.01463996060192585
2651275419150,1.2234370708465576,-9.743204116821289,1.3766659498214722,0.02129448764026165,0.02129448764026165,-0.0114457868039608
2651276656412,1.235408067703247,-9.740809440612793,1.3718775510787964,0.01943122036755085,0.0210283063352108,-0.015438503585755825
2651277893675,1.2641384601593018,-9.744400978088379,1.4006080627441406,0.0234239362180233,0.01943122036755085,-0.014906140975654125
2651279130925,1.258152961730957,-9.724050521850586,1.3754688501358032,0.02262539230287075,0.02262539230287075,-0.01756795309484005
2651280368187,1.2797008752822876,-9.732430458068848,1.3958195447921753,0.0191650390625,0.02262539230287075,-0.0191650390625
2651281605425,1.2449848651885986,-9.743204116821289,1.3958195447921753,0.01943122036755085,0.0191650390625,-0.014373779296875
2651282842700,1.2808979749679565,-9.731232643127441,1.436521053314209,0.01996358297765255,0.01756795309484005,-0.0157046839594841
2651284079962,1.2773066759109497,-9.765949249267578,1.3766659498214722,0.01703559048473835,0.02022976242005825,-0.02076212503015995
2651285317225,1.2653355598449707,-9.793481826782227,1.3563152551651,0.02262539230287075,0.0263519287109375,-0.01836649514734745
2651286554475,1.2222399711608887,-9.730035781860352,1.4460978507995605,0.01703559048473835,0.0220930315554142,-0.0138414166867733
2651287791737,1.2665326595306396,-9.739612579345703,1.4329297542572021,0.015172322280704975,0.01889885775744915,-0.01357523538172245
2651289028987,1.2725181579589844,-9.780314445495605,1.3658920526504517,0.0191650390625,0.01836649514734745,-0.0162370465695858
2651290266237,1.2964602708816528,-9.763554573059082,1.3742717504501343,0.01756795309484005,0.02129448764026165,-0.01463996060192585
2651291503512,1.2413935661315918,-9.77672290802002,1.4221558570861816,0.01597086526453495,0.0173017717897892,-0.012510511092841625
2651292740787,1.2713210582733154,-9.769539833068848,1.4269442558288574,0.01463996060192585,0.0186326764523983,-0.0181003138422966
2651293978025,1.2677297592163086,-9.797073364257812,1.3503297567367554,0.01171196810901165,0.01836649514734745,-0.02022976242005825
2651295215275,1.2701239585876465,-9.771934509277344,1.382651448249817,0.01224433071911335,0.02182685025036335,-0.0181003138422966
2651296452550,1.2737152576446533,-9.801861763000488,1.3694833517074585,0.014373779296875,0.02369011752307415,-0.0167694091796875
2651297689812,1.2425906658172607,-9.758766174316406,1.3994109630584717,0.008517795242369175,0.0252872034907341,-0.01943122036755085
2651298927062,1.259350061416626,-9.725247383117676,1.4425065517425537,0.01463996060192585,0.01996358297765255,-0.0167694091796875
2651300164300,1.2461819648742676,-9.75158405303955,1.4101848602294922,0.01410759799182415,0.02022976242005825,-0.0181003138422966
2651301401550,1.3299790620803833,-9.737218856811523,1.3850456476211548,0.01224433071911335,0.02076212503015995,-0.01597086526453495
2651302638850,1.2952631711959839,-9.692925453186035,1.4185645580291748,0.008783976547420025,0.02608574740588665,-0.01650322787463665
2651303876087,1.3096283674240112,-9.72285270690918,1.3754688501358032,0.01650322787463665,0.0276828333735466,-0.0191650390625
2651305113337,1.3060370683670044,-9.6618013381958,1.3874398469924927,0.0186326764523983,0.0258195661008358,-0.0204959437251091
2651306350612,1.3227964639663696,-9.713275909423828,1.3982137441635132,0.01463996060192585,0.02369011752307415,-0.0223592109978199
2651307587875,1.2964602708816528,-9.66299819946289,1.3778630495071411,0.02022976242005825,0.0204959437251091,-0.0157046839594841
2651308825137,1.2820950746536255,-9.691728591918945,1.3634978532791138,0.0167694091796875,0.01756795309484005,-0.01597086526453495
2651310062375,1.3192051649093628,-9.660603523254395,1.4018051624298096,0.0162370465695858,0.0204959437251091,-0.01889885775744915
2651311299637,1.3012486696243286,-9.646238327026367,1.416170358657837,0.02129448764026165,0.0234239362180233,-0.02182685025036335
2651312536900,1.3084312677383423,-9.683348655700684,1.4041993618011475,0.01996358297765255,0.01783413253724575,-0.01996358297765255
2651313774150,1.3036428689956665,-9.648633003234863,1.4197616577148438,0.01996358297765255,0.0204959437251091,-0.02076212503015995
2651315011412,1.2964602708816528,-9.666589736938477,1.3838485479354858,0.01996358297765255,0.02369011752307415,-0.012776692397892475
2651316248675,1.334767460823059,-9.649829864501953,1.4233529567718506,0.02129448764026165,0.0196974016726017,-0.01410759799182415
2651317485950,1.2952631711959839,-9.676166534423828,1.3623007535934448,0.0247548408806324,0.0167694091796875,-0.0244886614382267
2651318723200,1.3527239561080933,-9.655815124511719,1.4006080627441406,0.02369011752307415,0.01783413253724575,-0.01996358297765255
2651319960450,1.2808979749679565,-9.683348655700684,1.3886369466781616,0.0196974016726017,0.0244886614382267,-0.0181003138422966
2651321197712,1.2964602708816528,-9.703699111938477,1.3910311460494995,0.02422248013317585,0.01996358297765255,-0.0186326764523983
2651322434975,1.2868834733963013,-9.68574333190918,1.4006080627441406,0.0220930315554142,0.0162370465695858,-0.01943122036755085
2651323672212,1.3287819623947144,-9.66539192199707,1.3862427473068237,0.02076212503015995,0.02076212503015995,-0.01597086526453495
2651324909475,1.3227964639663696,-9.6989107131958,1.4065935611724854,0.02315775491297245,0.015438503585755825,-0.0181003138422966
2651326146737,1.259350061416626,-9.694122314453125,1.4460978507995605,0.0252872034907341,0.0167694091796875,-0.0191650390625
2651327384012,1.2808979749679565,-9.653421401977539,1.4449007511138916,0.02129448764026165,0.01597086526453495,-0.015438503585755825
2651328621250,1.2773066759109497,-9.6989107131958,1.4293384552001953,0.0220930315554142,0.01703559048473835,-0.01463996060192585
2651329858512,1.2868834733963013,-9.678560256958008,1.380257248878479,0.02874755859375,0.0167694091796875,-0.01171196810901165
2651331095800,1.292868971824646,-9.68933391571045,1.4041993618011475,0.0311431884765625,0.0162370465695858,-0.0090501569211483
2651332333012,1.2509703636169434,-9.68813705444336,1.3838485479354858,0.02661811001598835,0.01783413253724575,-0.01357523538172245
2651333570300,1.2952631711959839,-9.716867446899414,1.4065935611724854,0.02608574740588665,0.02129448764026165,-0.013309055007994175
2651334807550,1.2880805730819702,-9.728838920593262,1.4077906608581543,0.02502102218568325,0.0191650390625,-0.0077192517928779125
2651336044800,1.3000515699386597,-9.676166534423828,1.3970166444778442,0.0252872034907341,0.01597086526453495,-0.010381062515079975
2651337282062,1.3311761617660522,-9.696516990661621,1.4089877605438232,0.0228915736079216,0.0119781494140625,-0.008517795242369175
2651338519325,1.3084312677383423,-9.72285270690918,1.41257905960083,0.02502102218568325,0.01597086526453495,-0.010647243820130825
2651339756587,1.313219666481018,-9.744400978088379,1.4041993618011475,0.0276828333735466,0.010381062515079975,-0.005589802749454975
2651340993850,1.3036428689956665,-9.782708168029785,1.4269442558288574,0.0276828333735466,0.013042873702943325,-0.01117960549890995
2651342231112,1.3060370683670044,-9.724050521850586,1.3970166444778442,0.0276828333735466,0.01224433071911335,-0.0077192517928779125
2651343468350,1.3024457693099976,-9.763554573059082,1.3862427473068237,0.0271504707634449,0.010647243820130825,-0.005057440605014563
2651344705612,1.2880805730819702,-9.7420072555542,1.4293384552001953,0.0282151959836483,0.010647243820130825,-0.005589802749454975
2651345942875,1.3036428689956665,-9.793481826782227,1.416170358657837,0.0263519287109375,0.014906140975654125,-0.0077192517928779125
2651347180125,1.2761094570159912,-9.758766174316406,1.4113819599151611,0.0204959437251091,0.01117960549890995,-0.008517795242369175
2651348417412,1.292868971824646,-9.728838920593262,1.3623007535934448,0.0215606689453125,0.01117960549890995,-0.008251613937318325
2651349654662,1.292868971824646,-9.77791976928711,1.3611036539077759,0.0210283063352108,0.013309055007994175,-0.0026618109550327063
2651350891937,1.2641384601593018,-9.763554573059082,1.4089877605438232,0.02608574740588665,0.01117960549890995,-0.0053236219100654125
2651352129175,1.2808979749679565,-9.762357711791992,1.3646949529647827,0.0247548408806324,0.010647243820130825,-0.0071868896484375
2651353366425,1.3215993642807007,-9.75517463684082,1.4089877605438232,0.02555338479578495,0.01224433071911335,-0.0042588976211845875
2651354603687,1.3024457693099976,-9.787496566772461,1.4197616577148438,0.0215606689453125,0.008783976547420025,-0.00958251953125
2651355840950,1.3096283674240112,-9.762357711791992,1.4006080627441406,0.02369011752307415,0.010647243820130825,-0.0071868896484375
2651357078212,1.3239935636520386,-9.800664901733398,1.4101848602294922,0.0258195661008358,0.007453070487827063,-0.003460354171693325
2651358315475,1.2868834733963013,-9.758766174316406,1.3898340463638306,0.02076212503015995,0.005855984054505825,-0.0042588976211845875
2651359552725,1.3024457693099976,-9.746795654296875,1.4077906608581543,0.02555338479578495,0.00958251953125,-0.005855984054505825
2651360789987,1.2892776727676392,-9.813833236694336,1.3982137441635132,0.0252872034907341,0.00984870083630085,-0.0023956298828125
2651362027237,1.2952631711959839,-9.78869342803955,1.4197616577148438,0.0210283063352108,0.007985432632267475,-0.0005323622026480734
2651363264500,1.314416766166687,-9.81263542175293,1.436521053314209,0.0228915736079216,0.0077192517928779125,-0.0005323622026480734
2651364501775,1.291671872138977,-9.774328231811523,1.3563152551651,0.02502102218568325,0.00984870083630085,-0.0042588976211845875
2651365739037,1.258152961730957,-9.762357711791992,1.4041993618011475,0.02182685025036335,0.008783976547420025,-0.0010647244052961469
2651366976262,1.260547161102295,-9.75158405303955,1.4053964614868164,0.0204959437251091,0.008517795242369175,-0.0023956298828125
2651368213537,1.2808979749679565,-9.756372451782227,1.380257248878479,0.01943122036755085,0.007453070487827063,-0.0023956298828125
2651369450800,1.3012486696243286,-9.800664901733398,1.3958195447921753,0.015172322280704975,0.006122165359556675,0.0015970865497365594
2651370688050,1.2749123573303223,-9.804256439208984,1.4197616577148438,0.0186326764523983,0.003460354171693325,0.005855984054505825
2651371925300,1.2761094570159912,-9.783905029296875,1.3754688501358032,0.02022976242005825,0.0013309054775163531,0.0031941730994731188
2651373162575,1.2294225692749023,-9.838972091674805,1.3766659498214722,0.00958251953125,0.0063883461989462376,0.0002661811013240367
2651374399812,1.2653355598449707,-9.794679641723633,1.4113819599151611,0.01703559048473835,0.00958251953125,0.0031941730994731188
2651375637100,1.2701239585876465,-9.787496566772461,1.4041993618011475,0.0204959437251091,0.00452507846057415,-0.0005323622026480734
2651376874362,1.2210428714752197,-9.823410034179688,1.37906014919281,0.01357523538172245,0.0090501569211483,-0.0007985432748682797
2651378111600,1.2318167686462402,-9.816226959228516,1.3623007535934448,0.01650322787463665,0.010114881210029125,0.0018632676219567657
2651379348850,1.237802267074585,-9.804256439208984,1.3455413579940796,0.0186326764523983,0.008251613937318325,-0.0002661811013240367
2651380586100,1.2689268589019775,-9.787496566772461,1.380257248878479,0.01463996060192585,0.008783976547420025,0.0029279920272529125
2651381823375,1.2988544702529907,-9.836577415466309,1.381454348564148,0.01889885775744915,0.0042588976211845875,0.004791259765625
2651383060637,1.315613865852356,-9.84256362915039,1.3958195447921753,0.012510511092841625,0.00692070834338665,0.00692070834338665
2651384297887,1.314416766166687,-9.816226959228516,1.3862427473068237,0.01783413253724575,0.007453070487827063,0.0063883461989462376
2651385535150,1.3108254671096802,-9.827000617980957,1.4018051624298096,0.00958251953125,0.00931633822619915,-0.0015970865497365594
2651386772412,1.290474772453308,-9.816226959228516,1.4317326545715332,0.010647243820130825,0.005057440605014563,0.0013309054775163531
2651388009675,1.2832921743392944,-9.797073364257812,1.3982137441635132,0.012510511092841625,0.0042588976211845875,0.0021294488105922937
2651389246937,1.2808979749679565,-9.80904483795166,1.4197616577148438,0.0053236219100654125,0.005589802749454975,0.0007985432748682797
2651390484187,1.3120225667953491,-9.836577415466309,1.4305355548858643,0.01357523538172245,0.008783976547420025,0.0007985432748682797
2651391721450,1.3084312677383423,-9.854534149169922,1.4544775485992432,0.00692070834338665,0.008251613937318325,0.0029279920272529125
2651392958700,1.2713210582733154,-9.807847023010254,1.4257471561431885,0.0018632676219567657,0.0042588976211845875,0.0042588976211845875
2651394195962,1.3108254671096802,-9.828198432922363,1.413776159286499,0.0039927163161337376,0.007453070487827063,0.0002661811013240367
2651395433237,1.292868971824646,-9.77791976928711,1.3563152551651,0.0010647244052961469,0.007985432632267475,0.0
2651396670500,1.2725181579589844,-9.795876502990723,1.3730746507644653,0.0090501569211483,0.0029279920272529125,0.0071868896484375
2651397907750,1.256955862045288,-9.768342971801758,1.4006080627441406,0.00452507846057415,0.0090501569211483,0.004791259765625
2651399145000,1.2653355598449707,-9.780314445495605,1.338358759880066,0.0037265352439135313,0.01117960549890995,-0.0039927163161337376
2651400382275,1.2844892740249634,-9.739612579345703,1.3551181554794312,0.005589802749454975,0.00984870083630085,-0.00452507846057415
2651401619525,1.236605167388916,-9.744400978088379,1.359906554222107,0.00452507846057415,0.008251613937318325,0.0029279920272529125
2651402856750,1.2868834733963013,-9.747992515563965,1.380257248878479,0.0029279920272529125,0.00958251953125,0.0007985432748682797
2651404094050,1.3024457693099976,-9.758766174316406,1.3551181554794312,0.0042588976211845875,0.01171196810901165,-0.0005323622026480734
2651405331287,1.238999366760254,-9.738415718078613,1.4425065517425537,0.0007985432748682797,0.014906140975654125,0.0037265352439135313
2651406568550,1.2952631711959839,-9.68694019317627,1.4520833492279053,0.0023956298828125,0.010647243820130825,-0.0029279920272529125
2651407805812,1.3239935636520386,-9.697713851928711,1.3886369466781616,0.0037265352439135313,0.010114881210029125,-0.005589802749454975
2651409043050,1.2761094570159912,-9.708487510681152,1.4053964614868164,0.0066545275039970875,0.01117960549890995,-0.0042588976211845875
2651410280312,1.2880805730819702,-9.724050521850586,1.3946224451065063,0.010647243820130825,0.004791259765625,0.0031941730994731188
2651411517587,1.315613865852356,-9.707290649414062,1.3838485479354858,0.0023956298828125,0.01171196810901165,-0.0023956298828125
2651412754850,1.3407529592514038,-9.66539192199707,1.335964560508728,0.0066545275039970875,0.012776692397892475,-0.0071868896484375
2651413992100,1.2808979749679565,-9.697713851928711,1.3718775510787964,0.00958251953125,0.0119781494140625,-0.005057440605014563
2651415229362,1.3072341680526733,-9.696516990661621,1.3910311460494995,0.00452507846057415,0.0114457868039608,-0.0037265352439135313
2651416466612,1.3275848627090454,-9.655815124511719,1.4006080627441406,0.00452507846057415,0.008251613937318325,-0.005855984054505825
2651417703900,1.2509703636169434,-9.648633003234863,1.37906014919281,0.00692070834338665,0.005855984054505825,-0.008251613937318325
2651418941150,1.2868834733963013,-9.63187313079834,1.4113819599151611,0.010114881210029125,0.010381062515079975,-0.005589802749454975
2651420178400,1.3036428689956665,-9.684545516967773,1.4484920501708984,0.010114881210029125,0.007453070487827063,-0.013042873702943325
2651421415662,1.2856863737106323,-9.668983459472656,1.3958195447921753,0.00984870083630085,0.01117960549890995,-0.005855984054505825
2651422652912,1.292868971824646,-9.666589736938477,1.337161660194397,0.01650322787463665,0.010381062515079975,-0.0063883461989462376
2651423890175,1.2976573705673218,-9.710882186889648,1.3970166444778442,0.012776692397892475,0.0119781494140625,-0.0071868896484375
2651425127425,1.2964602708816528,-9.703699111938477,1.3479355573654175,0.00958251953125,0.007453070487827063,-0.01117960549890995
2651426364700,1.3072341680526733,-9.708487510681152,1.3539210557937622,0.013042873702943325,0.0090501569211483,-0.0090501569211483
2651427601962,1.3036428689956665,-9.648633003234863,1.3862427473068237,0.00958251953125,0.0090501569211483,-0.0063883461989462376
2651428839212,1.2892776727676392,-9.680954933166504,1.3611036539077759,0.010114881210029125,0.00931633822619915,-0.005589802749454975
2651430076462,1.2964602708816528,-9.750386238098145,1.359906554222107,0.012776692397892475,0.007985432632267475,-0.00931633822619915
2651431313737,1.294066071510315,-9.720458984375,1.3958195447921753,0.01410759799182415,0.010913425125181675,-0.004791259765625
2651432550975,1.3084312677383423,-9.691728591918945,1.4065935611724854,0.01357523538172245,0.01224433071911335,-0.01117960549890995
2651433788250,1.315613865852356,-9.6989107131958,1.4413094520568848,0.01703559048473835,0.0077192517928779125,-0.00984870083630085
2651435025500,1.315613865852356,-9.714473724365234,1.4077906608581543,0.01597086526453495,0.00452507846057415,-0.0090501569211483
2651436262762,1.3108254671096802,-9.677363395690918,1.3850456476211548,0.01703559048473835,0.007985432632267475,-0.00931633822619915
