timestamp_ns,accel_x,accel_y,accel_z,gyro_x,gyro_y,gyro_z
18919347725662,1.5598224401474,-9.667786598205566,1.3299790620803833,-0.0191650390625,0.02315775491297245,-0.015172322280704975
18919348962900,1.5526398420333862,-9.635464668273926,1.3084312677383423,-0.013309055007994175,0.01996358297765255,-0.010381062515079975
18919350200150,1.53707754611969,-9.703699111938477,1.3479355573654175,-0.0157046839594841,0.01836649514734745,-0.008251613937318325
18919351437375,1.5765818357467651,-9.701305389404297,1.3551181554794312,-0.0090501569211483,0.01756795309484005,-0.010114881210029125
18919352674612,1.5490485429763794,-9.712079048156738,1.3407529592514038,-0.01597086526453495,0.01889885775744915,-0.010913425125181675
18919353911850,1.5873557329177856,-9.658209800720215,1.3024457693099976,-0.015172322280704975,0.0196974016726017,-0.010381062515079975
18919355149100,1.558625340461731,-9.677363395690918,1.3084312677383423,-0.014373779296875,0.01756795309484005,-0.003460354171693325
18919356386325,1.5550340414047241,-9.65222454071045,1.316810965538025,-0.0138414166867733,0.0162370465695858,-0.00692070834338665
18919357623550,1.5682021379470825,-9.63187313079834,1.3455413579940796,-0.01650322787463665,0.0162370465695858,-0.0066545275039970875
18919358860787,1.5741876363754272,-9.704896926879883,1.335964560508728,-0.0157046839594841,0.01650322787463665,-0.006122165359556675
18919360098012,1.5526398420333862,-9.680954933166504,1.3084312677383423,-0.010913425125181675,0.02182685025036335,-0.0077192517928779125
18919361335262,1.5981296300888062,-9.68813705444336,1.334767460823059,-0.014373779296875,0.0295461006462574,-0.007985432632267475
18919362572500,1.5729905366897583,-9.710882186889648,1.3479355573654175,-0.008783976547420025,0.02981228195130825,-0.0066545275039970875
18919363809737,1.5765818357467651,-9.657012939453125,1.3275848627090454,-0.006122165359556675,0.0228915736079216,-0.0042588976211845875
18919365046962,1.558625340461731,-9.682151794433594,1.3431471586227417,-0.00958251953125,0.0223592109978199,-0.0005323622026480734
18919366284225,1.5897499322891235,-9.690531730651855,1.3455413579940796,-0.0114457868039608,0.02182685025036335,-0.0029279920272529125
18919367521450,1.53707754611969,-9.65222454071045,1.3060370683670044,-0.00931633822619915,0.01783413253724575,-0.004791259765625
18919368758675,1.5490485429763794,-9.700108528137207,1.335964560508728,-0.008517795242369175,0.0196974016726017,-0.003460354171693325
18919369995912,1.5765818357467651,-9.65222454071045,1.3275848627090454,-0.005855984054505825,0.02315775491297245,-0.0023956298828125
18919371233162,1.53707754611969,-9.6989107131958,1.3287819623947144,-0.0029279920272529125,0.02022976242005825,0.0005323622026480734
18919372470375,1.558625340461731,-9.6618013381958,1.337161660194397,-0.005589802749454975,0.02022976242005825,-0.0010647244052961469
18919373707625,1.5909470319747925,-9.684545516967773,1.2952631711959839,-0.00452507846057415,0.0196974016726017,-0.0021294488105922937
18919374944862,1.5598224401474,-9.697713851928711,1.258152961730957,-0.0039927163161337376,0.01703559048473835,0.0005323622026480734
18919376182100,1.5382746458053589,-9.715670585632324,1.382651448249817,-0.0039927163161337376,0.0223592109978199,-0.0063883461989462376
18919377419350,1.5873557329177856,-9.732430458068848,1.3539210557937622,-0.0015970865497365594,0.02369011752307415,-0.004791259765625
18919378656587,1.5682021379470825,-9.672574996948242,1.3395558595657349,-0.0029279920272529125,0.01650322787463665,-0.0026618109550327063
18919379893812,1.556231141090393,-9.668983459472656,1.3287819623947144,-0.0029279920272529125,0.0181003138422966,-0.0029279920272529125
18919381131050,1.5490485429763794,-9.655815124511719,1.3419500589370728,-0.0053236219100654125,0.0181003138422966,0.0010647244052961469
18919382368287,1.6077064275741577,-9.683348655700684,1.3036428689956665,-0.005855984054505825,0.014906140975654125,-0.005855984054505825
18919383605525,1.5670050382614136,-9.677363395690918,1.3251906633377075,-0.0037265352439135313,0.0173017717897892,-0.0026618109550327063
18919384842775,1.5179238319396973,-9.68694019317627,1.3395558595657349,-0.0026618109550327063,0.0220930315554142,0.0018632676219567657
18919386080000,1.602918028831482,-9.667786598205566,1.2868834733963013,-0.0013309054775163531,0.02076212503015995,0.0013309054775163531
18919387317237,1.5825673341751099,-9.707290649414062,1.2820950746536255,0.0,0.0220930315554142,-0.0002661811013240367
18919388554475,1.5693992376327515,-9.690531730651855,1.3072341680526733,0.0021294488105922937,0.0191650390625,-0.0021294488105922937
18919389791712,1.5753847360610962,-9.702502250671387,1.358709454536438,0.0005323622026480734,0.01836649514734745,0.0013309054775163531
18919391028925,1.5705963373184204,-9.72165584564209,1.3311761617660522,-0.0023956298828125,0.0220930315554142,-0.003460354171693325
18919392266175,1.5705963373184204,-9.708487510681152,1.3742717504501343,-0.0018632676219567657,0.0210283063352108,-0.0007985432748682797
18919393503425,1.578976035118103,-9.68574333190918,1.380257248878479,-0.0002661811013240367,0.0210283063352108,0.0007985432748682797
18919394740637,1.5682021379470825,-9.679757118225098,1.337161660194397,-0.0037265352439135313,0.02076212503015995,-0.0010647244052961469
18919395977887,1.5909470319747925,-9.65222454071045,1.3180080652236938,-0.0005323622026480734,0.01650322787463665,0.0007985432748682797
18919397215125,1.6136919260025024,-9.646238327026367,1.294066071510315,0.0015970865497365594,0.01463996060192585,-0.0039927163161337376
18919398452362,1.5981296300888062,-9.654618263244629,1.3204022645950317,0.0,0.01943122036755085,-0.0029279920272529125
18919399689587,1.601720929145813,-9.679757118225098,1.3108254671096802,0.0013309054775163531,0.0215606689453125,0.0005323622026480734
18919400926850,1.5981296300888062,-9.670180320739746,1.3251906633377075,0.0023956298828125,0.0215606689453125,0.0026618109550327063
18919402164075,1.5897499322891235,-9.673771858215332,1.3443442583084106,0.0042588976211845875,0.01783413253724575,0.0039927163161337376
18919403401300,1.5765818357467651,-9.676166534423828,1.3000515699386597,0.0002661811013240367,0.01703559048473835,0.0039927163161337376
18919404638537,1.5610195398330688,-9.648633003234863,1.3419500589370728,0.0007985432748682797,0.0173017717897892,-0.0005323622026480734
18919405875787,1.5717934370040894,-9.667786598205566,1.3012486696243286,0.0071868896484375,0.0162370465695858,0.004791259765625
18919407113025,1.5825673341751099,-9.66299819946289,1.3503297567367554,0.0018632676219567657,0.01836649514734745,0.0039927163161337376
18919408350275,1.5957354307174683,-9.66419506072998,1.3215993642807007,0.0015970865497365594,0.01943122036755085,-0.0002661811013240367
18919409587487,1.5921441316604614,-9.684545516967773,1.3108254671096802,0.0066545275039970875,0.0157046839594841,0.0010647244052961469
18919410824737,1.5753847360610962,-9.672574996948242,1.3395558595657349,0.007985432632267475,0.01463996060192585,0.00452507846057415
18919412061975,1.5634137392044067,-9.708487510681152,1.316810965538025,0.0013309054775163531,0.014906140975654125,0.0018632676219567657
18919413299200,1.5705963373184204,-9.700108528137207,1.2976573705673218,0.0053236219100654125,0.014373779296875,-0.0023956298828125
18919414536437,1.5909470319747925,-9.691728591918945,1.3072341680526733,0.0015970865497365594,0.01597086526453495,-0.005589802749454975
18919415773650,1.5466543436050415,-9.702502250671387,1.3036428689956665,0.0090501569211483,0.01703559048473835,0.0021294488105922937
18919417010925,1.5418659448623657,-9.695320129394531,1.3491326570510864,0.0029279920272529125,0.01463996060192585,0.0005323622026480734
18919418248162,1.557428240776062,-9.704896926879883,1.3227964639663696,0.0023956298828125,0.0119781494140625,0.0005323622026480734
18919419485387,1.5885528326034546,-9.703699111938477,1.3323732614517212,0.0042588976211845875,0.0157046839594841,-0.0010647244052961469
18919420722612,1.5861586332321167,-9.713275909423828,1.3263877630233765,-0.0007985432748682797,0.0167694091796875,-0.003460354171693325
18919421959837,1.5729905366897583,-9.683348655700684,1.3551181554794312,0.0039927163161337376,0.0162370465695858,-0.0002661811013240367
18919423197087,1.5753847360610962,-9.707290649414062,1.313219666481018,0.0063883461989462376,0.014906140975654125,-0.0002661811013240367
18919424434325,1.5741876363754272,-9.68813705444336,1.3180080652236938,0.0026618109550327063,0.01703559048473835,-0.0010647244052961469
18919425671562,1.5598224401474,-9.6989107131958,1.335964560508728,0.0053236219100654125,0.0186326764523983,0.0007985432748682797
18919426908800,1.5717934370040894,-9.702502250671387,1.3108254671096802,0.00931633822619915,0.01703559048473835,-0.0013309054775163531
18919428146062,1.578976035118103,-9.694122314453125,1.3060370683670044,0.008251613937318325,0.0157046839594841,0.0021294488105922937
18919429383287,1.5550340414047241,-9.691728591918945,1.3551181554794312,0.00452507846057415,0.01224433071911335,0.0031941730994731188
18919430620525,1.5478514432907104,-9.671378135681152,1.3192051649093628,0.00931633822619915,0.012510511092841625,-0.0031941730994731188
18919431857750,1.5705963373184204,-9.684545516967773,1.3000515699386597,0.0077192517928779125,0.010381062515079975,0.0007985432748682797
18919433095000,1.5765818357467651,-9.691728591918945,1.3215993642807007,0.00931633822619915,0.010381062515079975,0.0010647244052961469
18919434332225,1.600523829460144,-9.696516990661621,1.3012486696243286,0.008517795242369175,0.01117960549890995,0.0010647244052961469
18919435569450,1.556231141090393,-9.694122314453125,1.3120225667953491,0.008517795242369175,0.01357523538172245,-0.0013309054775163531
18919436806700,1.556231141090393,-9.709685325622559,1.3311761617660522,0.01171196810901165,0.015172322280704975,0.0021294488105922937
18919438043925,1.599326729774475,-9.68574333190918,1.315613865852356,0.005855984054505825,0.01597086526453495,0.0010647244052961469
18919439281187,1.6196774244308472,-9.672574996948242,1.3407529592514038,0.0066545275039970875,0.00931633822619915,0.0042588976211845875
18919440518387,1.5670050382614136,-9.692925453186035,1.3563152551651,0.005057440605014563,0.010647243820130825,0.0029279920272529125
18919441755650,1.5514427423477173,-9.710882186889648,1.3431471586227417,0.008517795242369175,0.013042873702943325,0.0015970865497365594
18919442992875,1.5921441316604614,-9.673771858215332,1.3407529592514038,0.0119781494140625,0.00958251953125,0.0007985432748682797
18919444230112,1.5622166395187378,-9.703699111938477,1.3311761617660522,0.008251613937318325,0.0090501569211483,0.0039927163161337376
18919445467350,1.5670050382614136,-9.730035781860352,1.3419500589370728,0.0063883461989462376,0.008517795242369175,0.0021294488105922937
18919446704587,1.623268723487854,-9.676166534423828,1.3084312677383423,0.0077192517928779125,0.0037265352439135313,0.0037265352439135313
18919447941837,1.5741876363754272,-9.696516990661621,1.2665326595306396,0.006122165359556675,0.007453070487827063,0.0
18919449179062,1.5550340414047241,-9.683348655700684,1.3323732614517212,0.00692070834338665,0.01224433071911335,-0.003460354171693325
18919450416312,1.5670050382614136,-9.691728591918945,1.316810965538025,0.006122165359556675,0.00958251953125,-0.0053236219100654125
18919451653537,1.5765818357467651,-9.657012939453125,1.314416766166687,0.005589802749454975,0.0090501569211483,0.0007985432748682797
18919452890787,1.5275007486343384,-9.730035781860352,1.3718775510787964,0.0037265352439135313,0.00984870083630085,0.00452507846057415
18919454128025,1.5526398420333862,-9.708487510681152,1.3479355573654175,0.005057440605014563,0.013309055007994175,0.0007985432748682797
18919455365237,1.5382746458053589,-9.668983459472656,1.3263877630233765,0.005589802749454975,0.0071868896484375,0.0013309054775163531
18919456602487,1.5095441341400146,-9.691728591918945,1.3084312677383423,0.0029279920272529125,0.003460354171693325,0.0021294488105922937
18919457839725,1.5550340414047241,-9.702502250671387,1.3431471586227417,0.010647243820130825,-0.0002661811013240367,0.0031941730994731188
18919459076950,1.5693992376327515,-9.678560256958008,1.3048399686813354,0.008251613937318325,0.0042588976211845875,0.0026618109550327063
18919460314200,1.5538369417190552,-9.701305389404297,1.316810965538025,0.0090501569211483,0.0042588976211845875,-0.0018632676219567657
18919461551437,1.53707754611969,-9.706093788146973,1.3084312677383423,0.0090501569211483,0.0071868896484375,0.0053236219100654125
18919462788675,1.5478514432907104,-9.714473724365234,1.3287819623947144,0.0037265352439135313,0.0031941730994731188,0.0029279920272529125
18919464025900,1.5286978483200073,-9.701305389404297,1.3227964639663696,0.0042588976211845875,0.0037265352439135313,0.0005323622026480734
18919465263162,1.5490485429763794,-9.715670585632324,1.2797008752822876,0.008783976547420025,0.0066545275039970875,0.0018632676219567657
18919466500375,1.5741876363754272,-9.712079048156738,1.3251906633377075,0.007985432632267475,0.005589802749454975,0.0007985432748682797
18919467737625,1.5550340414047241,-9.746795654296875,1.3623007535934448,0.005855984054505825,0.0,-0.0015970865497365594
18919468974850,1.5873557329177856,-9.739612579345703,1.3060370683670044,0.0071868896484375,0.0026618109550327063,0.0015970865497365594
18919470212075,1.5837644338607788,-9.718064308166504,1.3084312677383423,0.0071868896484375,-0.0007985432748682797,0.0023956298828125
18919471449337,1.5598224401474,-9.750386238098145,1.3036428689956665,0.0021294488105922937,0.0013309054775163531,0.0005323622026480734
18919472686575,1.580173134803772,-9.671378135681152,1.3180080652236938,0.0042588976211845875,0.0053236219100654125,-0.0021294488105922937
18919473923787,1.5418659448623657,-9.736021041870117,1.3024457693099976,0.008517795242369175,-0.0010647244052961469,-0.0002661811013240367
18919475161037,1.5634137392044067,-9.757569313049316,1.3036428689956665,0.0077192517928779125,-0.0013309054775163531,0.0002661811013240367
18919476398275,1.601720929145813,-9.734824180603027,1.313219666481018,0.0037265352439135313,-0.0042588976211845875,0.007985432632267475
18919477635512,1.5394717454910278,-9.68813705444336,1.3251906633377075,0.008251613937318325,-0.004791259765625,0.006122165359556675
18919478872750,1.5298949480056763,-9.738415718078613,1.3299790620803833,0.005589802749454975,0.0010647244052961469,0.003460354171693325
18919480110000,1.5538369417190552,-9.72285270690918,1.3455413579940796,0.0,0.0005323622026480734,-0.0026618109550327063
18919481347212,1.5634137392044067,-9.726444244384766,1.3694833517074585,0.004791259765625,-0.0031941730994731188,-0.00692070834338665
18919482584450,1.5442601442337036,-9.745597839355469,1.3323732614517212,0.005855984054505825,-0.0013309054775163531,0.0
18919483821700,1.578976035118103,-9.732430458068848,1.3407529592514038,0.005589802749454975,-0.0026618109550327063,-0.0018632676219567657
18919485058925,1.580173134803772,-9.702502250671387,1.314416766166687,0.0063883461989462376,0.0013309054775163531,0.0039927163161337376
18919486296162,1.5729905366897583,-9.72285270690918,1.315613865852356,0.00452507846057415,0.0015970865497365594,0.0039927163161337376
18919487533387,1.557428240776062,-9.715670585632324,1.337161660194397,0.003460354171693325,-0.003460354171693325,-0.0029279920272529125
18919488770650,1.580173134803772,-9.66299819946289,1.3084312677383423,0.004791259765625,-0.0005323622026480734,0.0002661811013240367
18919490007875,1.5658079385757446,-9.706093788146973,1.2701239585876465,0.012776692397892475,-0.006122165359556675,-0.003460354171693325
18919491245125,1.5275007486343384,-9.667786598205566,1.3311761617660522,0.005855984054505825,-0.0026618109550327063,-0.007985432632267475
18919492482362,1.5478514432907104,-9.713275909423828,1.3455413579940796,0.0026618109550327063,-0.0002661811013240367,-0.0018632676219567657
18919493719587,1.50355863571167,-9.732430458068848,1.3515268564224243,0.0005323622026480734,-0.0018632676219567657,-0.0013309054775163531
18919494956825,1.5825673341751099,-9.712079048156738,1.3048399686813354,0.00452507846057415,-0.0026618109550327063,0.0007985432748682797
18919496194075,1.5394717454910278,-9.683348655700684,1.337161660194397,0.007453070487827063,-0.00452507846057415,0.0026618109550327063
18919497431312,1.5382746458053589,-9.68694019317627,1.3515268564224243,0.0031941730994731188,0.0018632676219567657,-0.0010647244052961469
18919498668525,1.5107412338256836,-9.680954933166504,1.3563152551651,0.0029279920272529125,-0.003460354171693325,-0.0029279920272529125
18919499905800,1.5454572439193726,-9.68933391571045,1.3443442583084106,0.0013309054775163531,-0.0029279920272529125,-0.0007985432748682797
18919501143012,1.5227123498916626,-9.690531730651855,1.3251906633377075,0.0029279920272529125,0.0010647244052961469,-0.0002661811013240367
18919502380262,1.5095441341400146,-9.684545516967773,1.380257248878479,0.0042588976211845875,-0.0015970865497365594,-0.005589802749454975
18919503617500,1.5167267322540283,-9.696516990661621,1.3419500589370728,0.0053236219100654125,0.0007985432748682797,-0.0071868896484375
18919504854712,1.5454572439193726,-9.677363395690918,1.3778630495071411,0.00452507846057415,-0.0023956298828125,-0.0042588976211845875
18919506091950,1.5682021379470825,-9.66419506072998,1.3287819623947144,0.00452507846057415,-0.0037265352439135313,-0.0042588976211845875
18919507329212,1.5418659448623657,-9.714473724365234,1.3718775510787964,0.0053236219100654125,-0.0026618109550327063,-0.0029279920272529125
18919508566450,1.535880446434021,-9.697713851928711,1.3742717504501343,0.00692070834338665,-0.0005323622026480734,0.0013309054775163531
18919509803662,1.534683346748352,-9.659406661987305,1.3443442583084106,0.010114881210029125,-0.003460354171693325,0.0018632676219567657
18919511040912,1.5203181505203247,-9.660603523254395,1.3060370683670044,0.0026618109550327063,-0.0031941730994731188,-0.0031941730994731188
18919512278150,1.5322891473770142,-9.718064308166504,1.3299790620803833,0.0039927163161337376,-0.0023956298828125,-0.003460354171693325
18919513515387,1.5322891473770142,-9.684545516967773,1.3563152551651,0.0063883461989462376,-0.005855984054505825,-0.0023956298828125
18919514752612,1.5682021379470825,-9.695320129394531,1.3263877630233765,0.0066545275039970875,-0.0002661811013240367,-0.0007985432748682797
18919515989850,1.5526398420333862,-9.703699111938477,1.3742717504501343,0.010114881210029125,0.0002661811013240367,0.0029279920272529125
18919517227100,1.5275007486343384,-9.716867446899414,1.3491326570510864,0.00692070834338665,-0.0005323622026480734,-0.0026618109550327063
18919518464325,1.5514427423477173,-9.706093788146973,1.3275848627090454,0.008517795242369175,-0.0039927163161337376,-0.005855984054505825
18919519701562,1.5682021379470825,-9.756372451782227,1.3479355573654175,0.00984870083630085,-0.003460354171693325,-0.0029279920272529125
18919520938787,1.5466543436050415,-9.709685325622559,1.3503297567367554,0.00692070834338665,-0.0013309054775163531,-0.0029279920272529125
18919522176037,1.5430630445480347,-9.667786598205566,1.3778630495071411,0.008517795242369175,-0.0015970865497365594,-0.0015970865497365594
18919523413275,1.5622166395187378,-9.702502250671387,1.3431471586227417,0.004791259765625,-0.00452507846057415,-0.0013309054775163531
18919524650512,1.5622166395187378,-9.68813705444336,1.3551181554794312,0.0071868896484375,-0.004791259765625,0.0026618109550327063
18919525887762,1.5466543436050415,-9.68813705444336,1.3563152551651,0.0090501569211483,-0.0066545275039970875,-0.0029279920272529125
18919527124987,1.5203181505203247,-9.695320129394531,1.3024457693099976,0.0071868896484375,-0.003460354171693325,-0.003460354171693325
18919528362212,1.5251065492630005,-9.692925453186035,1.313219666481018,0.0119781494140625,-0.0066545275039970875,-0.0018632676219567657
18919529599437,1.5286978483200073,-9.68813705444336,1.3239935636520386,0.0119781494140625,-0.008783976547420025,-0.0013309054775163531
18919530836687,1.535880446434021,-9.672574996948242,1.337161660194397,0.0119781494140625,-0.0029279920272529125,-0.0021294488105922937
18919532073937,1.5251065492630005,-9.703699111938477,1.3287819623947144,0.0119781494140625,-0.0021294488105922937,-0.0005323622026480734
18919533311162,1.4939818382263184,-9.714473724365234,1.3455413579940796,0.008783976547420025,0.0,-0.004791259765625
18919534548412,1.5179238319396973,-9.716867446899414,1.2713210582733154,0.00931633822619915,-0.0010647244052961469,-0.0031941730994731188
18919535785650,1.4951789379119873,-9.731232643127441,1.2880805730819702,0.00958251953125,0.0005323622026480734,-0.0063883461989462376
18919537022887,1.53707754611969,-9.72285270690918,1.3491326570510864,0.010913425125181675,-0.0037265352439135313,-0.010647243820130825
18919538260125,1.5215152502059937,-9.714473724365234,1.314416766166687,0.00984870083630085,-0.00452507846057415,-0.0002661811013240367
18919539497350,1.533486247062683,-9.6989107131958,1.334767460823059,0.0071868896484375,-0.0063883461989462376,-0.005057440605014563
18919540734575,1.5239094495773315,-9.714473724365234,1.2988544702529907,0.008251613937318325,-0.006122165359556675,-0.0037265352439135313
18919541971825,1.5071499347686768,-9.701305389404297,1.2868834733963013,0.00958251953125,-0.005855984054505825,-0.008251613937318325
18919543209075,1.5394717454910278,-9.701305389404297,1.3204022645950317,0.0138414166867733,-0.00958251953125,-0.0053236219100654125
18919544446312,1.5310920476913452,-9.707290649414062,1.2976573705673218,0.0119781494140625,-0.00452507846057415,-0.006122165359556675
18919545683550,1.5538369417190552,-9.679757118225098,1.3204022645950317,0.0039927163161337376,-0.0029279920272529125,-0.010913425125181675
18919546920775,1.5263036489486694,-9.700108528137207,1.3275848627090454,0.0063883461989462376,-0.0039927163161337376,-0.0066545275039970875
18919548158012,1.5143325328826904,-9.703699111938477,1.338358759880066,0.0119781494140625,-0.00452507846057415,-0.0066545275039970875
18919549395250,1.5239094495773315,-9.707290649414062,1.3646949529647827,0.0162370465695858,-0.0090501569211483,-0.0037265352439135313
18919550632487,1.5466543436050415,-9.713275909423828,1.3611036539077759,0.01357523538172245,-0.0114457868039608,-0.0077192517928779125
18919551869725,1.5502456426620483,-9.68574333190918,1.3694833517074585,0.00958251953125,-0.0114457868039608,-0.004791259765625
18919553106950,1.5418659448623657,-9.713275909423828,1.3180080652236938,0.01357523538172245,-0.00692070834338665,-0.0066545275039970875
18919554344212,1.5215152502059937,-9.68694019317627,1.2641384601593018,0.010647243820130825,-0.003460354171693325,-0.007985432632267475
18919555581437,1.5526398420333862,-9.737218856811523,1.3060370683670044,0.010913425125181675,-0.003460354171693325,-0.014373779296875
18919556818662,1.5526398420333862,-9.730035781860352,1.3515268564224243,0.0138414166867733,-0.005589802749454975,-0.008517795242369175
18919558055912,1.5286978483200073,-9.709685325622559,1.3491326570510864,0.010913425125181675,-0.0042588976211845875,-0.0053236219100654125
18919559293150,1.5418659448623657,-9.6618013381958,1.3215993642807007,0.01463996060192585,0.0,-0.00984870083630085
18919560530375,1.5107412338256836,-9.6989107131958,1.3646949529647827,0.013042873702943325,-0.006122165359556675,-0.0138414166867733
18919561767625,1.5298949480056763,-9.714473724365234,1.3287819623947144,0.010114881210029125,-0.0031941730994731188,-0.008783976547420025
18919563004862,1.533486247062683,-9.709685325622559,1.335964560508728,0.01410759799182415,-0.004791259765625,-0.005057440605014563
18919564242100,1.535880446434021,-9.726444244384766,1.337161660194397,0.015172322280704975,-0.006122165359556675,-0.00958251953125
18919565479325,1.5406688451766968,-9.727641105651855,1.3503297567367554,0.010114881210029125,-0.005057440605014563,-0.010381062515079975
18919566716575,1.5729905366897583,-9.732430458068848,1.3611036539077759,0.01224433071911335,-0.00452507846057415,-0.003460354171693325
18919567953812,1.534683346748352,-9.714473724365234,1.3407529592514038,0.00984870083630085,-0.00452507846057415,-0.00452507846057415
18919569191050,1.5873557329177856,-9.769539833068848,1.3527239561080933,0.010647243820130825,-0.005855984054505825,-0.0021294488105922937
18919570428287,1.5310920476913452,-9.746795654296875,1.3623007535934448,0.013309055007994175,-0.0077192517928779125,-0.005057440605014563
18919571665525,1.5622166395187378,-9.7420072555542,1.3539210557937622,0.0090501569211483,0.0007985432748682797,-0.0071868896484375
18919572902750,1.5598224401474,-9.774328231811523,1.3299790620803833,0.014906140975654125,-0.0002661811013240367,-0.0042588976211845875
18919574140000,1.535880446434021,-9.744400978088379,1.3084312677383423,0.014906140975654125,-0.0090501569211483,-0.0015970865497365594
18919575377225,1.501164436340332,-9.750386238098145,1.3072341680526733,0.01171196810901165,-0.005589802749454975,-0.005589802749454975
18919576614475,1.4939818382263184,-9.728838920593262,1.3611036539077759,0.013042873702943325,-0.0042588976211845875,-0.0002661811013240367
18919577851700,1.5310920476913452,-9.66539192199707,1.3778630495071411,0.013042873702943325,-0.003460354171693325,0.0015970865497365594
18919579088950,1.5466543436050415,-9.740809440612793,1.2976573705673218,0.015438503585755825,-0.0002661811013240367,0.0018632676219567657
18919580326187,1.5490485429763794,-9.740809440612793,1.3012486696243286,0.010114881210029125,-0.0053236219100654125,0.0023956298828125
18919581563425,1.5298949480056763,-9.733627319335938,1.2964602708816528,0.0138414166867733,-0.0077192517928779125,-0.0010647244052961469
18919582800662,1.5059528350830078,-9.745597839355469,1.3503297567367554,0.01463996060192585,-0.004791259765625,-0.0031941730994731188
18919584037887,1.5406688451766968,-9.733627319335938,1.3623007535934448,0.008517795242369175,-0.0031941730994731188,0.0018632676219567657
18919585275125,1.5514427423477173,-9.732430458068848,1.3335703611373901,0.008783976547420025,-0.0029279920272529125,-0.0029279920272529125
18919586512375,1.53707754611969,-9.731232643127441,1.313219666481018,0.013042873702943325,-0.0071868896484375,-0.0005323622026480734
18919587749612,1.5191209316253662,-9.744400978088379,1.3311761617660522,0.013309055007994175,-0.010381062515079975,0.0037265352439135313
18919588986837,1.5059528350830078,-9.691728591918945,1.313219666481018,0.013042873702943325,-0.008251613937318325,0.004791259765625
18919590224087,1.556231141090393,-9.716867446899414,1.3204022645950317,0.010381062515079975,-0.005855984054505825,0.0063883461989462376
18919591461325,1.558625340461731,-9.714473724365234,1.3215993642807007,0.00984870083630085,-0.0063883461989462376,0.003460354171693325
18919592698537,1.502361536026001,-9.732430458068848,1.3407529592514038,0.015438503585755825,-0.0063883461989462376,0.0053236219100654125
18919593935787,1.5083470344543457,-9.72165584564209,1.37906014919281,0.01410759799182415,-0.005855984054505825,0.007985432632267475
18919595173025,1.5263036489486694,-9.734824180603027,1.3515268564224243,0.0162370465695858,-0.0071868896484375,0.0039927163161337376
18919596410262,1.5095441341400146,-9.724050521850586,1.3539210557937622,0.01597086526453495,-0.0053236219100654125,0.0031941730994731188
18919597647512,1.5286978483200073,-9.731232643127441,1.3335703611373901,0.014906140975654125,-0.005855984054505825,0.0077192517928779125
18919598884737,1.535880446434021,-9.724050521850586,1.3204022645950317,0.014906140975654125,-0.006122165359556675,0.010381062515079975
18919600121987,1.556231141090393,-9.695320129394531,1.3539210557937622,0.01463996060192585,-0.0077192517928779125,0.008783976547420025
18919601359212,1.557428240776062,-9.708487510681152,1.3395558595657349,0.02022976242005825,-0.010381062515079975,0.013042873702943325
18919602596437,1.5538369417190552,-9.787496566772461,1.3479355573654175,0.0138414166867733,-0.006122165359556675,0.012510511092841625
18919603833700,1.5215152502059937,-9.789891242980957,1.3227964639663696,0.01463996060192585,-0.005855984054505825,0.005855984054505825
18919605070937,1.5861586332321167,-9.749189376831055,1.3335703611373901,0.005855984054505825,-0.0042588976211845875,0.0042588976211845875
18919606308150,1.5382746458053589,-9.744400978088379,1.3491326570510864,0.010381062515079975,-0.008517795242369175,0.0077192517928779125
18919607545412,1.5478514432907104,-9.704896926879883,1.3886369466781616,0.01117960549890995,-0.0071868896484375,0.01357523538172245
18919608782637,1.5861586332321167,-9.726444244384766,1.3874398469924927,0.010913425125181675,-0.0077192517928779125,0.012510511092841625
18919610019862,1.5286978483200073,-9.737218856811523,1.3395558595657349,0.01171196810901165,-0.010913425125181675,0.01224433071911335
18919611257100,1.5705963373184204,-9.728838920593262,1.3467384576797485,0.00958251953125,-0.0071868896484375,0.0119781494140625
18919612494350,1.534683346748352,-9.71926212310791,1.3934253454208374,0.0090501569211483,-0.007453070487827063,0.01410759799182415
18919613731587,1.5705963373184204,-9.720458984375,1.41257905960083,0.010913425125181675,-0.01463996060192585,0.01836649514734745
18919614968837,1.6112977266311646,-9.770737648010254,1.3455413579940796,0.010114881210029125,-0.00958251953125,0.0138414166867733
18919616206062,1.5825673341751099,-9.708487510681152,1.358709454536438,0.010114881210029125,-0.008251613937318325,0.01224433071911335
18919617443300,1.534683346748352,-9.718064308166504,1.3323732614517212,0.008251613937318325,-0.0077192517928779125,0.01889885775744915
18919618680537,1.533486247062683,-9.708487510681152,1.3563152551651,0.005855984054505825,-0.00984870083630085,0.01783413253724575
18919619917775,1.5203181505203247,-9.676166534423828,1.3287819623947144,0.005589802749454975,-0.0071868896484375,0.01756795309484005
18919621155012,1.5478514432907104,-9.709685325622559,1.3192051649093628,0.005057440605014563,-0.005855984054505825,0.01703559048473835
18919622392250,1.4832079410552979,-9.707290649414062,1.3539210557937622,0.01357523538172245,-0.010114881210029125,0.01463996060192585
18919623629487,1.5454572439193726,-9.706093788146973,1.3515268564224243,0.010381062515079975,-0.00984870083630085,0.01783413253724575
18919624866725,1.5263036489486694,-9.701305389404297,1.3407529592514038,0.0090501569211483,-0.008783976547420025,0.0234239362180233
18919626103950,1.5442601442337036,-9.72165584564209,1.3048399686813354,0.005855984054505825,-0.012776692397892475,0.0228915736079216
18919627341200,1.5310920476913452,-9.716867446899414,1.315613865852356,0.005855984054505825,-0.0138414166867733,0.0181003138422966
18919628578425,1.5047557353973389,-9.716867446899414,1.3287819623947144,0.0077192517928779125,-0.00958251953125,0.0162370465695858
18919629815675,1.4963760375976562,-9.684545516967773,1.2988544702529907,0.0063883461989462376,-0.01117960549890995,0.014373779296875
18919631052912,1.5610195398330688,-9.657012939453125,1.3419500589370728,0.005855984054505825,-0.010647243820130825,0.013042873702943325
18919632290162,1.5203181505203247,-9.738415718078613,1.3515268564224243,0.010114881210029125,-0.007453070487827063,0.015172322280704975
18919633527387,1.5418659448623657,-9.700108528137207,1.3611036539077759,0.0053236219100654125,-0.004791259765625,0.0204959437251091
18919634764625,1.5215152502059937,-9.714473724365234,1.335964560508728,0.0042588976211845875,-0.008517795242369175,0.0162370465695858
18919636001875,1.5670050382614136,-9.736021041870117,1.3670891523361206,0.007985432632267475,-0.0114457868039608,0.01650322787463665
18919637239087,1.558625340461731,-9.709685325622559,1.3886369466781616,0.0042588976211845875,-0.01410759799182415,0.0210283063352108
18919638476337,1.5298949480056763,-9.732430458068848,1.3263877630233765,0.0053236219100654125,-0.0196974016726017,0.01703559048473835
18919639713575,1.5717934370040894,-9.747992515563965,1.337161660194397,0.0021294488105922937,-0.01357523538172245,0.01597086526453495
18919640950812,1.5155296325683594,-9.743204116821289,1.3479355573654175,0.0021294488105922937,-0.015172322280704975,0.013042873702943325
18919642188037,1.501164436340332,-9.740809440612793,1.3395558595657349,0.0031941730994731188,-0.01650322787463665,0.00984870083630085
18919643425287,1.5478514432907104,-9.727641105651855,1.3275848627090454,0.0039927163161337376,-0.013042873702943325,0.0114457868039608
18919644662512,1.5310920476913452,-9.730035781860352,1.3491326570510864,0.007985432632267475,-0.0114457868039608,0.0157046839594841
18919645899762,1.5442601442337036,-9.733627319335938,1.3431471586227417,0.0023956298828125,-0.008251613937318325,0.01783413253724575
18919647136987,1.5251065492630005,-9.732430458068848,1.3443442583084106,-0.0005323622026480734,-0.01357523538172245,0.01463996060192585
18919648374225,1.5646108388900757,-9.768342971801758,1.3634978532791138,0.0007985432748682797,-0.014373779296875,0.01783413253724575
18919649611475,1.5430630445480347,-9.726444244384766,1.3455413579940796,0.0010647244052961469,-0.015172322280704975,0.01703559048473835
18919650848712,1.5310920476913452,-9.726444244384766,1.3215993642807007,0.0018632676219567657,-0.01357523538172245,0.014906140975654125
18919652085950,1.502361536026001,-9.728838920593262,1.3323732614517212,0.00452507846057415,-0.01171196810901165,0.0114457868039608
18919653323187,1.5442601442337036,-9.713275909423828,1.3886369466781616,0.004791259765625,-0.012776692397892475,0.014906140975654125
18919654560425,1.4963760375976562,-9.706093788146973,1.334767460823059,0.0002661811013240367,-0.01357523538172245,0.013042873702943325
18919655797637,1.5418659448623657,-9.702502250671387,1.315613865852356,0.0015970865497365594,-0.0181003138422966,0.01117960549890995
18919657034900,1.556231141090393,-9.715670585632324,1.359906554222107,0.0021294488105922937,-0.015172322280704975,0.014373779296875
18919658272137,1.5538369417190552,-9.696516990661621,1.3287819623947144,0.003460354171693325,-0.0157046839594841,0.01943122036755085
18919659509375,1.535880446434021,-9.666589736938477,1.3551181554794312,0.0053236219100654125,-0.01836649514734745,0.01597086526453495
18919660746612,1.5239094495773315,-9.684545516967773,1.3766659498214722,0.0021294488105922937,-0.015172322280704975,0.0138414166867733
18919661983837,1.5538369417190552,-9.696516990661621,1.3539210557937622,-0.0005323622026480734,-0.01357523538172245,0.01597086526453495
18919663221087,1.5849615335464478,-9.702502250671387,1.3239935636520386,0.005057440605014563,-0.00958251953125,0.01650322787463665
18919664458300,1.5406688451766968,-9.654618263244629,1.3227964639663696,0.005057440605014563,-0.01224433071911335,0.010913425125181675
18919665695550,1.5502456426620483,-9.66299819946289,1.4425065517425537,0.0021294488105922937,-0.01463996060192585,0.014373779296875
18919666932787,1.5239094495773315,-9.739612579345703,1.358709454536438,0.0053236219100654125,-0.014373779296875,0.01783413253724575
18919668170037,1.5322891473770142,-9.704896926879883,1.3778630495071411,0.007985432632267475,-0.0173017717897892,0.0162370465695858
18919669407275,1.578976035118103,-9.671378135681152,1.381454348564148,0.006122165359556675,-0.01703559048473835,0.01463996060192585
18919670644512,1.5849615335464478,-9.68933391571045,1.359906554222107,0.0037265352439135313,-0.01756795309484005,0.014906140975654125
18919671881762,1.5430630445480347,-9.68933391571045,1.292868971824646,0.008517795242369175,-0.0196974016726017,0.015172322280704975
18919673118962,1.4975731372833252,-9.65222454071045,1.3623007535934448,0.006122165359556675,-0.0196974016726017,0.01357523538172245
18919674356212,1.5490485429763794,-9.653421401977539,1.3479355573654175,0.00692070834338665,-0.0191650390625,0.015438503585755825
18919675593450,1.5239094495773315,-9.653421401977539,1.3443442583084106,0.01224433071911335,-0.015438503585755825,0.0186326764523983
18919676830687,1.5490485429763794,-9.66419506072998,1.3299790620803833,0.00984870083630085,-0.0204959437251091,0.013309055007994175
18919678067937,1.5454572439193726,-9.68813705444336,1.3431471586227417,0.0071868896484375,-0.0204959437251091,0.012776692397892475
18919679305162,1.5263036489486694,-9.703699111938477,1.3395558595657349,0.008251613937318325,-0.0210283063352108,0.005855984054505825
18919680542412,1.53707754611969,-9.704896926879883,1.3419500589370728,0.012776692397892475,-0.01996358297765255,0.012776692397892475
18919681779650,1.5310920476913452,-9.66419506072998,1.3754688501358032,0.01224433071911335,-0.0210283063352108,0.00984870083630085
18919683016875,1.502361536026001,-9.672574996948242,1.3287819623947144,0.0138414166867733,-0.02661811001598835,0.014906140975654125
18919684254112,1.4951789379119873,-9.68574333190918,1.3287819623947144,0.01597086526453495,-0.0252872034907341,0.0167694091796875
18919685491362,1.5263036489486694,-9.647436141967773,1.2976573705673218,0.01410759799182415,-0.0220930315554142,0.01224433071911335
18919686728587,1.5095441341400146,-9.671378135681152,1.338358759880066,0.0173017717897892,-0.0244886614382267,0.007985432632267475
18919687965825,1.5107412338256836,-9.679757118225098,1.3515268564224243,0.0138414166867733,-0.02076212503015995,0.01224433071911335
18919689203062,1.4856021404266357,-9.637859344482422,1.3263877630233765,0.0162370465695858,-0.02555338479578495,0.0114457868039608
18919690440300,1.5598224401474,-9.66299819946289,1.3275848627090454,0.01783413253724575,-0.0234239362180233,0.01463996060192585
18919691677550,1.5394717454910278,-9.701305389404297,1.3287819623947144,0.0173017717897892,-0.0181003138422966,0.01224433071911335
18919692914775,1.5382746458053589,-9.714473724365234,1.3527239561080933,0.01597086526453495,-0.02182685025036335,0.007453070487827063
18919694152000,1.5610195398330688,-9.68574333190918,1.3694833517074585,0.0162370465695858,-0.02608574740588665,0.010913425125181675
18919695389262,1.5059528350830078,-9.702502250671387,1.3503297567367554,0.01783413253724575,-0.02502102218568325,0.0157046839594841
18919696626500,1.5466543436050415,-9.708487510681152,1.380257248878479,0.01703559048473835,-0.0292799212038517,0.007985432632267475
18919697863725,1.535880446434021,-9.684545516967773,1.3838485479354858,0.02076212503015995,-0.0282151959836483,0.007453070487827063
18919699100962,1.5514427423477173,-9.694122314453125,1.314416766166687,0.0263519287109375,-0.02608574740588665,0.008251613937318325
18919700338200,1.5478514432907104,-9.670180320739746,1.3491326570510864,0.02182685025036335,-0.0292799212038517,0.00958251953125
18919701575437,1.5394717454910278,-9.677363395690918,1.3910311460494995,0.02182685025036335,-0.0292799212038517,0.01224433071911335
18919702812675,1.5298949480056763,-9.704896926879883,1.3551181554794312,0.0244886614382267,-0.0276828333735466,0.010381062515079975
18919704049925,1.5682021379470825,-9.691728591918945,1.3646949529647827,0.0244886614382267,-0.0271504707634449,0.01224433071911335
18919705287150,1.534683346748352,-9.68694019317627,1.338358759880066,0.023956298828125,-0.02981228195130825,0.010114881210029125
18919706524387,1.558625340461731,-9.68574333190918,1.3527239561080933,0.023956298828125,-0.0372653529047966,0.00931633822619915
18919707761637,1.5598224401474,-9.702502250671387,1.3623007535934448,0.02129448764026165,-0.0327402763068676,0.00452507846057415
18919708998850,1.5406688451766968,-9.696516990661621,1.3754688501358032,0.02129448764026165,-0.0292799212038517,0.006122165359556675
18919710236112,1.5670050382614136,-9.706093788146973,1.3503297567367554,0.02182685025036335,-0.0319417305290699,0.00958251953125
18919711473337,1.5251065492630005,-9.680954933166504,1.3419500589370728,0.023956298828125,-0.0330064557492733,0.005589802749454975
18919712710575,1.5454572439193726,-9.734824180603027,1.3886369466781616,0.0223592109978199,-0.0330064557492733,0.0063883461989462376
18919713947812,1.581370234489441,-9.713275909423828,1.357512354850769,0.02262539230287075,-0.0316755510866642,0.008517795242369175
18919715185062,1.5263036489486694,-9.708487510681152,1.357512354850769,0.0196974016726017,-0.0316755510866642,0.0119781494140625
18919716422275,1.5239094495773315,-9.727641105651855,1.3479355573654175,0.02022976242005825,-0.0377977155148983,0.00692070834338665
18919717659537,1.5382746458053589,-9.72165584564209,1.380257248878479,0.01703559048473835,-0.0407257080078125,0.0037265352439135313
18919718896762,1.5634137392044067,-9.703699111938477,1.380257248878479,0.02315775491297245,-0.033538818359375,0.0010647244052961469
18919720133987,1.5275007486343384,-9.678560256958008,1.3563152551651,0.0228915736079216,-0.0338049978017807,0.004791259765625
18919721371237,1.5382746458053589,-9.690531730651855,1.3239935636520386,0.02315775491297245,-0.0369991734623909,0.0031941730994731188
18919722608475,1.5107412338256836,-9.718064308166504,1.3694833517074585,0.0234239362180233,-0.0362006276845932,0.00931633822619915
18919723845725,1.5394717454910278,-9.724050521850586,1.4077906608581543,0.02022976242005825,-0.0346035435795784,0.0053236219100654125
18919725082950,1.5059528350830078,-9.730035781860352,1.3658920526504517,0.01996358297765255,-0.0399271659553051,0.0023956298828125
18919726320200,1.5263036489486694,-9.712079048156738,1.3682862520217896,0.01836649514734745,-0.0338049978017807,-0.0007985432748682797
18919727557437,1.5550340414047241,-9.690531730651855,1.3323732614517212,0.0157046839594841,-0.0319417305290699,0.0
18919728794662,1.5298949480056763,-9.730035781860352,1.3515268564224243,0.0247548408806324,-0.0354020856320858,0.00931633822619915
18919730031912,1.5191209316253662,-9.708487510681152,1.3838485479354858,0.02555338479578495,-0.0330064557492733,0.0005323622026480734
18919731269125,1.5095441341400146,-9.673771858215332,1.337161660194397,0.02182685025036335,-0.0356682650744915,-0.004791259765625
18919732506400,1.499967336654663,-9.692925453186035,1.3455413579940796,0.0223592109978199,-0.0391286201775074,-0.0023956298828125
18919733743625,1.5550340414047241,-9.702502250671387,1.3479355573654175,0.0196974016726017,-0.038330078125,-0.0013309054775163531
18919734980850,1.5466543436050415,-9.713275909423828,1.3754688501358032,0.02022976242005825,-0.0436537005007267,-0.0005323622026480734
18919736218087,1.5394717454910278,-9.706093788146973,1.3551181554794312,0.01836649514734745,-0.038330078125,-0.0010647244052961469
18919737455325,1.499967336654663,-9.718064308166504,1.3670891523361206,0.0220930315554142,-0.0417904332280159,0.0013309054775163531
18919738692575,1.5514427423477173,-9.701305389404297,1.3982137441635132,0.015438503585755825,-0.042855154722929,0.0042588976211845875
18919739929812,1.5263036489486694,-9.697713851928711,1.3646949529647827,0.0162370465695858,-0.0412580706179142,-0.0005323622026480734
18919741167050,1.5275007486343384,-9.707290649414062,1.3479355573654175,0.01703559048473835,-0.042855154722929,0.004791259765625
18919742404275,1.5322891473770142,-9.739612579345703,1.4041993618011475,0.01756795309484005,-0.0444522425532341,0.006122165359556675
18919743641512,1.5215152502059937,-9.700108528137207,1.335964560508728,0.02076212503015995,-0.047646414488554,0.0007985432748682797
18919744878750,1.502361536026001,-9.7420072555542,1.3730746507644653,0.01650322787463665,-0.0404595248401165,0.0015970865497365594
18919746116000,1.5454572439193726,-9.768342971801758,1.3778630495071411,0.0114457868039608,-0.0385962575674057,0.0
18919747353212,1.5382746458053589,-9.716867446899414,1.3407529592514038,0.0157046839594841,-0.0388624407351017,0.0026618109550327063
18919748590462,1.5095441341400146,-9.727641105651855,1.3670891523361206,0.0157046839594841,-0.0420566126704216,-0.0002661811013240367
18919749827687,1.5227123498916626,-9.730035781860352,1.335964560508728,0.01703559048473835,-0.0449846051633358,0.0013309054775163531
18919751064925,1.4939818382263184,-9.738415718078613,1.3395558595657349,0.01836649514734745,-0.0404595248401165,0.0005323622026480734
18919752302175,1.5191209316253662,-9.746795654296875,1.337161660194397,0.01597086526453495,-0.0407257080078125,-0.0053236219100654125
18919753539425,1.533486247062683,-9.764751434326172,1.3239935636520386,0.014906140975654125,-0.0425889752805233,-0.008517795242369175
18919754776650,1.4903905391693115,-9.750386238098145,1.3634978532791138,0.01357523538172245,-0.0401933453977108,-0.00452507846057415
18919756013887,1.4700398445129395,-9.747992515563965,1.3886369466781616,0.01117960549890995,-0.0439198799431324,-0.005589802749454975
18919757251112,1.5263036489486694,-9.734824180603027,1.3551181554794312,0.0063883461989462376,-0.0436537005007267,-0.005855984054505825
18919758488362,1.5131354331970215,-9.75397777557373,1.3503297567367554,0.008251613937318325,-0.043121337890625,-0.0042588976211845875
18919759725600,1.5610195398330688,-9.758766174316406,1.3503297567367554,0.01117960549890995,-0.0417904332280159,-0.005057440605014563
18919760962837,1.5622166395187378,-9.765949249267578,1.359906554222107,0.00984870083630085,-0.0404595248401165,-0.008251613937318325
18919762200075,1.5670050382614136,-9.77791976928711,1.3934253454208374,0.008783976547420025,-0.043121337890625,-0.005855984054505825
18919763437300,1.5658079385757446,-9.769539833068848,1.3658920526504517,0.010114881210029125,-0.0468478724360466,-0.0013309054775163531
18919764674550,1.5107412338256836,-9.743204116821289,1.3658920526504517,0.010647243820130825,-0.0449846051633358,-0.0066545275039970875
18919765911775,1.5059528350830078,-9.739612579345703,1.3646949529647827,0.007985432632267475,-0.042855154722929,-0.0053236219100654125
18919767149037,1.5059528350830078,-9.761160850524902,1.3251906633377075,0.0063883461989462376,-0.0407257080078125,-0.0013309054775163531
18919768386262,1.4879963397979736,-9.727641105651855,1.3778630495071411,0.0066545275039970875,-0.0407257080078125,-0.0031941730994731188
18919769623500,1.5071499347686768,-9.75397777557373,1.3491326570510864,0.005589802749454975,-0.0441860631108284,-0.010381062515079975
18919770860737,1.5143325328826904,-9.736021041870117,1.3539210557937622,0.004791259765625,-0.0423227921128273,-0.008517795242369175
18919772097975,1.4867992401123047,-9.743204116821289,1.3479355573654175,0.0031941730994731188,-0.0407257080078125,-0.0138414166867733
18919773335212,1.4856021404266357,-9.745597839355469,1.357512354850769,0.0018632676219567657,-0.0412580706179142,-0.012776692397892475
18919774572437,1.4856021404266357,-9.746795654296875,1.3862427473068237,0.0021294488105922937,-0.0492435023188591,-0.0090501569211483
18919775809687,1.4832079410552979,-9.732430458068848,1.3670891523361206,0.0005323622026480734,-0.0487111397087574,-0.0063883461989462376
18919777046912,1.4927847385406494,-9.747992515563965,1.3108254671096802,0.0031941730994731188,-0.0463155098259449,-0.012776692397892475
18919778284150,1.4879963397979736,-9.697713851928711,1.338358759880066,0.004791259765625,-0.0441860631108284,-0.010913425125181675
18919779521412,1.5275007486343384,-9.725247383117676,1.3563152551651,-0.0002661811013240367,-0.0465816929936409,-0.007985432632267475
18919780758625,1.5191209316253662,-9.690531730651855,1.3718775510787964,-0.0005323622026480734,-0.0468478724360466,-0.0039927163161337376
18919781995887,1.535880446434021,-9.683348655700684,1.3754688501358032,-0.0007985432748682797,-0.0444522425532341,-0.00931633822619915
18919783233112,1.5275007486343384,-9.706093788146973,1.3646949529647827,0.0021294488105922937,-0.0439198799431324,-0.0138414166867733
18919784470337,1.5107412338256836,-9.678560256958008,1.3275848627090454,0.0002661811013240367,-0.0460493303835392,-0.015172322280704975
18919785707587,1.4736311435699463,-9.703699111938477,1.358709454536438,-0.0007985432748682797,-0.0449846051633358,-0.012776692397892475
18919786944825,1.5275007486343384,-9.696516990661621,1.3503297567367554,0.0023956298828125,-0.0409918874502182,-0.01357523538172245
18919788182062,1.558625340461731,-9.672574996948242,1.3634978532791138,0.0031941730994731188,-0.0420566126704216,-0.008517795242369175
18919789419312,1.5717934370040894,-9.635464668273926,1.3455413579940796,0.0063883461989462376,-0.043121337890625,-0.007453070487827063
18919790656537,1.5251065492630005,-9.682151794433594,1.3251906633377075,-0.0015970865497365594,-0.0425889752805233,-0.01597086526453495
18919791893775,1.5298949480056763,-9.680954933166504,1.3754688501358032,0.0002661811013240367,-0.0433875173330307,-0.014906140975654125
18919793131025,1.5478514432907104,-9.68694019317627,1.3670891523361206,-0.0005323622026480734,-0.0436537005007267,-0.01117960549890995
18919794368262,1.5251065492630005,-9.695320129394531,1.3706804513931274,-0.005589802749454975,-0.0420566126704216,-0.008783976547420025
18919795605475,1.5394717454910278,-9.706093788146973,1.41257905960083,-0.0042588976211845875,-0.0375315360724926,-0.010647243820130825
18919796842725,1.5263036489486694,-9.674968719482422,1.3623007535934448,-0.0029279920272529125,-0.0369991734623909,-0.01597086526453495
18919798079962,1.5454572439193726,-9.713275909423828,1.3874398469924927,-0.0023956298828125,-0.0420566126704216,-0.014373779296875
18919799317200,1.5646108388900757,-9.682151794433594,1.3455413579940796,-0.0039927163161337376,-0.0415242500603199,-0.01463996060192585
18919800554450,1.482010841369629,-9.738415718078613,1.3611036539077759,-0.0023956298828125,-0.042855154722929,-0.01756795309484005
18919801791662,1.5550340414047241,-9.758766174316406,1.357512354850769,-0.0026618109550327063,-0.0425889752805233,-0.015172322280704975
18919803028925,1.5263036489486694,-9.736021041870117,1.334767460823059,-0.0042588976211845875,-0.0423227921128273,-0.014906140975654125
18919804266150,1.5286978483200073,-9.726444244384766,1.3311761617660522,0.0010647244052961469,-0.0425889752805233,-0.0063883461989462376
18919805503387,1.5466543436050415,-9.743204116821289,1.3646949529647827,-0.0007985432748682797,-0.0460493303835392,-0.00931633822619915
18919806740637,1.5538369417190552,-9.770737648010254,1.3922282457351685,-0.0042588976211845875,-0.0375315360724926,-0.01171196810901165
18919807977862,1.5310920476913452,-9.746795654296875,1.3922282457351685,-0.0007985432748682797,-0.043121337890625,-0.00984870083630085
18919809215087,1.5514427423477173,-9.734824180603027,1.3646949529647827,0.0002661811013240367,-0.0391286201775074,-0.01224433071911335
18919810452337,1.5394717454910278,-9.750386238098145,1.338358759880066,-0.004791259765625,-0.0420566126704216,-0.01357523538172245
18919811689587,1.499967336654663,-9.731232643127441,1.4006080627441406,-0.0007985432748682797,-0.0471140518784523,-0.012510511092841625
18919812926812,1.4867992401123047,-9.725247383117676,1.3611036539077759,-0.0029279920272529125,-0.0423227921128273,-0.00958251953125
18919814164062,1.5550340414047241,-9.736021041870117,1.3096283674240112,-0.0029279920272529125,-0.0369991734623909,-0.00692070834338665
18919815401300,1.5263036489486694,-9.714473724365234,1.3192051649093628,-0.0077192517928779125,-0.0388624407351017,-0.010647243820130825
18919816638512,1.5227123498916626,-9.702502250671387,1.3694833517074585,-0.008517795242369175,-0.0393948033452034,-0.01224433071911335
18919817875775,1.4951789379119873,-9.709685325622559,1.3766659498214722,-0.00931633822619915,-0.038330078125,-0.01117960549890995
18919819113012,1.4688427448272705,-9.724050521850586,1.3419500589370728,-0.0090501569211483,-0.0423227921128273,-0.0071868896484375
18919820350237,1.5526398420333862,-9.72285270690918,1.3419500589370728,-0.0090501569211483,-0.0391286201775074,-0.00931633822619915
18919821587475,1.5442601442337036,-9.6989107131958,1.3491326570510864,-0.008517795242369175,-0.0367329902946949,-0.01224433071911335
18919822824725,1.5203181505203247,-9.715670585632324,1.3407529592514038,-0.010381062515079975,-0.0351359061896801,-0.01117960549890995
18919824061950,1.5693992376327515,-9.695320129394531,1.3694833517074585,-0.0053236219100654125,-0.0346035435795784,-0.0090501569211483
18919825299187,1.5263036489486694,-9.77672290802002,1.316810965538025,-0.005057440605014563,-0.038330078125,-0.01117960549890995
18919826536412,1.5382746458053589,-9.68813705444336,1.313219666481018,-0.005057440605014563,-0.0359344482421875,-0.01117960549890995
18919827773662,1.5478514432907104,-9.709685325622559,1.3503297567367554,-0.0071868896484375,-0.0369991734623909,-0.01171196810901165
18919829010900,1.5179238319396973,-9.715670585632324,1.3323732614517212,-0.0053236219100654125,-0.03087700717151165,-0.0181003138422966
18919830248150,1.533486247062683,-9.727641105651855,1.3227964639663696,-0.0039927163161337376,-0.0375315360724926,-0.012510511092841625
18919831485387,1.5430630445480347,-9.726444244384766,1.315613865852356,-0.008251613937318325,-0.0367329902946949,-0.0063883461989462376
18919832722612,1.5083470344543457,-9.747992515563965,1.3455413579940796,-0.007453070487827063,-0.0338049978017807,-0.0071868896484375
18919833959850,1.50355863571167,-9.72285270690918,1.3491326570510864,-0.010381062515079975,-0.0316755510866642,-0.010114881210029125
18919835197087,1.5322891473770142,-9.744400978088379,1.3275848627090454,-0.00958251953125,-0.0300784632563591,-0.012510511092841625
18919836434325,1.5945383310317993,-9.75278091430664,1.3395558595657349,-0.008517795242369175,-0.0324740931391716,-0.01117960549890995
18919837671550,1.5670050382614136,-9.770737648010254,1.3287819623947144,-0.013042873702943325,-0.0314093679189682,-0.013042873702943325
18919838908800,1.556231141090393,-9.726444244384766,1.337161660194397,-0.0077192517928779125,-0.0271504707634449,-0.01171196810901165
18919840146025,1.5658079385757446,-9.78869342803955,1.3455413579940796,-0.012776692397892475,-0.0292799212038517,-0.01117960549890995
18919841383300,1.5454572439193726,-9.728838920593262,1.3754688501358032,-0.01224433071911335,-0.0330064557492733,-0.008783976547420025
18919842620512,1.5466543436050415,-9.720458984375,1.3443442583084106,-0.010913425125181675,-0.03034464456140995,-0.005855984054505825
18919843857750,1.5514427423477173,-9.77552604675293,1.2988544702529907,-0.010114881210029125,-0.0319417305290699,-0.00984870083630085
18919845094975,1.557428240776062,-9.736021041870117,1.359906554222107,-0.010114881210029125,-0.0276828333735466,-0.00984870083630085
18919846332237,1.5442601442337036,-9.71926212310791,1.3503297567367554,-0.00931633822619915,-0.0252872034907341,-0.00931633822619915
18919847569475,1.5286978483200073,-9.726444244384766,1.3682862520217896,-0.01117960549890995,-0.02369011752307415,-0.012510511092841625
18919848806700,1.5179238319396973,-9.713275909423828,1.3658920526504517,-0.004791259765625,-0.0271504707634449,-0.008783976547420025
18919850043937,1.5634137392044067,-9.679757118225098,1.359906554222107,-0.008517795242369175,-0.0292799212038517,-0.01117960549890995
18919851281175,1.5717934370040894,-9.707290649414062,1.3407529592514038,-0.01224433071911335,-0.02502102218568325,-0.0037265352439135313
18919852518412,1.5418659448623657,-9.678560256958008,1.3180080652236938,-0.007453070487827063,-0.02981228195130825,-0.007453070487827063
18919853755662,1.5215152502059937,-9.710882186889648,1.3431471586227417,-0.0063883461989462376,-0.0252872034907341,-0.00931633822619915
18919854992875,1.5263036489486694,-9.677363395690918,1.3036428689956665,-0.0090501569211483,-0.01943122036755085,-0.00984870083630085
18919856230112,1.5071499347686768,-9.701305389404297,1.3060370683670044,-0.014906140975654125,-0.02874755859375,-0.008517795242369175
18919857467375,1.5227123498916626,-9.708487510681152,1.2880805730819702,-0.01224433071911335,-0.02422248013317585,-0.008251613937318325
18919858704600,1.5466543436050415,-9.702502250671387,1.3335703611373901,-0.012776692397892475,-0.0228915736079216,-0.0031941730994731188
18919859941837,1.5418659448623657,-9.726444244384766,1.3407529592514038,-0.010647243820130825,-0.02608574740588665,-0.0002661811013240367
18919861179075,1.5167267322540283,-9.744400978088379,1.3036428689956665,-0.00452507846057415,-0.033272635191679,-0.0026618109550327063
18919862416337,1.5263036489486694,-9.732430458068848,1.3634978532791138,-0.008517795242369175,-0.02741665206849575,-0.008783976547420025
18919863653562,1.5251065492630005,-9.733627319335938,1.3251906633377075,-0.0119781494140625,-0.01996358297765255,-0.0063883461989462376
18919864890800,1.5263036489486694,-9.758766174316406,1.292868971824646,-0.007453070487827063,-0.0181003138422966,0.0002661811013240367
18919866128025,1.5753847360610962,-9.759963035583496,1.3108254671096802,-0.0063883461989462376,-0.0181003138422966,-0.0053236219100654125
18919867365275,1.5658079385757446,-9.732430458068848,1.358709454536438,-0.0114457868039608,-0.02129448764026165,-0.0021294488105922937
18919868602487,1.5095441341400146,-9.750386238098145,1.3742717504501343,-0.010381062515079975,-0.014373779296875,-0.004791259765625
18919869839750,1.5454572439193726,-9.744400978088379,1.3215993642807007,-0.01117960549890995,-0.0210283063352108,-0.0026618109550327063
18919871076975,1.5598224401474,-9.743204116821289,1.335964560508728,-0.00931633822619915,-0.02022976242005825,-0.006122165359556675
18919872314225,1.535880446434021,-9.767146110534668,1.335964560508728,-0.00692070834338665,-0.01703559048473835,-0.0029279920272529125
18919873551462,1.5705963373184204,-9.768342971801758,1.2832921743392944,-0.010913425125181675,-0.0181003138422966,-0.0007985432748682797
18919874788687,1.5610195398330688,-9.786299705505371,1.3120225667953491,-0.0077192517928779125,-0.0204959437251091,-0.0002661811013240367
18919876025937,1.5322891473770142,-9.762357711791992,1.3275848627090454,-0.008251613937318325,-0.0204959437251091,0.0010647244052961469
18919877263175,1.5825673341751099,-9.730035781860352,1.3036428689956665,-0.008251613937318325,-0.01836649514734745,0.0042588976211845875
18919878500412,1.557428240776062,-9.747992515563965,1.358709454536438,-0.01357523538172245,-0.0196974016726017,0.0010647244052961469
18919879737650,1.5909470319747925,-9.759963035583496,1.3227964639663696,-0.010913425125181675,-0.02076212503015995,0.0029279920272529125
18919880974875,1.556231141090393,-9.72285270690918,1.3275848627090454,-0.013042873702943325,-0.01410759799182415,0.0039927163161337376
18919882212137,1.5693992376327515,-9.767146110534668,1.3658920526504517,-0.012510511092841625,-0.0167694091796875,0.007985432632267475
18919883449350,1.557428240776062,-9.761160850524902,1.3419500589370728,-0.0077192517928779125,-0.01996358297765255,0.010647243820130825
18919884686587,1.5849615335464478,-9.75158405303955,1.3275848627090454,-0.0071868896484375,-0.01836649514734745,0.0053236219100654125
18919885923837,1.5849615335464478,-9.773131370544434,1.3335703611373901,-0.0090501569211483,-0.00931633822619915,0.00958251953125
18919887161075,1.5969325304031372,-9.725247383117676,1.3539210557937622,-0.012776692397892475,-0.013042873702943325,0.0053236219100654125
18919888398300,1.5502456426620483,-9.743204116821289,1.2832921743392944,-0.00958251953125,-0.0173017717897892,0.0042588976211845875
18919889635537,1.556231141090393,-9.734824180603027,1.3227964639663696,-0.015172322280704975,-0.0119781494140625,0.008783976547420025
18919890872787,1.5753847360610962,-9.710882186889648,1.2964602708816528,-0.01783413253724575,-0.0167694091796875,0.012776692397892475
18919892110025,1.5837644338607788,-9.734824180603027,1.3479355573654175,-0.014373779296875,-0.01410759799182415,0.015172322280704975
18919893347237,1.5873557329177856,-9.7420072555542,1.3060370683670044,-0.012510511092841625,-0.01357523538172245,0.008251613937318325
18919894584500,1.5873557329177856,-9.7420072555542,1.2713210582733154,-0.01224433071911335,-0.01597086526453495,0.012776692397892475
18919895821725,1.5658079385757446,-9.712079048156738,1.3072341680526733,-0.012510511092841625,-0.01463996060192585,0.00958251953125
18919897058962,1.5837644338607788,-9.7420072555542,1.3335703611373901,-0.012776692397892475,-0.01597086526453495,0.0077192517928779125
18919898296212,1.6543934345245361,-9.732430458068848,1.2952631711959839,-0.01410759799182415,-0.0167694091796875,0.014906140975654125
18919899533450,1.624465823173523,-9.758766174316406,1.2988544702529907,-0.0162370465695858,-0.0162370465695858,0.0157046839594841
18919900770687,1.5945383310317993,-9.726444244384766,1.2988544702529907,-0.015438503585755825,-0.02022976242005825,0.01597086526453495
18919902007925,1.5837644338607788,-9.731232643127441,1.335964560508728,-0.013042873702943325,-0.0157046839594841,0.01597086526453495
18919903245150,1.578976035118103,-9.749189376831055,1.334767460823059,-0.01463996060192585,-0.01597086526453495,0.014906140975654125
18919904482387,1.600523829460144,-9.725247383117676,1.3251906633377075,-0.0162370465695858,-0.0162370465695858,0.0167694091796875
18919905719637,1.6196774244308472,-9.718064308166504,1.3192051649093628,-0.0114457868039608,-0.0167694091796875,0.0167694091796875
18919906956862,1.5430630445480347,-9.730035781860352,1.3239935636520386,-0.012776692397892475,-0.01703559048473835,0.0215606689453125
18919908194112,1.5921441316604614,-9.743204116821289,1.334767460823059,-0.01889885775744915,-0.015438503585755825,0.0234239362180233
18919909431362,1.5969325304031372,-9.731232643127441,1.3120225667953491,-0.012776692397892475,-0.010114881210029125,0.0247548408806324
18919910668587,1.6077064275741577,-9.745597839355469,1.3215993642807007,-0.00931633822619915,-0.01783413253724575,0.0204959437251091
18919911905837,1.624465823173523,-9.746795654296875,1.2880805730819702,-0.013309055007994175,-0.02022976242005825,0.02741665206849575
18919913143062,1.5741876363754272,-9.712079048156738,1.294066071510315,-0.014373779296875,-0.01650322787463665,0.02874755859375
18919914380312,1.5717934370040894,-9.730035781860352,1.2988544702529907,-0.0173017717897892,-0.0173017717897892,0.0258195661008358
18919915617525,1.5969325304031372,-9.732430458068848,1.3407529592514038,-0.007985432632267475,-0.01756795309484005,0.0234239362180233
18919916854775,1.5622166395187378,-9.713275909423828,1.3479355573654175,-0.0114457868039608,-0.0191650390625,0.0204959437251091
18919918092012,1.558625340461731,-9.716867446899414,1.3108254671096802,-0.0157046839594841,-0.01836649514734745,0.0252872034907341
18919919329225,1.5753847360610962,-9.6989107131958,1.2952631711959839,-0.01783413253724575,-0.02369011752307415,0.02422248013317585
18919920566487,1.6065093278884888,-9.677363395690918,1.2449848651885986,-0.0157046839594841,-0.01943122036755085,0.0258195661008358
18919921803712,1.5921441316604614,-9.692925453186035,1.3251906633377075,-0.0186326764523983,-0.0204959437251091,0.0276828333735466
18919923040950,1.624465823173523,-9.695320129394531,1.2856863737106323,-0.0167694091796875,-0.0196974016726017,0.0263519287109375
18919924278212,1.6160861253738403,-9.667786598205566,1.3000515699386597,-0.0138414166867733,-0.0228915736079216,0.02848137728869915
18919925515425,1.581370234489441,-9.713275909423828,1.3192051649093628,-0.012510511092841625,-0.0196974016726017,0.0319417305290699
18919926752687,1.602918028831482,-9.704896926879883,1.2820950746536255,-0.014906140975654125,-0.02129448764026165,0.02848137728869915
18919927989925,1.6388310194015503,-9.720458984375,1.2856863737106323,-0.015438503585755825,-0.0215606689453125,0.02661811001598835
18919929227150,1.6077064275741577,-9.701305389404297,1.2952631711959839,-0.007985432632267475,-0.0196974016726017,0.0271504707634449
18919930464375,1.599326729774475,-9.708487510681152,1.2868834733963013,-0.0090501569211483,-0.02661811001598835,0.0316755510866642
18919931701612,1.5753847360610962,-9.731232643127441,1.3251906633377075,-0.01650322787463665,-0.0234239362180233,0.0311431884765625
18919932938850,1.5909470319747925,-9.736021041870117,1.3180080652236938,-0.015172322280704975,-0.02422248013317585,0.0295461006462574
18919934176112,1.5753847360610962,-9.718064308166504,1.292868971824646,-0.012776692397892475,-0.023956298828125,0.03034464456140995
18919935413350,1.623268723487854,-9.700108528137207,1.294066071510315,-0.0119781494140625,-0.01597086526453495,0.0322079136967659
18919936650600,1.5550340414047241,-9.743204116821289,1.3060370683670044,-0.013309055007994175,-0.01756795309484005,0.033272635191679
18919937887800,1.5981296300888062,-9.709685325622559,1.2761094570159912,-0.015172322280704975,-0.02369011752307415,0.0311431884765625
18919939125062,1.581370234489441,-9.707290649414062,1.2976573705673218,-0.01463996060192585,-0.023956298828125,0.0340711809694767
18919940362287,1.602918028831482,-9.720458984375,1.338358759880066,-0.010114881210029125,-0.02182685025036335,0.033538818359375
18919941599537,1.5885528326034546,-9.71926212310791,1.315613865852356,-0.013042873702943325,-0.0228915736079216,0.0295461006462574
18919942836750,1.6388310194015503,-9.691728591918945,1.294066071510315,-0.010381062515079975,-0.0258195661008358,0.0330064557492733
18919944073987,1.622071623802185,-9.726444244384766,1.2808979749679565,-0.01463996060192585,-0.023956298828125,0.0330064557492733
18919945311237,1.6196774244308472,-9.713275909423828,1.2844892740249634,-0.01117960549890995,-0.0311431884765625,0.0362006276845932
18919946548475,1.5945383310317993,-9.704896926879883,1.3287819623947144,-0.0186326764523983,-0.0271504707634449,0.0316755510866642
18919947785725,1.5753847360610962,-9.71926212310791,1.2964602708816528,-0.0157046839594841,-0.02608574740588665,0.0351359061896801
18919949022962,1.5933412313461304,-9.684545516967773,1.3072341680526733,-0.0157046839594841,-0.0276828333735466,0.0311431884765625
18919950260187,1.6124948263168335,-9.737218856811523,1.2749123573303223,-0.014373779296875,-0.0263519287109375,0.0343373604118824
18919951497425,1.5825673341751099,-9.712079048156738,1.292868971824646,-0.01783413253724575,-0.0271504707634449,0.0346035435795784
18919952734675,1.6160861253738403,-9.71926212310791,1.3419500589370728,-0.01703559048473835,-0.0268842913210392,0.03087700717151165
18919953971900,1.5981296300888062,-9.701305389404297,1.316810965538025,-0.0173017717897892,-0.0311431884765625,0.0314093679189682
18919955209175,1.5909470319747925,-9.728838920593262,1.2557587623596191,-0.0210283063352108,-0.0306108258664608,0.033538818359375
18919956446375,1.5514427423477173,-9.733627319335938,1.3431471586227417,-0.01597086526453495,-0.0311431884765625,0.0346035435795784
18919957683600,1.5693992376327515,-9.707290649414062,1.316810965538025,-0.010913425125181675,-0.0327402763068676,0.0343373604118824
18919958920850,1.5945383310317993,-9.692925453186035,1.2773066759109497,-0.01224433071911335,-0.033272635191679,0.0300784632563591
18919960158087,1.581370234489441,-9.677363395690918,1.2617442607879639,-0.014906140975654125,-0.0364668108522892,0.0340711809694767
18919961395337,1.5957354307174683,-9.674968719482422,1.3395558595657349,-0.01357523538172245,-0.0354020856320858,0.0351359061896801
18919962632562,1.5670050382614136,-9.701305389404297,1.316810965538025,-0.0167694091796875,-0.0391286201775074,0.0340711809694767
18919963869812,1.6460137367248535,-9.706093788146973,1.3048399686813354,-0.01357523538172245,-0.0367329902946949,0.0354020856320858
18919965107037,1.6124948263168335,-9.694122314453125,1.3443442583084106,-0.012510511092841625,-0.0319417305290699,0.0367329902946949
18919966344300,1.5658079385757446,-9.676166534423828,1.3192051649093628,-0.0173017717897892,-0.0330064557492733,0.0351359061896801
18919967581512,1.5622166395187378,-9.66539192199707,1.3060370683670044,-0.01357523538172245,-0.0348697230219841,0.0327402763068676
18919968818750,1.5466543436050415,-9.701305389404297,1.294066071510315,-0.015438503585755825,-0.0346035435795784,0.0324740931391716
18919970056000,1.5873557329177856,-9.704896926879883,1.314416766166687,-0.013309055007994175,-0.0356682650744915,0.0338049978017807
18919971293237,1.5538369417190552,-9.694122314453125,1.2868834733963013,-0.010114881210029125,-0.0351359061896801,0.03087700717151165
18919972530475,1.5933412313461304,-9.707290649414062,1.3000515699386597,-0.014373779296875,-0.0362006276845932,0.0343373604118824
18919973767725,1.6136919260025024,-9.694122314453125,1.2749123573303223,-0.015172322280704975,-0.0372653529047966,0.0356682650744915
18919975004962,1.5921441316604614,-9.645041465759277,1.3036428689956665,-0.008783976547420025,-0.0425889752805233,0.0356682650744915
18919976242187,1.602918028831482,-9.657012939453125,1.3000515699386597,-0.00958251953125,-0.0415242500603199,0.0340711809694767
18919977479437,1.5610195398330688,-9.680954933166504,1.3036428689956665,-0.01783413253724575,-0.0439198799431324,0.03087700717151165
18919978716650,1.5825673341751099,-9.701305389404297,1.2844892740249634,-0.00984870083630085,-0.0407257080078125,0.03087700717151165
18919979953887,1.5741876363754272,-9.682151794433594,1.3048399686813354,-0.012510511092841625,-0.0401933453977108,0.0338049978017807
18919981191137,1.5646108388900757,-9.703699111938477,1.315613865852356,-0.01117960549890995,-0.0401933453977108,0.0356682650744915
18919982428375,1.5705963373184204,-9.660603523254395,1.294066071510315,-0.014906140975654125,-0.0415242500603199,0.0311431884765625
18919983665600,1.5658079385757446,-9.668983459472656,1.3048399686813354,-0.012510511092841625,-0.0444522425532341,0.02848137728869915
18919984902837,1.5682021379470825,-9.658209800720215,1.3108254671096802,-0.010381062515079975,-0.0492435023188591,0.0292799212038517
18919986140087,1.5729905366897583,-9.66419506072998,1.314416766166687,-0.01463996060192585,-0.0404595248401165,0.0330064557492733
18919987377337,1.5861586332321167,-9.684545516967773,1.3192051649093628,-0.0138414166867733,-0.0423227921128273,0.0346035435795784
18919988614575,1.6184803247451782,-9.694122314453125,1.3551181554794312,-0.013042873702943325,-0.0468478724360466,0.0391286201775074
18919989851800,1.5538369417190552,-9.68933391571045,1.3467384576797485,-0.010913425125181675,-0.0468478724360466,0.0359344482421875
18919991089037,1.5466543436050415,-9.703699111938477,1.3072341680526733,-0.01117960549890995,-0.0401933453977108,0.02901373989880085
18919992326287,1.5634137392044067,-9.715670585632324,1.3227964639663696,-0.013042873702943325,-0.0399271659553051,0.03087700717151165
18919993563525,1.5849615335464478,-9.700108528137207,1.3108254671096802,-0.010114881210029125,-0.0465816929936409,0.0292799212038517
18919994800775,1.5717934370040894,-9.697713851928711,1.3239935636520386,-0.01171196810901165,-0.0481787770986557,0.0295461006462574
18919996037987,1.600523829460144,-9.666589736938477,1.3072341680526733,-0.0119781494140625,-0.0455169677734375,0.02981228195130825
18919997275250,1.5873557329177856,-9.68574333190918,1.3060370683670044,-0.01171196810901165,-0.0463155098259449,0.02901373989880085
18919998512475,1.5753847360610962,-9.680954933166504,1.291671872138977,-0.01357523538172245,-0.0460493303835392,0.0258195661008358
18919999749700,1.5430630445480347,-9.66419506072998,1.3263877630233765,-0.0114457868039608,-0.0473802350461483,0.02369011752307415
18920000986925,1.5634137392044067,-9.648633003234863,1.3311761617660522,-0.0053236219100654125,-0.0447184219956398,0.02555338479578495
18920002224187,1.5466543436050415,-9.707290649414062,1.3180080652236938,-0.007453070487827063,-0.0439198799431324,0.0306108258664608
18920003461437,1.557428240776062,-9.68813705444336,1.3287819623947144,-0.01171196810901165,-0.0481787770986557,0.02741665206849575
18920004698662,1.5693992376327515,-9.655815124511719,1.3503297567367554,-0.01224433071911335,-0.0519053116440773,0.0271504707634449
18920005935887,1.5275007486343384,-9.706093788146973,1.3311761617660522,-0.0090501569211483,-0.0566965714097023,0.033538818359375
18920007173137,1.5693992376327515,-9.68813705444336,1.3096283674240112,-0.0039927163161337376,-0.0540347620844841,0.02981228195130825
18920008410375,1.5741876363754272,-9.691728591918945,1.2880805730819702,-0.00452507846057415,-0.0495096817612648,0.0258195661008358
18920009647625,1.600523829460144,-9.709685325622559,1.3084312677383423,-0.0063883461989462376,-0.0548333041369915,0.02741665206849575
18920010884837,1.5514427423477173,-9.701305389404297,1.3311761617660522,-0.015438503585755825,-0.0535023994743824,0.02369011752307415
18920012122087,1.5382746458053589,-9.712079048156738,1.3263877630233765,-0.01597086526453495,-0.0511067695915699,0.02422248013317585
18920013359325,1.5849615335464478,-9.714473724365234,1.294066071510315,-0.012776692397892475,-0.0511067695915699,0.02608574740588665
18920014596550,1.5083470344543457,-9.71926212310791,1.3036428689956665,-0.010647243820130825,-0.0521714948117733,0.0234239362180233
18920015833800,1.5610195398330688,-9.746795654296875,1.2988544702529907,-0.005057440605014563,-0.0543009415268898,0.02608574740588665
18920017071025,1.5514427423477173,-9.704896926879883,1.337161660194397,-0.0031941730994731188,-0.0516391322016716,0.023956298828125
18920018308275,1.5765818357467651,-9.68933391571045,1.3024457693099976,-0.0090501569211483,-0.0558980293571949,0.0268842913210392
18920019545512,1.5538369417190552,-9.696516990661621,1.3036428689956665,-0.01224433071911335,-0.0550994873046875,0.02369011752307415
18920020782762,1.5406688451766968,-9.715670585632324,1.2665326595306396,-0.0029279920272529125,-0.0508405901491642,0.02369011752307415
18920022020000,1.5538369417190552,-9.720458984375,1.2832921743392944,-0.008517795242369175,-0.0505744069814682,0.0228915736079216
18920023257250,1.5310920476913452,-9.682151794433594,1.3060370683670044,-0.005589802749454975,-0.0532362200319767,0.023956298828125
18920024494475,1.577778935432434,-9.704896926879883,1.2880805730819702,-0.0026618109550327063,-0.052437674254179,0.02315775491297245
18920025731700,1.533486247062683,-9.707290649414062,1.2988544702529907,-0.008251613937318325,-0.0529700368642807,0.02262539230287075
18920026968950,1.53707754611969,-9.707290649414062,1.3072341680526733,-0.0077192517928779125,-0.0487111397087574,0.01463996060192585
18920028206187,1.581370234489441,-9.703699111938477,1.3072341680526733,-0.0071868896484375,-0.052703857421875,0.0220930315554142
18920029443425,1.5705963373184204,-9.682151794433594,1.3036428689956665,-0.005057440605014563,-0.0566965714097023,0.0247548408806324
18920030680675,1.5310920476913452,-9.657012939453125,1.3467384576797485,-0.0037265352439135313,-0.0585598424077034,0.0210283063352108
18920031917925,1.5610195398330688,-9.654618263244629,1.3120225667953491,-0.008517795242369175,-0.0548333041369915,0.0181003138422966
18920033155150,1.53707754611969,-9.668983459472656,1.3096283674240112,-0.008783976547420025,-0.0537685826420784,0.0215606689453125
18920034392375,1.5622166395187378,-9.695320129394531,1.3204022645950317,-0.0018632676219567657,-0.0609554722905159,0.01650322787463665
18920035629625,1.5191209316253662,-9.695320129394531,1.3060370683670044,-0.005589802749454975,-0.0550994873046875,0.0162370465695858
18920036866850,1.5490485429763794,-9.72285270690918,1.313219666481018,-0.0090501569211483,-0.0516391322016716,0.0186326764523983
18920038104100,1.5753847360610962,-9.672574996948242,1.2785037755966187,-0.0029279920272529125,-0.0593583844602108,0.01996358297765255
18920039341337,1.5095441341400146,-9.732430458068848,1.3060370683670044,-0.005589802749454975,-0.0588260218501091,0.02022976242005825
18920040578575,1.5191209316253662,-9.701305389404297,1.2773066759109497,-0.008517795242369175,-0.0604231096804142,0.014906140975654125
18920041815812,1.556231141090393,-9.731232643127441,1.2557587623596191,-0.0063883461989462376,-0.0596245639026165,0.01996358297765255
18920043053050,1.5071499347686768,-9.71926212310791,1.3180080652236938,-0.004791259765625,-0.0556318499147892,0.01756795309484005
18920044290287,1.5251065492630005,-9.714473724365234,1.3120225667953491,-0.0031941730994731188,-0.0574951171875,0.02076212503015995
18920045527525,1.5119383335113525,-9.676166534423828,1.2808979749679565,-0.00452507846057415,-0.0588260218501091,0.02022976242005825
18920046764750,1.5107412338256836,-9.704896926879883,1.2797008752822876,-0.005855984054505825,-0.0540347620844841,0.02076212503015995
18920048002000,1.53707754611969,-9.71926212310791,1.3503297567367554,-0.005589802749454975,-0.0521714948117733,0.01703559048473835
18920049239237,1.502361536026001,-9.714473724365234,1.2832921743392944,-0.0039927163161337376,-0.0556318499147892,0.01943122036755085
18920050476487,1.5203181505203247,-9.701305389404297,1.3120225667953491,-0.0013309054775163531,-0.0580274797976017,0.0220930315554142
18920051713712,1.558625340461731,-9.714473724365234,1.2952631711959839,-0.0015970865497365594,-0.0545671246945858,0.01756795309484005
18920052950950,1.535880446434021,-9.72285270690918,1.259350061416626,-0.0053236219100654125,-0.052703857421875,0.0204959437251091
18920054188200,1.4927847385406494,-9.726444244384766,1.315613865852356,-0.0029279920272529125,-0.0564303919672966,0.0167694091796875
18920055425437,1.5131354331970215,-9.718064308166504,1.2629413604736328,-0.0063883461989462376,-0.0519053116440773,0.010381062515079975
18920056662662,1.599326729774475,-9.72285270690918,1.2677297592163086,-0.00452507846057415,-0.0553656667470932,0.01836649514734745
18920057899900,1.5310920476913452,-9.715670585632324,1.2509703636169434,0.0002661811013240367,-0.057228934019804,0.0167694091796875
18920059137137,1.4951789379119873,-9.739612579345703,1.2725181579589844,-0.0005323622026480734,-0.0564303919672966,0.0173017717897892
18920060374375,1.5059528350830078,-9.697713851928711,1.291671872138977,-0.0039927163161337376,-0.0582936592400074,0.014906140975654125
18920061611612,1.53707754611969,-9.724050521850586,1.2844892740249634,-0.0066545275039970875,-0.0545671246945858,0.01171196810901165
18920062848862,1.533486247062683,-9.707290649414062,1.3000515699386597,-0.0039927163161337376,-0.0553656667470932,0.015438503585755825
18920064086075,1.5191209316253662,-9.71926212310791,1.260547161102295,-0.004791259765625,-0.0569627545773983,0.0167694091796875
18920065323312,1.5418659448623657,-9.712079048156738,1.235408067703247,-0.0042588976211845875,-0.0574951171875,0.0157046839594841
18920066560575,1.5263036489486694,-9.704896926879883,1.2629413604736328,-0.0013309054775163531,-0.0564303919672966,0.013309055007994175
18920067797812,1.535880446434021,-9.672574996948242,1.2892776727676392,-0.003460354171693325,-0.0550994873046875,0.014906140975654125
18920069035050,1.50355863571167,-9.704896926879883,1.2545616626739502,0.0007985432748682797,-0.0585598424077034,0.0186326764523983
18920070272287,1.50355863571167,-9.68574333190918,1.2677297592163086,0.0018632676219567657,-0.0558980293571949,0.01357523538172245
18920071509512,1.4963760375976562,-9.734824180603027,1.3096283674240112,-0.0029279920272529125,-0.0521714948117733,0.015438503585755825
18920072746762,1.5071499347686768,-9.709685325622559,1.2629413604736328,0.0013309054775163531,-0.0564303919672966,0.01783413253724575
18920073984000,1.535880446434021,-9.720458984375,1.2713210582733154,-0.0026618109550327063,-0.0516391322016716,0.0173017717897892
18920075221237,1.4939818382263184,-9.71926212310791,1.2785037755966187,-0.0029279920272529125,-0.0529700368642807,0.01756795309484005
18920076458487,1.4856021404266357,-9.692925453186035,1.2832921743392944,-0.0023956298828125,-0.0535023994743824,0.01836649514734745
18920077695725,1.499967336654663,-9.691728591918945,1.2856863737106323,0.004791259765625,-0.057228934019804,0.01836649514734745
18920078932950,1.4975731372833252,-9.709685325622559,1.334767460823059,-0.0039927163161337376,-0.0511067695915699,0.01357523538172245
18920080170187,1.5143325328826904,-9.744400978088379,1.3120225667953491,-0.0042588976211845875,-0.0545671246945858,0.01889885775744915
18920081407425,1.5155296325683594,-9.704896926879883,1.3084312677383423,-0.0018632676219567657,-0.0511067695915699,0.01836649514734745
18920082644675,1.4951789379119873,-9.759963035583496,1.315613865852356,-0.0029279920272529125,-0.0519053116440773,0.02262539230287075
18920083881900,1.4891934394836426,-9.746795654296875,1.3180080652236938,-0.0042588976211845875,-0.0535023994743824,0.0173017717897892
18920085119137,1.5239094495773315,-9.743204116821289,1.258152961730957,0.0007985432748682797,-0.0489773228764534,0.0196974016726017
18920086356362,1.460463047027588,-9.7420072555542,1.2808979749679565,0.0002661811013240367,-0.047646414488554,0.012776692397892475
18920087593612,1.499967336654663,-9.739612579345703,1.2844892740249634,0.0021294488105922937,-0.0519053116440773,0.012510511092841625
18920088830862,1.479616641998291,-9.71926212310791,1.3000515699386597,0.0010647244052961469,-0.0513729527592659,0.012776692397892475
18920090068087,1.5203181505203247,-9.728838920593262,1.2773066759109497,-0.0026618109550327063,-0.0473802350461483,0.014906140975654125
18920091305312,1.4844050407409668,-9.68813705444336,1.294066071510315,0.0005323622026480734,-0.0500420443713665,0.01357523538172245
18920092542575,1.4616601467132568,-9.694122314453125,1.3096283674240112,-0.0023956298828125,-0.0516391322016716,0.01357523538172245
18920093779812,1.5298949480056763,-9.720458984375,1.2797008752822876,-0.004791259765625,-0.0537685826420784,0.014373779296875
18920095017037,1.4628572463989258,-9.701305389404297,1.2856863737106323,0.0,-0.0543009415268898,0.0162370465695858
18920096254300,1.459265947341919,-9.701305389404297,1.2856863737106323,0.0015970865497365594,-0.0511067695915699,0.01783413253724575
18920097491525,1.4700398445129395,-9.702502250671387,1.259350061416626,-0.003460354171693325,-0.0460493303835392,0.0077192517928779125
18920098728750,1.479616641998291,-9.720458984375,1.2701239585876465,-0.005855984054505825,-0.0484449602663517,0.0090501569211483
18920099966012,1.5239094495773315,-9.739612579345703,1.291671872138977,-0.0015970865497365594,-0.0436537005007267,0.0138414166867733
18920101203237,1.533486247062683,-9.706093788146973,1.3012486696243286,-0.0005323622026480734,-0.0457831472158432,0.01224433071911335
18920102440475,1.5179238319396973,-9.724050521850586,1.313219666481018,-0.0005323622026480734,-0.0452507846057415,0.01357523538172245
18920103677712,1.5191209316253662,-9.6989107131958,1.3251906633377075,-0.0023956298828125,-0.0492435023188591,0.01889885775744915
18920104914950,1.5490485429763794,-9.727641105651855,1.2749123573303223,0.0007985432748682797,-0.0505744069814682,0.01597086526453495
18920106152212,1.4867992401123047,-9.680954933166504,1.2665326595306396,0.0037265352439135313,-0.0489773228764534,0.015438503585755825
18920107389412,1.5071499347686768,-9.706093788146973,1.2761094570159912,0.0021294488105922937,-0.0463155098259449,0.0167694091796875
18920108626675,1.502361536026001,-9.72285270690918,1.316810965538025,0.0002661811013240367,-0.0497758649289608,0.01357523538172245
18920109863912,1.5406688451766968,-9.733627319335938,1.2797008752822876,0.0029279920272529125,-0.0484449602663517,0.01703559048473835
18920111101125,1.5275007486343384,-9.694122314453125,1.2832921743392944,-0.0015970865497365594,-0.0471140518784523,0.0186326764523983
18920112338375,1.5263036489486694,-9.707290649414062,1.291671872138977,-0.0005323622026480734,-0.0444522425532341,0.01783413253724575
18920113575625,1.5442601442337036,-9.718064308166504,1.2773066759109497,-0.0021294488105922937,-0.0439198799431324,0.0162370465695858
18920114812862,1.502361536026001,-9.716867446899414,1.2844892740249634,-0.0010647244052961469,-0.0436537005007267,0.01650322787463665
18920116050112,1.5227123498916626,-9.68813705444336,1.291671872138977,0.0002661811013240367,-0.0393948033452034,0.02182685025036335
18920117287337,1.5071499347686768,-9.738415718078613,1.294066071510315,0.0013309054775163531,-0.0444522425532341,0.01943122036755085
18920118524587,1.5263036489486694,-9.702502250671387,1.2677297592163086,0.00452507846057415,-0.0484449602663517,0.01943122036755085
18920119761812,1.5275007486343384,-9.733627319335938,1.2988544702529907,0.0002661811013240367,-0.0471140518784523,0.02076212503015995
18920120999025,1.4903905391693115,-9.730035781860352,1.2713210582733154,-0.0013309054775163531,-0.0471140518784523,0.01783413253724575
18920122236287,1.4975731372833252,-9.733627319335938,1.2749123573303223,0.0013309054775163531,-0.0471140518784523,0.01889885775744915
18920123473525,1.4628572463989258,-9.746795654296875,1.2617442607879639,0.0026618109550327063,-0.0447184219956398,0.01783413253724575
18920124710775,1.50355863571167,-9.738415718078613,1.294066071510315,0.0015970865497365594,-0.0441860631108284,0.01889885775744915
18920125948012,1.4616601467132568,-9.71926212310791,1.292868971824646,0.0023956298828125,-0.0385962575674057,0.0173017717897892
18920127185237,1.482010841369629,-9.7420072555542,1.2832921743392944,0.00452507846057415,-0.0391286201775074,0.01756795309484005
18920128422475,1.48081374168396,-9.750386238098145,1.2868834733963013,0.0015970865497365594,-0.042855154722929,0.015438503585755825
18920129659712,1.4927847385406494,-9.77672290802002,1.2785037755966187,-0.0015970865497365594,-0.0433875173330307,0.01943122036755085
18920130896962,1.4832079410552979,-9.724050521850586,1.3024457693099976,0.0015970865497365594,-0.0367329902946949,0.0252872034907341
18920132134187,1.4963760375976562,-9.700108528137207,1.3012486696243286,0.0007985432748682797,-0.0393948033452034,0.0215606689453125
18920133371425,1.5263036489486694,-9.731232643127441,1.2653355598449707,-0.0021294488105922937,-0.0417904332280159,0.0167694091796875
18920134608662,1.5514427423477173,-9.738415718078613,1.3215993642807007,-0.0013309054775163531,-0.0455169677734375,0.02369011752307415
18920135845900,1.456871747970581,-9.737218856811523,1.256955862045288,-0.0018632676219567657,-0.0500420443713665,0.02661811001598835
18920137083137,1.479616641998291,-9.747992515563965,1.238999366760254,-0.0015970865497365594,-0.0503082275390625,0.02262539230287075
18920138320400,1.502361536026001,-9.733627319335938,1.2425906658172607,0.0,-0.043121337890625,0.01996358297765255
18920139557625,1.5131354331970215,-9.747992515563965,1.2856863737106323,-0.0007985432748682797,-0.0412580706179142,0.02076212503015995
18920140794862,1.4867992401123047,-9.756372451782227,1.2892776727676392,-0.0063883461989462376,-0.0393948033452034,0.0181003138422966
18920142032112,1.5251065492630005,-9.709685325622559,1.260547161102295,-0.0029279920272529125,-0.0409918874502182,0.01703559048473835
18920143269350,1.5215152502059937,-9.720458984375,1.2761094570159912,-0.0037265352439135313,-0.0399271659553051,0.0196974016726017
18920144506575,1.4987702369689941,-9.739612579345703,1.2797008752822876,-0.004791259765625,-0.0412580706179142,0.02076212503015995
18920145743812,1.5322891473770142,-9.738415718078613,1.2952631711959839,-0.0021294488105922937,-0.0465816929936409,0.0234239362180233
18920146981037,1.4879963397979736,-9.726444244384766,1.2797008752822876,0.003460354171693325,-0.0465816929936409,0.0234239362180233
18920148218287,1.4939818382263184,-9.739612579345703,1.2749123573303223,-0.0007985432748682797,-0.0391286201775074,0.0220930315554142
18920149455525,1.5095441341400146,-9.71926212310791,1.3048399686813354,-0.0021294488105922937,-0.0412580706179142,0.02182685025036335
18920150692762,1.5047557353973389,-9.759963035583496,1.2737152576446533,-0.008517795242369175,-0.0388624407351017,0.0223592109978199
18920151930025,1.4903905391693115,-9.737218856811523,1.2521674633026123,-0.010114881210029125,-0.0396609827876091,0.0210283063352108
18920153167250,1.4975731372833252,-9.725247383117676,1.2808979749679565,-0.005855984054505825,-0.0420566126704216,0.02182685025036335
18920154404500,1.478419542312622,-9.743204116821289,1.2413935661315918,-0.0021294488105922937,-0.0407257080078125,0.0263519287109375
18920155641725,1.45806884765625,-9.696516990661621,1.2665326595306396,-0.0029279920272529125,-0.0420566126704216,0.02502102218568325
18920156878975,1.4939818382263184,-9.737218856811523,1.259350061416626,-0.0071868896484375,-0.0441860631108284,0.0263519287109375
18920158116200,1.5179238319396973,-9.706093788146973,1.2677297592163086,-0.005057440605014563,-0.0455169677734375,0.0268842913210392
18920159353450,1.4844050407409668,-9.737218856811523,1.2258312702178955,-0.0071868896484375,-0.0417904332280159,0.0263519287109375
18920160590687,1.5083470344543457,-9.718064308166504,1.2521674633026123,-0.0042588976211845875,-0.0425889752805233,0.0268842913210392
18920161827925,1.4975731372833252,-9.724050521850586,1.2449848651885986,-0.0063883461989462376,-0.0433875173330307,0.0247548408806324
18920163065150,1.4927847385406494,-9.746795654296875,1.3072341680526733,-0.005855984054505825,-0.0377977155148983,0.0223592109978199
18920164302400,1.4616601467132568,-9.762357711791992,1.2677297592163086,-0.006122165359556675,-0.0391286201775074,0.0247548408806324
18920165539637,1.478419542312622,-9.743204116821289,1.2952631711959839,-0.0063883461989462376,-0.0407257080078125,0.02794901467859745
18920166776875,1.4652514457702637,-9.75278091430664,1.2892776727676392,-0.003460354171693325,-0.0412580706179142,0.0244886614382267
18920168014112,1.5107412338256836,-9.75517463684082,1.2761094570159912,-0.008783976547420025,-0.0420566126704216,0.02502102218568325
18920169251350,1.5263036489486694,-9.701305389404297,1.260547161102295,-0.00984870083630085,-0.0415242500603199,0.02422248013317585
18920170488587,1.4712369441986084,-9.731232643127441,1.315613865852356,-0.0066545275039970875,-0.0407257080078125,0.0258195661008358
18920171725837,1.5071499347686768,-9.71926212310791,1.2701239585876465,-0.0090501569211483,-0.0407257080078125,0.02369011752307415
18920172963075,1.5071499347686768,-9.708487510681152,1.3108254671096802,-0.00958251953125,-0.0362006276845932,0.0204959437251091
18920174200300,1.4987702369689941,-9.72285270690918,1.2868834733963013,-0.00958251953125,-0.0415242500603199,0.02369011752307415
18920175437562,1.5227123498916626,-9.720458984375,1.3012486696243286,-0.00958251953125,-0.0399271659553051,0.0210283063352108
18920176674800,1.502361536026001,-9.715670585632324,1.3024457693099976,-0.010913425125181675,-0.0404595248401165,0.0247548408806324
18920177912012,1.5071499347686768,-9.726444244384766,1.258152961730957,-0.008783976547420025,-0.0338049978017807,0.0295461006462574
18920179149262,1.5107412338256836,-9.732430458068848,1.260547161102295,-0.00958251953125,-0.0423227921128273,0.0210283063352108
18920180386500,1.5143325328826904,-9.710882186889648,1.313219666481018,-0.008517795242369175,-0.0452507846057415,0.01943122036755085
18920181623737,1.5179238319396973,-9.710882186889648,1.2964602708816528,-0.00958251953125,-0.0412580706179142,0.0210283063352108
18920182860987,1.4844050407409668,-9.72165584564209,1.2844892740249634,-0.010647243820130825,-0.0396609827876091,0.02369011752307415
18920184098212,1.5191209316253662,-9.702502250671387,1.2737152576446533,-0.010913425125181675,-0.0351359061896801,0.02901373989880085
18920185335462,1.5310920476913452,-9.708487510681152,1.2653355598449707,-0.008783976547420025,-0.0356682650744915,0.0204959437251091
18920186572687,1.5239094495773315,-9.725247383117676,1.2808979749679565,-0.008783976547420025,-0.043121337890625,0.0196974016726017
18920187809937,1.5298949480056763,-9.72165584564209,1.3120225667953491,-0.00958251953125,-0.0436537005007267,0.0234239362180233
18920189047175,1.4903905391693115,-9.725247383117676,1.2437877655029297,-0.004791259765625,-0.0388624407351017,0.0220930315554142
18920190284387,1.5131354331970215,-9.716867446899414,1.2976573705673218,-0.007453070487827063,-0.0364668108522892,0.0247548408806324
18920191521650,1.4927847385406494,-9.707290649414062,1.2952631711959839,-0.0090501569211483,-0.0423227921128273,0.0228915736079216
18920192758900,1.5047557353973389,-9.750386238098145,1.2749123573303223,-0.008251613937318325,-0.0484449602663517,0.02369011752307415
18920193996137,1.5741876363754272,-9.696516990661621,1.2725181579589844,-0.008251613937318325,-0.0447184219956398,0.0204959437251091
18920195233362,1.5239094495773315,-9.720458984375,1.2737152576446533,-0.007985432632267475,-0.0391286201775074,0.02262539230287075
18920196470612,1.5286978483200073,-9.714473724365234,1.2761094570159912,-0.0018632676219567657,-0.0460493303835392,0.02555338479578495
18920197707862,1.4939818382263184,-9.701305389404297,1.2629413604736328,-0.007453070487827063,-0.0455169677734375,0.0215606689453125
18920198945087,1.5167267322540283,-9.728838920593262,1.2497732639312744,-0.0077192517928779125,-0.0473802350461483,0.0223592109978199
18920200182325,1.5430630445480347,-9.732430458068848,1.256955862045288,-0.00931633822619915,-0.0444522425532341,0.02076212503015995
18920201419550,1.5239094495773315,-9.704896926879883,1.2868834733963013,-0.008251613937318325,-0.0415242500603199,0.0186326764523983
18920202656800,1.4975731372833252,-9.68574333190918,1.3012486696243286,-0.010913425125181675,-0.0444522425532341,0.01357523538172245
18920203894025,1.5179238319396973,-9.708487510681152,1.3539210557937622,-0.008517795242369175,-0.047646414488554,0.0220930315554142
18920205131275,1.5179238319396973,-9.672574996948242,1.3239935636520386,-0.005589802749454975,-0.0489773228764534,0.02608574740588665
18920206368525,1.5406688451766968,-9.68933391571045,1.2641384601593018,-0.003460354171693325,-0.0460493303835392,0.02022976242005825
18920207605750,1.4975731372833252,-9.692925453186035,1.2988544702529907,-0.0071868896484375,-0.0463155098259449,0.0167694091796875
18920208843000,1.5191209316253662,-9.684545516967773,1.2413935661315918,-0.00692070834338665,-0.0452507846057415,0.01756795309484005
18920210080237,1.5263036489486694,-9.701305389404297,1.2785037755966187,-0.007985432632267475,-0.042855154722929,0.0186326764523983
18920211317487,1.5478514432907104,-9.660603523254395,1.2808979749679565,-0.00984870083630085,-0.043121337890625,0.01836649514734745
18920212554725,1.479616641998291,-9.695320129394531,1.313219666481018,-0.00692070834338665,-0.0463155098259449,0.01756795309484005
18920213791962,1.502361536026001,-9.702502250671387,1.2773066759109497,-0.0066545275039970875,-0.0471140518784523,0.015438503585755825
18920215029187,1.5227123498916626,-9.694122314453125,1.2749123573303223,-0.0015970865497365594,-0.0447184219956398,0.01703559048473835
18920216266425,1.5155296325683594,-9.702502250671387,1.3036428689956665,-0.0026618109550327063,-0.0457831472158432,0.0191650390625
18920217503675,1.5394717454910278,-9.694122314453125,1.2832921743392944,-0.00958251953125,-0.0473802350461483,0.014373779296875
18920218740900,1.5502456426620483,-9.702502250671387,1.2270283699035645,-0.008783976547420025,-0.0481787770986557,0.015172322280704975
18920219978150,1.5251065492630005,-9.707290649414062,1.2533645629882812,-0.0029279920272529125,-0.0489773228764534,0.01357523538172245
18920221215387,1.5382746458053589,-9.641449928283691,1.2808979749679565,-0.00452507846057415,-0.0503082275390625,0.013309055007994175
18920222452637,1.5263036489486694,-9.623494148254395,1.3108254671096802,-0.0077192517928779125,-0.0473802350461483,0.00958251953125
18920223689862,1.5322891473770142,-9.657012939453125,1.3311761617660522,-0.005057440605014563,-0.0513729527592659,0.0162370465695858
18920224927112,1.5430630445480347,-9.680954933166504,1.2952631711959839,-0.00452507846057415,-0.052437674254179,0.01597086526453495
18920226164337,1.5418659448623657,-9.679757118225098,1.2509703636169434,-0.0066545275039970875,-0.0495096817612648,0.0114457868039608
18920227401587,1.5263036489486694,-9.683348655700684,1.3060370683670044,-0.0063883461989462376,-0.0508405901491642,0.00958251953125
18920228638812,1.5478514432907104,-9.672574996948242,1.2342109680175781,-0.0042588976211845875,-0.0492435023188591,0.0119781494140625
18920229876050,1.501164436340332,-9.697713851928711,1.2880805730819702,0.0018632676219567657,-0.052703857421875,0.012510511092841625
18920231113300,1.4963760375976562,-9.668983459472656,1.3108254671096802,-0.0013309054775163531,-0.0471140518784523,0.0090501569211483
18920232350562,1.5442601442337036,-9.66299819946289,1.2856863737106323,-0.0031941730994731188,-0.0473802350461483,0.00931633822619915
18920233587775,1.535880446434021,-9.642647743225098,1.2629413604736328,-0.0015970865497365594,-0.0535023994743824,0.00931633822619915
18920234825025,1.4975731372833252,-9.701305389404297,1.3096283674240112,-0.0007985432748682797,-0.0569627545773983,0.0186326764523983
18920236062250,1.5059528350830078,-9.668983459472656,1.2342109680175781,-0.0002661811013240367,-0.0489773228764534,0.01410759799182415
18920237299500,1.5418659448623657,-9.65222454071045,1.2749123573303223,-0.0007985432748682797,-0.0508405901491642,0.00931633822619915
18920238536750,1.5670050382614136,-9.68933391571045,1.2653355598449707,-0.0015970865497365594,-0.0484449602663517,0.0063883461989462376
18920239773975,1.534683346748352,-9.6989107131958,1.2437877655029297,0.0018632676219567657,-0.0503082275390625,0.0053236219100654125
18920241011212,1.5394717454910278,-9.678560256958008,1.313219666481018,0.0021294488105922937,-0.0550994873046875,0.0063883461989462376
18920242248462,1.479616641998291,-9.62828254699707,1.314416766166687,0.0031941730994731188,-0.0516391322016716,0.0026618109550327063
18920243485700,1.456871747970581,-9.690531730651855,1.294066071510315,0.0031941730994731188,-0.04791259765625,0.003460354171693325
18920244722937,1.502361536026001,-9.691728591918945,1.2832921743392944,0.0013309054775163531,-0.0492435023188591,0.0039927163161337376
18920245960162,1.5310920476913452,-9.6989107131958,1.2677297592163086,0.00692070834338665,-0.0519053116440773,0.0021294488105922937
18920247197425,1.5155296325683594,-9.732430458068848,1.2473790645599365,0.0053236219100654125,-0.0521714948117733,0.0026618109550327063
18920248434650,1.5538369417190552,-9.706093788146973,1.258152961730957,0.0037265352439135313,-0.0532362200319767,0.0053236219100654125
18920249671887,1.5382746458053589,-9.691728591918945,1.294066071510315,0.003460354171693325,-0.0457831472158432,0.0021294488105922937
18920250909112,1.4903905391693115,-9.713275909423828,1.2689268589019775,0.0042588976211845875,-0.0481787770986557,0.0037265352439135313
18920252146362,1.4700398445129395,-9.696516990661621,1.2689268589019775,0.003460354171693325,-0.0521714948117733,0.0031941730994731188
18920253383587,1.557428240776062,-9.702502250671387,1.2820950746536255,0.003460354171693325,-0.0500420443713665,0.0023956298828125
18920254620837,1.50355863571167,-9.720458984375,1.2653355598449707,0.0077192517928779125,-0.0500420443713665,0.0023956298828125
18920255858075,1.499967336654663,-9.712079048156738,1.291671872138977,0.008251613937318325,-0.0452507846057415,0.0023956298828125
18920257095312,1.5550340414047241,-9.670180320739746,1.2808979749679565,0.0053236219100654125,-0.052437674254179,-0.0026618109550327063
18920258332562,1.558625340461731,-9.707290649414062,1.3024457693099976,0.008783976547420025,-0.0537685826420784,0.0010647244052961469
18920259569787,1.5143325328826904,-9.654618263244629,1.2677297592163086,0.00692070834338665,-0.0535023994743824,-0.0010647244052961469
18920260807037,1.557428240776062,-9.738415718078613,1.2976573705673218,0.00931633822619915,-0.0535023994743824,-0.0007985432748682797
18920262044275,1.501164436340332,-9.715670585632324,1.258152961730957,0.007453070487827063,-0.0556318499147892,0.0005323622026480734
18920263281512,1.5538369417190552,-9.700108528137207,1.2749123573303223,0.0071868896484375,-0.0537685826420784,-0.0013309054775163531
18920264518737,1.5382746458053589,-9.732430458068848,1.2557587623596191,0.005057440605014563,-0.052703857421875,-0.0037265352439135313
18920265755987,1.5394717454910278,-9.696516990661621,1.2797008752822876,0.006122165359556675,-0.0577612966299057,-0.0005323622026480734
18920266993212,1.535880446434021,-9.695320129394531,1.2677297592163086,0.0077192517928779125,-0.0556318499147892,-0.0010647244052961469
18920268230462,1.5251065492630005,-9.706093788146973,1.3239935636520386,0.00931633822619915,-0.0543009415268898,-0.0010647244052961469
18920269467712,1.5227123498916626,-9.684545516967773,1.294066071510315,0.00984870083630085,-0.0638834610581398,-0.0018632676219567657
18920270704937,1.5119383335113525,-9.714473724365234,1.2976573705673218,0.00984870083630085,-0.0598907470703125,-0.0005323622026480734
18920271942187,1.5382746458053589,-9.706093788146973,1.3036428689956665,0.010913425125181675,-0.0548333041369915,0.0
18920273179425,1.5239094495773315,-9.676166534423828,1.2844892740249634,0.010381062515079975,-0.052703857421875,-0.005589802749454975
18920274416662,1.502361536026001,-9.72165584564209,1.291671872138977,0.00984870083630085,-0.0556318499147892,-0.0037265352439135313
18920275653887,1.4963760375976562,-9.734824180603027,1.2820950746536255,0.008251613937318325,-0.0577612966299057,-0.003460354171693325
18920276891137,1.5622166395187378,-9.684545516967773,1.2808979749679565,0.008517795242369175,-0.0543009415268898,-0.0005323622026480734
18920278128387,1.479616641998291,-9.697713851928711,1.3072341680526733,0.0119781494140625,-0.0558980293571949,-0.0005323622026480734
18920279365637,1.5478514432907104,-9.707290649414062,1.2820950746536255,0.010913425125181675,-0.0540347620844841,-0.00452507846057415
18920280602875,1.5059528350830078,-9.66299819946289,1.3096283674240112,0.013309055007994175,-0.052703857421875,-0.0026618109550327063
18920281840100,1.5430630445480347,-9.704896926879883,1.3108254671096802,0.012776692397892475,-0.057228934019804,-0.0031941730994731188
18920283077337,1.5167267322540283,-9.696516990661621,1.2785037755966187,0.01224433071911335,-0.0564303919672966,-0.005855984054505825
18920284314575,1.5071499347686768,-9.701305389404297,1.2808979749679565,0.0119781494140625,-0.0543009415268898,-0.00452507846057415
18920285551812,1.5670050382614136,-9.692925453186035,1.291671872138977,0.012510511092841625,-0.0558980293571949,-0.004791259765625
18920286789062,1.5598224401474,-9.68933391571045,1.2653355598449707,0.012510511092841625,-0.0558980293571949,-0.0015970865497365594
18920288026287,1.5167267322540283,-9.657012939453125,1.292868971824646,0.01117960549890995,-0.0516391322016716,-0.0031941730994731188
18920289263537,1.5634137392044067,-9.677363395690918,1.2832921743392944,0.014906140975654125,-0.0532362200319767,-0.0026618109550327063
18920290500787,1.5227123498916626,-9.671378135681152,1.3323732614517212,0.010381062515079975,-0.0535023994743824,-0.007453070487827063
18920291738000,1.5251065492630005,-9.725247383117676,1.3108254671096802,0.010114881210029125,-0.0550994873046875,-0.004791259765625
18920292975250,1.5550340414047241,-9.701305389404297,1.3024457693099976,0.010381062515079975,-0.0548333041369915,-0.0053236219100654125
18920294212500,1.5071499347686768,-9.671378135681152,1.2820950746536255,0.01650322787463665,-0.0553656667470932,-0.0015970865497365594
18920295449750,1.5418659448623657,-9.678560256958008,1.258152961730957,0.01410759799182415,-0.0545671246945858,-0.0039927163161337376
18920296686962,1.499967336654663,-9.670180320739746,1.337161660194397,0.0114457868039608,-0.0537685826420784,-0.0026618109550327063
18920297924200,1.4939818382263184,-9.709685325622559,1.2880805730819702,0.015438503585755825,-0.0590922012925148,0.0005323622026480734
18920299161462,1.4987702369689941,-9.68574333190918,1.2701239585876465,0.0114457868039608,-0.0561642125248909,-0.0071868896484375
18920300398687,1.482010841369629,-9.68933391571045,1.2808979749679565,0.01171196810901165,-0.0513729527592659,-0.010114881210029125
18920301635925,1.5179238319396973,-9.670180320739746,1.2952631711959839,0.014373779296875,-0.0540347620844841,-0.0066545275039970875
18920302873150,1.5298949480056763,-9.691728591918945,1.2844892740249634,0.0157046839594841,-0.0574951171875,-0.007453070487827063
18920304110387,1.5717934370040894,-9.702502250671387,1.2545616626739502,0.0181003138422966,-0.0564303919672966,-0.003460354171693325
18920305347637,1.5215152502059937,-9.725247383117676,1.2785037755966187,0.010913425125181675,-0.0569627545773983,-0.00452507846057415
18920306584875,1.5526398420333862,-9.707290649414062,1.2976573705673218,0.01597086526453495,-0.0532362200319767,-0.005855984054505825
18920307822125,1.4951789379119873,-9.737218856811523,1.290474772453308,0.014373779296875,-0.0540347620844841,-0.00452507846057415
18920309059350,1.5286978483200073,-9.692925453186035,1.2701239585876465,0.0157046839594841,-0.0497758649289608,-0.0066545275039970875
18920310296600,1.5263036489486694,-9.72165584564209,1.2773066759109497,0.01703559048473835,-0.0545671246945858,-0.007453070487827063
18920311533850,1.5167267322540283,-9.71926212310791,1.2773066759109497,0.02182685025036335,-0.0545671246945858,-0.008517795242369175
18920312771075,1.534683346748352,-9.678560256958008,1.3048399686813354,0.0162370465695858,-0.0519053116440773,-0.008783976547420025
18920314008312,1.5526398420333862,-9.700108528137207,1.3012486696243286,0.0138414166867733,-0.0529700368642807,-0.008517795242369175
18920315245550,1.5634137392044067,-9.694122314453125,1.3048399686813354,0.015438503585755825,-0.0503082275390625,-0.010381062515079975
18920316482800,1.5514427423477173,-9.712079048156738,1.2988544702529907,0.0119781494140625,-0.0516391322016716,-0.00984870083630085
18920317720037,1.5693992376327515,-9.716867446899414,1.3024457693099976,0.0181003138422966,-0.0543009415268898,-0.0039927163161337376
18920318957275,1.5682021379470825,-9.734824180603027,1.316810965538025,0.01410759799182415,-0.0516391322016716,-0.0063883461989462376
18920320194512,1.5275007486343384,-9.724050521850586,1.314416766166687,0.0196974016726017,-0.0511067695915699,-0.0077192517928779125
18920321431762,1.533486247062683,-9.684545516967773,1.2856863737106323,0.0244886614382267,-0.0495096817612648,-0.008251613937318325
18920322669000,1.5454572439193726,-9.716867446899414,1.3299790620803833,0.0191650390625,-0.0481787770986557,-0.01117960549890995
18920323906212,1.5155296325683594,-9.701305389404297,1.291671872138977,0.01703559048473835,-0.0492435023188591,-0.0114457868039608
18920325143450,1.5298949480056763,-9.700108528137207,1.291671872138977,0.01703559048473835,-0.0457831472158432,-0.0119781494140625
18920326380700,1.5263036489486694,-9.694122314453125,1.3060370683670044,0.01463996060192585,-0.052437674254179,-0.00984870083630085
18920327617950,1.5275007486343384,-9.734824180603027,1.2617442607879639,0.01463996060192585,-0.0540347620844841,-0.01463996060192585
18920328855187,1.5406688451766968,-9.712079048156738,1.3012486696243286,0.01943122036755085,-0.0492435023188591,-0.014373779296875
18920330092425,1.5550340414047241,-9.713275909423828,1.3072341680526733,0.02022976242005825,-0.0489773228764534,-0.005855984054505825
18920331329662,1.5251065492630005,-9.691728591918945,1.292868971824646,0.0162370465695858,-0.0471140518784523,-0.01224433071911335
18920332566887,1.5598224401474,-9.667786598205566,1.2653355598449707,0.01224433071911335,-0.0495096817612648,-0.012776692397892475
18920333804137,1.4987702369689941,-9.716867446899414,1.3180080652236938,0.02315775491297245,-0.0593583844602108,-0.01117960549890995
18920335041400,1.5215152502059937,-9.68574333190918,1.315613865852356,0.02022976242005825,-0.0505744069814682,-0.010647243820130825
18920336278612,1.5538369417190552,-9.716867446899414,1.2629413604736328,0.014373779296875,-0.0511067695915699,-0.00984870083630085
18920337515862,1.5322891473770142,-9.6989107131958,1.2868834733963013,0.0223592109978199,-0.0503082275390625,-0.0042588976211845875
18920338753087,1.5227123498916626,-9.640253067016602,1.2952631711959839,0.0223592109978199,-0.0487111397087574,-0.012510511092841625
18920339990337,1.5705963373184204,-9.72165584564209,1.2892776727676392,0.02076212503015995,-0.0497758649289608,-0.012776692397892475
18920341227562,1.558625340461731,-9.68694019317627,1.2713210582733154,0.0167694091796875,-0.0484449602663517,-0.015438503585755825
18920342464800,1.5095441341400146,-9.68574333190918,1.2988544702529907,0.0173017717897892,-0.04791259765625,-0.01597086526453495
18920343702062,1.5717934370040894,-9.695320129394531,1.2964602708816528,0.0181003138422966,-0.0465816929936409,-0.0114457868039608
18920344939300,1.5466543436050415,-9.697713851928711,1.2892776727676392,0.0204959437251091,-0.0473802350461483,-0.012776692397892475
18920346176537,1.5682021379470825,-9.68574333190918,1.3048399686813354,0.0181003138422966,-0.0519053116440773,-0.00931633822619915
18920347413762,1.5430630445480347,-9.72285270690918,1.3180080652236938,0.01943122036755085,-0.0513729527592659,-0.007985432632267475
18920348651012,1.5502456426620483,-9.704896926879883,1.3036428689956665,0.01783413253724575,-0.0516391322016716,-0.00692070834338665
18920349888275,1.5286978483200073,-9.736021041870117,1.3048399686813354,0.01943122036755085,-0.0460493303835392,-0.00984870083630085
18920351125475,1.5885528326034546,-9.709685325622559,1.3395558595657349,0.01943122036755085,-0.0444522425532341,-0.010913425125181675
18920352362737,1.5526398420333862,-9.684545516967773,1.313219666481018,0.0204959437251091,-0.0513729527592659,-0.010114881210029125
18920353599975,1.5538369417190552,-9.703699111938477,1.3060370683670044,0.0167694091796875,-0.0487111397087574,-0.00958251953125
18920354837200,1.5239094495773315,-9.694122314453125,1.3275848627090454,0.023956298828125,-0.0487111397087574,-0.010647243820130825
18920356074437,1.6053122282028198,-9.68813705444336,1.2976573705673218,0.02262539230287075,-0.0503082275390625,-0.004791259765625
18920357311675,1.556231141090393,-9.712079048156738,1.2976573705673218,0.0186326764523983,-0.043121337890625,-0.007985432632267475
18920358548925,1.557428240776062,-9.696516990661621,1.3084312677383423,0.0186326764523983,-0.0460493303835392,-0.01117960549890995
18920359786162,1.5394717454910278,-9.682151794433594,1.3551181554794312,0.02022976242005825,-0.04791259765625,-0.010114881210029125
18920361023387,1.5143325328826904,-9.708487510681152,1.3275848627090454,0.0196974016726017,-0.0471140518784523,-0.0090501569211483
18920362260625,1.5646108388900757,-9.68574333190918,1.3479355573654175,0.0157046839594841,-0.0415242500603199,-0.008783976547420025
18920363497887,1.5682021379470825,-9.701305389404297,1.314416766166687,0.0173017717897892,-0.0436537005007267,-0.00692070834338665
18920364735112,1.580173134803772,-9.691728591918945,1.3443442583084106,0.01943122036755085,-0.0500420443713665,-0.008251613937318325
18920365972362,1.5418659448623657,-9.727641105651855,1.3227964639663696,0.02129448764026165,-0.0484449602663517,-0.0026618109550327063
18920367209612,1.5729905366897583,-9.72285270690918,1.335964560508728,0.02369011752307415,-0.0465816929936409,-0.00692070834338665
18920368446850,1.5394717454910278,-9.671378135681152,1.2545616626739502,0.015438503585755825,-0.0497758649289608,-0.0066545275039970875
18920369684075,1.5442601442337036,-9.682151794433594,1.3120225667953491,0.0210283063352108,-0.0460493303835392,-0.0053236219100654125
18920370921325,1.5741876363754272,-9.696516990661621,1.3323732614517212,0.02076212503015995,-0.0436537005007267,-0.008251613937318325
18920372158562,1.533486247062683,-9.710882186889648,1.3491326570510864,0.01889885775744915,-0.0399271659553051,-0.007985432632267475
18920373395775,1.5753847360610962,-9.696516990661621,1.3227964639663696,0.0210283063352108,-0.0436537005007267,-0.0037265352439135313
18920374633025,1.5466543436050415,-9.695320129394531,1.3551181554794312,0.02262539230287075,-0.0449846051633358,-0.003460354171693325
18920375870275,1.5610195398330688,-9.676166534423828,1.2988544702529907,0.0215606689453125,-0.0439198799431324,-0.007985432632267475
18920377107500,1.5682021379470825,-9.694122314453125,1.2988544702529907,0.0223592109978199,-0.0447184219956398,-0.004791259765625
18920378344762,1.5406688451766968,-9.691728591918945,1.3072341680526733,0.02422248013317585,-0.0417904332280159,-0.0053236219100654125
18920379582000,1.5693992376327515,-9.6618013381958,1.290474772453308,0.0220930315554142,-0.0362006276845932,-0.00452507846057415
18920380819212,1.5693992376327515,-9.654618263244629,1.3060370683670044,0.02262539230287075,-0.0354020856320858,-0.004791259765625
18920382056462,1.5634137392044067,-9.660603523254395,1.2701239585876465,0.02182685025036335,-0.0404595248401165,-0.004791259765625
18920383293712,1.5251065492630005,-9.702502250671387,1.2976573705673218,0.02262539230287075,-0.042855154722929,-0.005855984054505825
18920384530937,1.5490485429763794,-9.668983459472656,1.3192051649093628,0.0223592109978199,-0.0447184219956398,-0.0077192517928779125
18920385768175,1.5981296300888062,-9.694122314453125,1.2820950746536255,0.02182685025036335,-0.0463155098259449,-0.0042588976211845875
18920387005400,1.5658079385757446,-9.713275909423828,1.3060370683670044,0.0210283063352108,-0.0367329902946949,-0.0013309054775163531
18920388242650,1.5705963373184204,-9.709685325622559,1.260547161102295,0.01996358297765255,-0.0372653529047966,-0.004791259765625
18920389479912,1.5406688451766968,-9.694122314453125,1.3084312677383423,0.0228915736079216,-0.0420566126704216,-0.0010647244052961469
18920390717150,1.5705963373184204,-9.691728591918945,1.3407529592514038,0.02262539230287075,-0.0399271659553051,0.0037265352439135313
18920391954387,1.5670050382614136,-9.71926212310791,1.3275848627090454,0.02182685025036335,-0.0372653529047966,0.0
18920393191600,1.5502456426620483,-9.737218856811523,1.3084312677383423,0.02022976242005825,-0.0375315360724926,-0.006122165359556675
18920394428887,1.5502456426620483,-9.692925453186035,1.2964602708816528,0.01996358297765255,-0.0407257080078125,0.0013309054775163531
18920395666112,1.599326729774475,-9.756372451782227,1.2725181579589844,0.0181003138422966,-0.0372653529047966,0.0018632676219567657
18920396903350,1.601720929145813,-9.745597839355469,1.316810965538025,0.0215606689453125,-0.0367329902946949,-0.0005323622026480734
18920398140587,1.5598224401474,-9.740809440612793,1.314416766166687,0.02262539230287075,-0.0369991734623909,0.0013309054775163531
18920399377800,1.5538369417190552,-9.730035781860352,1.3036428689956665,0.02076212503015995,-0.0356682650744915,0.005589802749454975
18920400615062,1.5502456426620483,-9.72285270690918,1.2832921743392944,0.0196974016726017,-0.0404595248401165,0.0010647244052961469
18920401852312,1.5670050382614136,-9.695320129394531,1.3335703611373901,0.0196974016726017,-0.0393948033452034,-0.004791259765625
18920403089537,1.5658079385757446,-9.75517463684082,1.3251906633377075,0.02022976242005825,-0.038330078125,0.0005323622026480734
18920404326787,1.5873557329177856,-9.733627319335938,1.291671872138977,0.0215606689453125,-0.0391286201775074,0.0039927163161337376
18920405564000,1.577778935432434,-9.740809440612793,1.3036428689956665,0.0210283063352108,-0.033272635191679,0.005057440605014563
18920406801237,1.5538369417190552,-9.714473724365234,1.3287819623947144,0.01836649514734745,-0.0375315360724926,0.0018632676219567657
18920408038487,1.5717934370040894,-9.736021041870117,1.3431471586227417,0.01889885775744915,-0.0388624407351017,0.0026618109550327063
18920409275725,1.5693992376327515,-9.707290649414062,1.3467384576797485,0.0162370465695858,-0.0351359061896801,0.0013309054775163531
18920410512987,1.534683346748352,-9.725247383117676,1.3180080652236938,0.0186326764523983,-0.0369991734623909,0.0026618109550327063
18920411750200,1.533486247062683,-9.747992515563965,1.3215993642807007,0.01703559048473835,-0.033272635191679,-0.0005323622026480734
18920412987437,1.5478514432907104,-9.738415718078613,1.2797008752822876,0.012776692397892475,-0.0348697230219841,0.00452507846057415
18920414224700,1.5957354307174683,-9.728838920593262,1.3491326570510864,0.0210283063352108,-0.0367329902946949,0.004791259765625
18920415461925,1.581370234489441,-9.715670585632324,1.337161660194397,0.01943122036755085,-0.0356682650744915,0.0042588976211845875
18920416699162,1.556231141090393,-9.708487510681152,1.2952631711959839,0.0157046839594841,-0.0343373604118824,0.0042588976211845875
18920417936400,1.5729905366897583,-9.731232643127441,1.3108254671096802,0.015172322280704975,-0.0338049978017807,0.0066545275039970875
18920419173637,1.5705963373184204,-9.740809440612793,1.3120225667953491,0.01703559048473835,-0.0359344482421875,0.008783976547420025
18920420410887,1.581370234489441,-9.706093788146973,1.334767460823059,0.01836649514734745,-0.0346035435795784,0.003460354171693325
18920421648125,1.5873557329177856,-9.7420072555542,1.3204022645950317,0.01410759799182415,-0.0356682650744915,0.0002661811013240367
18920422885362,1.5933412313461304,-9.728838920593262,1.358709454536438,0.0181003138422966,-0.0351359061896801,0.004791259765625
18920424122600,1.5670050382614136,-9.725247383117676,1.3120225667953491,0.0204959437251091,-0.0346035435795784,0.007985432632267475
18920425359850,1.5598224401474,-9.720458984375,1.3311761617660522,0.01410759799182415,-0.0316755510866642,0.0053236219100654125
18920426597087,1.577778935432434,-9.758766174316406,1.3395558595657349,0.014373779296875,-0.0362006276845932,0.0119781494140625
18920427834337,1.5861586332321167,-9.676166534423828,1.316810965538025,0.0186326764523983,-0.0356682650744915,0.0071868896484375
18920429071550,1.5490485429763794,-9.72285270690918,1.3215993642807007,0.0114457868039608,-0.02901373989880085,0.003460354171693325
18920430308787,1.5167267322540283,-9.712079048156738,1.3180080652236938,0.01597086526453495,-0.02848137728869915,0.00984870083630085
18920431546025,1.556231141090393,-9.732430458068848,1.3192051649093628,0.01783413253724575,-0.033538818359375,0.01357523538172245
18920432783287,1.557428240776062,-9.716867446899414,1.3251906633377075,0.01357523538172245,-0.033272635191679,0.00984870083630085
18920434020525,1.556231141090393,-9.672574996948242,1.2725181579589844,0.0119781494140625,-0.0391286201775074,0.00692070834338665
18920435257762,1.557428240776062,-9.713275909423828,1.3108254671096802,0.013042873702943325,-0.0359344482421875,0.00958251953125
18920436494987,1.5969325304031372,-9.677363395690918,1.3263877630233765,0.0162370465695858,-0.0362006276845932,0.0063883461989462376
18920437732237,1.5873557329177856,-9.673771858215332,1.3204022645950317,0.01597086526453495,-0.0364668108522892,0.00452507846057415
18920438969475,1.6196774244308472,-9.66299819946289,1.3623007535934448,0.01597086526453495,-0.0311431884765625,0.00452507846057415
18920440206737,1.53707754611969,-9.678560256958008,1.3910311460494995,0.0181003138422966,-0.0322079136967659,0.010381062515079975
18920441443950,1.5442601442337036,-9.649829864501953,1.3096283674240112,0.01357523538172245,-0.02848137728869915,0.005589802749454975
18920442681187,1.5634137392044067,-9.66419506072998,1.3084312677383423,0.013042873702943325,-0.03087700717151165,0.007453070487827063
18920443918437,1.5717934370040894,-9.655815124511719,1.2449848651885986,0.013042873702943325,-0.0324740931391716,0.00931633822619915
18920445155662,1.5837644338607788,-9.66539192199707,1.3204022645950317,0.01756795309484005,-0.0343373604118824,0.010381062515079975
18920446392912,1.5861586332321167,-9.640253067016602,1.3503297567367554,0.0191650390625,-0.033272635191679,0.010381062515079975
18920447630162,1.5957354307174683,-9.66539192199707,1.3335703611373901,0.01703559048473835,-0.0346035435795784,0.00931633822619915
18920448867400,1.578976035118103,-9.697713851928711,1.3311761617660522,0.01836649514734745,-0.0322079136967659,0.01224433071911335
18920450104625,1.6136919260025024,-9.684545516967773,1.3335703611373901,0.02076212503015995,-0.0268842913210392,0.0138414166867733
18920451341875,1.5753847360610962,-9.660603523254395,1.3335703611373901,0.0181003138422966,-0.0319417305290699,0.013309055007994175
18920452579125,1.5717934370040894,-9.682151794433594,1.3239935636520386,0.02129448764026165,-0.0314093679189682,0.01224433071911335
