timestamp_ns,accel_x,accel_y,accel_z,gyro_x,gyro_y,gyro_z
2865340610725,1.3838485479354858,-9.66539192199707,1.9081788063049316,0.0039927163161337376,-0.006122165359556675,0.005589802749454975
2865341848012,1.3515268564224243,-9.615114212036133,1.9117701053619385,0.0063883461989462376,-0.0039927163161337376,0.00958251953125
2865343085337,1.3946224451065063,-9.619902610778809,1.9488801956176758,0.0023956298828125,-0.0029279920272529125,0.007985432632267475
2865344322625,1.3623007535934448,-9.622296333312988,1.946485996246338,-0.0007985432748682797,-0.00931633822619915,0.0053236219100654125
2865345559925,1.380257248878479,-9.666589736938477,1.9632453918457031,-0.0015970865497365594,-0.00931633822619915,0.008517795242369175
2865346797250,1.3946224451065063,-9.646238327026367,1.9907786846160889,0.0005323622026480734,-0.0071868896484375,0.008783976547420025
2865348034562,1.3634978532791138,-9.641449928283691,1.98958158493042,0.0029279920272529125,-0.012510511092841625,0.010913425125181675
2865349271862,1.3922282457351685,-9.671378135681152,1.9476830959320068,-0.006122165359556675,-0.0114457868039608,0.0066545275039970875
2865350509175,1.3694833517074585,-9.641449928283691,1.9919757843017578,-0.00452507846057415,-0.008251613937318325,0.0090501569211483
2865351746500,1.337161660194397,-9.667786598205566,1.9692308902740479,0.003460354171693325,-0.01117960549890995,0.014906140975654125
2865352983812,1.3778630495071411,-9.6618013381958,1.9596540927886963,-0.0005323622026480734,-0.008783976547420025,0.01703559048473835
2865354221112,1.3227964639663696,-9.643844604492188,1.964442491531372,-0.0026618109550327063,-0.0063883461989462376,0.015438503585755825
2865355458400,1.3838485479354858,-9.634267807006836,1.9943699836730957,-0.0013309054775163531,-0.01224433071911335,0.015438503585755825
2865356695712,1.3730746507644653,-9.637859344482422,1.946485996246338,0.0031941730994731188,-0.01463996060192585,0.01996358297765255
2865357933025,1.3467384576797485,-9.673771858215332,1.9752163887023926,0.0021294488105922937,-0.01836649514734745,0.01889885775744915
2865359170325,1.3491326570510864,-9.635464668273926,1.9991583824157715,-0.0029279920272529125,-0.01597086526453495,0.02369011752307415
2865360407650,1.4101848602294922,-9.610325813293457,1.9835960865020752,0.0013309054775163531,-0.012776692397892475,0.0244886614382267
2865361644950,1.3527239561080933,-9.677363395690918,1.987187385559082,0.0023956298828125,-0.012776692397892475,0.0204959437251091
2865362882250,1.3108254671096802,-9.600749015808105,1.9357120990753174,-0.0015970865497365594,-0.015172322280704975,0.0191650390625
2865364119575,1.3060370683670044,-9.645041465759277,1.96683669090271,-0.0010647244052961469,-0.01756795309484005,0.0223592109978199
2865365356875,1.3539210557937622,-9.653421401977539,1.9740192890167236,-0.0021294488105922937,-0.008251613937318325,0.0247548408806324
2865366594175,1.3287819623947144,-9.623494148254395,1.9740192890167236,-0.003460354171693325,-0.00958251953125,0.01943122036755085
2865367831487,1.3515268564224243,-9.667786598205566,1.944091796875,0.0,-0.013309055007994175,0.02076212503015995
2865369068800,1.3682862520217896,-9.635464668273926,1.964442491531372,0.0010647244052961469,-0.01650322787463665,0.02741665206849575
2865370306112,1.3299790620803833,-9.646238327026367,1.9800047874450684,-0.004791259765625,-0.015172322280704975,0.0263519287109375
2865371543425,1.335964560508728,-9.653421401977539,1.9596540927886963,-0.003460354171693325,-0.015438503585755825,0.0258195661008358
2865372780725,1.3491326570510864,-9.622296333312988,1.9740192890167236,-0.004791259765625,-0.01889885775744915,0.02262539230287075
2865374018037,1.3012486696243286,-9.63187313079834,1.9596540927886963,-0.0015970865497365594,-0.0157046839594841,0.0263519287109375
2865375255375,1.3299790620803833,-9.641449928283691,1.9991583824157715,-0.0015970865497365594,-0.01171196810901165,0.02848137728869915
2865376492675,1.3192051649093628,-9.627084732055664,1.9369091987609863,-0.00452507846057415,-0.012510511092841625,0.02129448764026165
2865377729962,1.2988544702529907,-9.63067626953125,1.9823989868164062,-0.0007985432748682797,-0.0162370465695858,0.01943122036755085
2865378967275,1.3467384576797485,-9.648633003234863,1.98958158493042,-0.0029279920272529125,-0.013309055007994175,0.0247548408806324
2865380204587,1.3694833517074585,-9.659406661987305,1.9081788063049316,-0.006122165359556675,-0.01357523538172245,0.02182685025036335
2865381441887,1.3299790620803833,-9.639056205749512,1.923741102218628,-0.008251613937318325,-0.013309055007994175,0.02129448764026165
2865382679200,1.3227964639663696,-9.634267807006836,1.965639591217041,-0.0026618109550327063,-0.015172322280704975,0.0247548408806324
2865383916512,1.314416766166687,-9.658209800720215,2.008735179901123,-0.0031941730994731188,-0.0167694091796875,0.02555338479578495
2865385153800,1.292868971824646,-9.649829864501953,1.9369091987609863,0.0005323622026480734,-0.015438503585755825,0.0244886614382267
2865386391125,1.2844892740249634,-9.603142738342285,1.9261353015899658,-0.003460354171693325,-0.010114881210029125,0.02555338479578495
2865387628425,1.334767460823059,-9.605537414550781,1.9764134883880615,-0.0026618109550327063,-0.01650322787463665,0.0247548408806324
2865388865750,1.2988544702529907,-9.603142738342285,1.9907786846160889,-0.007985432632267475,-0.01650322787463665,0.02608574740588665
2865390103037,1.3000515699386597,-9.59715747833252,1.9309237003326416,-0.01171196810901165,-0.010647243820130825,0.03087700717151165
2865391340350,1.292868971824646,-9.578003883361816,1.9369091987609863,-0.0077192517928779125,-0.01463996060192585,0.0316755510866642
2865392577675,1.3275848627090454,-9.586383819580078,1.9800047874450684,-0.005855984054505825,-0.0167694091796875,0.02369011752307415
2865393814975,1.2988544702529907,-9.585186958312988,1.9716250896453857,-0.007453070487827063,-0.0167694091796875,0.02022976242005825
2865395052287,1.334767460823059,-9.647436141967773,1.9788076877593994,-0.005589802749454975,-0.01836649514734745,0.0268842913210392
2865396289587,1.3443442583084106,-9.648633003234863,1.922544002532959,-0.005855984054505825,-0.015172322280704975,0.0276828333735466
2865397526887,1.2820950746536255,-9.593565940856934,2.0254945755004883,-0.0015970865497365594,-0.0119781494140625,0.02422248013317585
2865398764187,1.313219666481018,-9.635464668273926,1.9955670833587646,-0.005855984054505825,-0.01463996060192585,0.0191650390625
2865400001512,1.3299790620803833,-9.655815124511719,1.945288896560669,-0.0042588976211845875,-0.01410759799182415,0.02422248013317585
2865401238812,1.3239935636520386,-9.581595420837402,1.9309237003326416,-0.0053236219100654125,-0.013309055007994175,0.02502102218568325
2865402476125,1.2773066759109497,-9.649829864501953,1.9393033981323242,-0.0071868896484375,-0.010647243820130825,0.0228915736079216
2865403713437,1.2832921743392944,-9.612719535827637,1.9788076877593994,-0.005589802749454975,-0.013042873702943325,0.0223592109978199
2865404950737,1.3180080652236938,-9.619902610778809,1.9596540927886963,-0.0042588976211845875,-0.013042873702943325,0.02076212503015995
2865406188037,1.3192051649093628,-9.642647743225098,1.9476830959320068,-0.006122165359556675,-0.01117960549890995,0.0228915736079216
2865407425362,1.3215993642807007,-9.624691009521484,1.9548656940460205,-0.0071868896484375,-0.01410759799182415,0.0252872034907341
2865408662675,1.2521674633026123,-9.625887870788574,1.941697597503662,-0.0042588976211845875,-0.01463996060192585,0.0228915736079216
2865409899975,1.3251906633377075,-9.63067626953125,2.0195090770721436,0.0013309054775163531,-0.0119781494140625,0.02502102218568325
2865411137287,1.314416766166687,-9.646238327026367,2.005143880844116,-0.0023956298828125,-0.01463996060192585,0.02422248013317585
2865412374587,1.2892776727676392,-9.59835433959961,1.946485996246338,-0.006122165359556675,-0.0090501569211483,0.02262539230287075
2865413611925,1.2737152576446533,-9.599552154541016,1.9333178997039795,-0.005057440605014563,-0.003460354171693325,0.0228915736079216
2865414849212,1.3024457693099976,-9.647436141967773,1.9692308902740479,-0.0021294488105922937,-0.013309055007994175,0.0258195661008358
2865416086500,1.3192051649093628,-9.623494148254395,1.9596540927886963,-0.0053236219100654125,-0.012776692397892475,0.02741665206849575
2865417323825,1.313219666481018,-9.612719535827637,1.968033790588379,-0.005589802749454975,-0.0063883461989462376,0.02182685025036335
2865418561125,1.3096283674240112,-9.641449928283691,1.9548656940460205,-0.0063883461989462376,-0.01171196810901165,0.02262539230287075
2865419798450,1.3024457693099976,-9.636661529541016,1.9632453918457031,-0.0042588976211845875,-0.01224433071911335,0.0234239362180233
2865421035762,1.2988544702529907,-9.616311073303223,1.9907786846160889,-0.007985432632267475,-0.010114881210029125,0.0204959437251091
2865422273062,1.3227964639663696,-9.607931137084961,1.899799108505249,-0.008517795242369175,-0.013042873702943325,0.0181003138422966
2865423510362,1.2988544702529907,-9.625887870788574,1.9488801956176758,-0.0037265352439135313,-0.0071868896484375,0.02129448764026165
2865424747675,1.2677297592163086,-9.591172218322754,1.9704279899597168,-0.0071868896484375,-0.0037265352439135313,0.015172322280704975
2865425984987,1.256955862045288,-9.627084732055664,1.9752163887023926,-0.005057440605014563,-0.007985432632267475,0.015438503585755825
2865427222287,1.2689268589019775,-9.625887870788574,1.9357120990753174,-0.0042588976211845875,-0.0119781494140625,0.023956298828125
2865428459612,1.3192051649093628,-9.618705749511719,1.9967641830444336,-0.007985432632267475,-0.00931633822619915,0.02022976242005825
2865429696912,1.2725181579589844,-9.579200744628906,1.9620482921600342,-0.0010647244052961469,-0.010913425125181675,0.01996358297765255
2865430934225,1.294066071510315,-9.63067626953125,1.9512743949890137,0.0023956298828125,-0.013042873702943325,0.02555338479578495
2865432171525,1.2808979749679565,-9.65222454071045,1.98958158493042,-0.0031941730994731188,-0.0053236219100654125,0.0220930315554142
2865433408812,1.2964602708816528,-9.633070945739746,1.988384485244751,-0.0039927163161337376,-0.0053236219100654125,0.01943122036755085
2865434646137,1.2785037755966187,-9.633070945739746,1.965639591217041,-0.0031941730994731188,-0.007985432632267475,0.0191650390625
2865435883450,1.292868971824646,-9.569623947143555,1.9189527034759521,-0.0039927163161337376,-0.0090501569211483,0.02076212503015995
2865437120750,1.2461819648742676,-9.635464668273926,1.9381062984466553,-0.010114881210029125,-0.010381062515079975,0.0204959437251091
2865438358075,1.2318167686462402,-9.59715747833252,1.9249382019042969,-0.0039927163161337376,-0.003460354171693325,0.0210283063352108
2865439595362,1.238999366760254,-9.606734275817871,1.946485996246338,-0.0010647244052961469,-0.0066545275039970875,0.0223592109978199
2865440832675,1.2868834733963013,-9.603142738342285,1.945288896560669,-0.004791259765625,-0.0071868896484375,0.01756795309484005
2865442069987,1.2725181579589844,-9.634267807006836,1.9847931861877441,-0.003460354171693325,-0.007985432632267475,0.0204959437251091
2865443307287,1.256955862045288,-9.633070945739746,1.9321208000183105,-0.005057440605014563,-0.0066545275039970875,0.0210283063352108
2865444544612,1.2437877655029297,-9.63187313079834,1.98958158493042,-0.006122165359556675,-0.0013309054775163531,0.01889885775744915
2865445781912,1.3227964639663696,-9.636661529541016,1.9728221893310547,-0.0031941730994731188,-0.0053236219100654125,0.01650322787463665
2865447019237,1.292868971824646,-9.642647743225098,1.964442491531372,-0.0039927163161337376,-0.008783976547420025,0.013042873702943325
2865448256537,1.2653355598449707,-9.63067626953125,1.9524714946746826,-0.0007985432748682797,-0.007453070487827063,0.015172322280704975
2865449493825,1.256955862045288,-9.627084732055664,1.9512743949890137,0.0013309054775163531,-0.0063883461989462376,0.01703559048473835
2865450731162,1.2785037755966187,-9.63187313079834,1.968033790588379,0.0021294488105922937,-0.0029279920272529125,0.01650322787463665
2865451968450,1.3108254671096802,-9.640253067016602,1.9692308902740479,-0.0029279920272529125,-0.0018632676219567657,0.01463996060192585
2865453205750,1.2701239585876465,-9.646238327026367,1.9596540927886963,-0.003460354171693325,-0.0029279920272529125,0.01650322787463665
2865454443075,1.2485761642456055,-9.66539192199707,1.9165585041046143,-0.0031941730994731188,-0.0023956298828125,0.01597086526453495
2865455680375,1.2557587623596191,-9.647436141967773,1.9321208000183105,-0.0005323622026480734,0.00452507846057415,0.01650322787463665
2865456917687,1.3060370683670044,-9.611522674560547,1.9476830959320068,-0.0063883461989462376,-0.0015970865497365594,0.013309055007994175
2865458155000,1.294066071510315,-9.651026725769043,1.9584569931030273,-0.0002661811013240367,-0.005855984054505825,0.01597086526453495
2865459392300,1.2473790645599365,-9.667786598205566,1.941697597503662,0.0042588976211845875,-0.0002661811013240367,0.01703559048473835
2865460629625,1.290474772453308,-9.635464668273926,1.9381062984466553,-0.0005323622026480734,0.0015970865497365594,0.0162370465695858
2865461866912,1.2820950746536255,-9.621099472045898,1.9393033981323242,-0.0010647244052961469,-0.0005323622026480734,0.01410759799182415
2865463104237,1.2844892740249634,-9.657012939453125,1.9285295009613037,-0.0039927163161337376,-0.0018632676219567657,0.008783976547420025
2865464341550,1.2509703636169434,-9.651026725769043,1.9033904075622559,-0.005855984054505825,0.0,0.007985432632267475
2865465578850,1.2545616626739502,-9.62947940826416,1.9548656940460205,-0.0007985432748682797,-0.0018632676219567657,0.01650322787463665
2865466816162,1.2832921743392944,-9.604340553283691,1.9261353015899658,0.0026618109550327063,0.0010647244052961469,0.014373779296875
2865468053475,1.3084312677383423,-9.599552154541016,1.9524714946746826,0.0010647244052961469,0.0,0.010647243820130825
2865469290762,1.313219666481018,-9.59835433959961,1.944091796875,0.0039927163161337376,0.0007985432748682797,0.010647243820130825
2865470528075,1.313219666481018,-9.622296333312988,1.96683669090271,-0.0013309054775163531,0.0007985432748682797,0.0114457868039608
2865471765387,1.2665326595306396,-9.609128952026367,1.9309237003326416,-0.0013309054775163531,-0.0013309054775163531,0.0114457868039608
2865473002712,1.2413935661315918,-9.587580680847168,1.988384485244751,0.003460354171693325,-0.0029279920272529125,0.010647243820130825
2865474240012,1.2641384601593018,-9.582792282104492,1.9476830959320068,0.0039927163161337376,-0.0021294488105922937,0.008783976547420025
2865475477337,1.3048399686813354,-9.57321548461914,1.9524714946746826,0.0007985432748682797,0.003460354171693325,0.0063883461989462376
2865476714637,1.2785037755966187,-9.568427085876465,1.9632453918457031,-0.0007985432748682797,0.0037265352439135313,0.0071868896484375
2865477951925,1.3024457693099976,-9.567230224609375,2.013523578643799,-0.0053236219100654125,0.00452507846057415,0.0066545275039970875
2865479189237,1.2844892740249634,-9.567230224609375,1.9764134883880615,0.0002661811013240367,0.0029279920272529125,0.007453070487827063
2865480426550,1.2713210582733154,-9.576807022094727,1.9967641830444336,0.0031941730994731188,-0.0005323622026480734,0.0077192517928779125
2865481663850,1.2749123573303223,-9.566033363342285,1.968033790588379,0.005589802749454975,0.003460354171693325,0.00452507846057415
2865482901175,1.3108254671096802,-9.53969669342041,1.98958158493042,0.010647243820130825,0.0031941730994731188,0.0042588976211845875
2865484138487,1.2413935661315918,-9.548076629638672,1.9740192890167236,0.0031941730994731188,0.0013309054775163531,-0.00452507846057415
2865485375800,1.3204022645950317,-9.591172218322754,1.9800047874450684,0.005589802749454975,-0.0002661811013240367,0.0007985432748682797
2865486613100,1.3060370683670044,-9.578003883361816,1.968033790588379,0.00931633822619915,-0.0010647244052961469,0.0031941730994731188
2865487850400,1.2820950746536255,-9.5624418258667,1.9847931861877441,0.008251613937318325,0.0026618109550327063,0.008251613937318325
2865489087725,1.291671872138977,-9.583989143371582,1.9620482921600342,0.00692070834338665,0.008251613937318325,0.0066545275039970875
2865490325025,1.2665326595306396,-9.612719535827637,1.9512743949890137,0.00692070834338665,0.004791259765625,0.004791259765625
2865491562325,1.3120225667953491,-9.62947940826416,1.9584569931030273,0.008517795242369175,0.00452507846057415,0.0031941730994731188
2865492799637,1.2701239585876465,-9.603142738342285,1.9955670833587646,0.01224433071911335,0.0042588976211845875,0.004791259765625
2865494036950,1.3084312677383423,-9.646238327026367,1.9847931861877441,0.015438503585755825,0.0018632676219567657,0.0090501569211483
2865495274250,1.2976573705673218,-9.618705749511719,1.965639591217041,0.010114881210029125,0.0018632676219567657,0.00984870083630085
2865496511562,1.313219666481018,-9.651026725769043,1.964442491531372,0.01171196810901165,0.0026618109550327063,0.0090501569211483
2865497748875,1.2677297592163086,-9.649829864501953,1.9345149993896484,0.01117960549890995,0.003460354171693325,0.01224433071911335
2865498986187,1.2749123573303223,-9.655815124511719,1.942894697189331,0.0090501569211483,0.0031941730994731188,0.0077192517928779125
2865500223487,1.2856863737106323,-9.640253067016602,2.0015525817871094,0.0090501569211483,0.0010647244052961469,0.00958251953125
2865501460800,1.2737152576446533,-9.645041465759277,1.9632453918457031,0.008251613937318325,0.004791259765625,0.0090501569211483
2865502698112,1.2689268589019775,-9.637859344482422,1.9512743949890137,0.0157046839594841,0.0071868896484375,0.007453070487827063
2865503935425,1.2701239585876465,-9.657012939453125,1.9776105880737305,0.0157046839594841,0.0031941730994731188,0.007453070487827063
2865505172737,1.3000515699386597,-9.645041465759277,1.944091796875,0.0053236219100654125,0.0005323622026480734,0.0077192517928779125
2865506410037,1.2773066759109497,-9.640253067016602,1.965639591217041,0.00958251953125,0.0021294488105922937,0.008517795242369175
2865507647337,1.3263877630233765,-9.622296333312988,1.9692308902740479,0.01224433071911335,0.0042588976211845875,0.0053236219100654125
2865508884650,1.2713210582733154,-9.653421401977539,1.965639591217041,0.010913425125181675,0.0023956298828125,0.0077192517928779125
2865510121950,1.2629413604736328,-9.671378135681152,1.9393033981323242,0.00958251953125,0.0066545275039970875,0.0037265352439135313
2865511359275,1.2318167686462402,-9.684545516967773,1.96683669090271,0.0053236219100654125,0.0053236219100654125,0.0037265352439135313
2865512596587,1.294066071510315,-9.63067626953125,1.9692308902740479,0.006122165359556675,0.008783976547420025,0.00692070834338665
2865513833875,1.3012486696243286,-9.640253067016602,1.9309237003326416,0.010913425125181675,0.010381062515079975,0.00452507846057415
2865515071187,1.2868834733963013,-9.66299819946289,1.968033790588379,0.01171196810901165,0.0039927163161337376,0.005057440605014563
2865516308500,1.3096283674240112,-9.639056205749512,1.9776105880737305,0.008783976547420025,0.0018632676219567657,-0.0013309054775163531
2865517545812,1.290474772453308,-9.625887870788574,1.96683669090271,0.0077192517928779125,-0.0015970865497365594,0.0013309054775163531
2865518783100,1.2785037755966187,-9.647436141967773,1.9991583824157715,0.007985432632267475,0.0007985432748682797,0.006122165359556675
2865520020425,1.290474772453308,-9.683348655700684,1.9632453918457031,0.004791259765625,0.003460354171693325,0.0010647244052961469
2865521257737,1.290474772453308,-9.6618013381958,1.9991583824157715,0.0053236219100654125,0.0053236219100654125,0.0029279920272529125
2865522495050,1.2318167686462402,-9.641449928283691,1.9596540927886963,0.0010647244052961469,0.0053236219100654125,0.0002661811013240367
2865523732362,1.3204022645950317,-9.65222454071045,1.9692308902740479,0.00452507846057415,0.008251613937318325,-0.004791259765625
2865524969650,1.313219666481018,-9.63187313079834,1.968033790588379,0.005589802749454975,0.005589802749454975,-0.0053236219100654125
2865526206975,1.2820950746536255,-9.635464668273926,1.942894697189331,0.007985432632267475,0.0066545275039970875,0.0013309054775163531
2865527444275,1.2665326595306396,-9.645041465759277,1.9548656940460205,0.005855984054505825,0.0042588976211845875,-0.0066545275039970875
2865528681600,1.2892776727676392,-9.63067626953125,1.9285295009613037,0.005589802749454975,0.0023956298828125,-0.0077192517928779125
2865529918887,1.2808979749679565,-9.673771858215332,1.9584569931030273,-0.0010647244052961469,0.0077192517928779125,-0.0090501569211483
2865531156187,1.256955862045288,-9.65222454071045,2.013523578643799,0.0,0.00958251953125,-0.0090501569211483
2865532393525,1.290474772453308,-9.649829864501953,1.9548656940460205,0.0002661811013240367,0.0066545275039970875,-0.005589802749454975
2865533630825,1.2737152576446533,-9.63067626953125,1.945288896560669,0.0015970865497365594,0.006122165359556675,-0.0063883461989462376
2865534868112,1.3096283674240112,-9.654618263244629,1.9381062984466553,0.0039927163161337376,0.005855984054505825,-0.008783976547420025
2865536105437,1.3072341680526733,-9.623494148254395,1.9716250896453857,0.0013309054775163531,0.0063883461989462376,-0.0077192517928779125
2865537342737,1.3060370683670044,-9.63067626953125,1.9704279899597168,0.0015970865497365594,0.004791259765625,-0.00958251953125
2865538580037,1.2856863737106323,-9.674968719482422,1.9488801956176758,0.0,0.0063883461989462376,-0.0119781494140625
2865539817350,1.3048399686813354,-9.653421401977539,1.96683669090271,0.005057440605014563,0.0071868896484375,-0.004791259765625
2865541054662,1.2880805730819702,-9.674968719482422,1.968033790588379,0.0031941730994731188,0.008783976547420025,-0.00958251953125
2865542291975,1.2964602708816528,-9.660603523254395,1.98958158493042,-0.0013309054775163531,0.0053236219100654125,-0.00692070834338665
2865543529275,1.2868834733963013,-9.651026725769043,1.9979612827301025,0.0039927163161337376,0.005589802749454975,-0.0021294488105922937
2865544766587,1.3120225667953491,-9.657012939453125,1.9488801956176758,0.008251613937318325,0.0005323622026480734,-0.005589802749454975
2865546003900,1.3096283674240112,-9.649829864501953,1.965639591217041,0.0029279920272529125,0.006122165359556675,-0.00452507846057415
2865547241212,1.3096283674240112,-9.66539192199707,1.922544002532959,0.0002661811013240367,0.0090501569211483,-0.007453070487827063
2865548478512,1.2976573705673218,-9.66419506072998,1.9847931861877441,0.005057440605014563,0.0042588976211845875,-0.00452507846057415
2865549715837,1.2844892740249634,-9.635464668273926,1.9536685943603516,0.0037265352439135313,0.00692070834338665,-0.005855984054505825
2865550953137,1.2629413604736328,-9.66299819946289,2.005143880844116,0.0013309054775163531,0.00958251953125,-0.0037265352439135313
2865552190450,1.2521674633026123,-9.654618263244629,1.96683669090271,-0.0007985432748682797,0.006122165359556675,-0.0053236219100654125
2865553427725,1.2832921743392944,-9.658209800720215,1.9596540927886963,-0.0018632676219567657,0.0063883461989462376,-0.008783976547420025
2865554665075,1.2844892740249634,-9.671378135681152,1.9596540927886963,-0.00452507846057415,0.0090501569211483,-0.010913425125181675
2865555902375,1.3012486696243286,-9.660603523254395,1.9500772953033447,0.0,0.00984870083630085,-0.0066545275039970875
2865557139700,1.2976573705673218,-9.615114212036133,1.9596540927886963,0.0039927163161337376,0.010913425125181675,-0.008251613937318325
2865558377000,1.3072341680526733,-9.680954933166504,1.9476830959320068,0.0007985432748682797,0.00452507846057415,-0.0053236219100654125
2865559614287,1.3503297567367554,-9.627084732055664,1.9716250896453857,0.004791259765625,0.003460354171693325,-0.005855984054505825
2865560851600,1.2868834733963013,-9.624691009521484,1.9393033981323242,0.0015970865497365594,0.0077192517928779125,-0.008517795242369175
2865562088925,1.2761094570159912,-9.66299819946289,1.9369091987609863,-0.0002661811013240367,0.0053236219100654125,-0.0077192517928779125
2865563326225,1.316810965538025,-9.623494148254395,1.9728221893310547,0.0002661811013240367,0.0021294488105922937,-0.0077192517928779125
2865564563525,1.3227964639663696,-9.667786598205566,1.9812018871307373,-0.0010647244052961469,0.005855984054505825,-0.00931633822619915
2865565800825,1.334767460823059,-9.636661529541016,1.9512743949890137,0.003460354171693325,0.0042588976211845875,-0.004791259765625
2865567038150,1.3227964639663696,-9.621099472045898,2.0254945755004883,0.005057440605014563,0.0077192517928779125,-0.007453070487827063
2865568275475,1.2773066759109497,-9.636661529541016,1.9907786846160889,0.0015970865497365594,0.0021294488105922937,-0.003460354171693325
2865569512762,1.315613865852356,-9.642647743225098,1.9788076877593994,-0.0026618109550327063,0.0029279920272529125,-0.0090501569211483
2865570750075,1.2761094570159912,-9.622296333312988,1.9788076877593994,0.0013309054775163531,0.0021294488105922937,-0.0042588976211845875
2865571987375,1.3251906633377075,-9.660603523254395,2.031480073928833,0.0005323622026480734,0.0063883461989462376,-0.007985432632267475
2865573224687,1.335964560508728,-9.660603523254395,2.0266916751861572,0.0015970865497365594,0.0021294488105922937,-0.0039927163161337376
2865574461987,1.3036428689956665,-9.623494148254395,1.9776105880737305,0.0007985432748682797,0.004791259765625,-0.0039927163161337376
2865575699300,1.2892776727676392,-9.592369079589844,1.988384485244751,0.0018632676219567657,0.0114457868039608,-0.007453070487827063
2865576936625,1.3251906633377075,-9.637859344482422,1.9584569931030273,0.0029279920272529125,0.0071868896484375,-0.005589802749454975
2865578173925,1.3096283674240112,-9.613917350769043,2.031480073928833,0.0042588976211845875,-0.0002661811013240367,-0.004791259765625
2865579411237,1.335964560508728,-9.639056205749512,1.9776105880737305,0.007453070487827063,0.0007985432748682797,-0.0021294488105922937
2865580648562,1.3120225667953491,-9.635464668273926,1.9907786846160889,0.0013309054775163531,0.004791259765625,-0.0039927163161337376
2865581885850,1.314416766166687,-9.615114212036133,1.9740192890167236,0.0007985432748682797,0.0066545275039970875,-0.0002661811013240367
2865583123150,1.3024457693099976,-9.609128952026367,1.9764134883880615,0.0066545275039970875,0.00452507846057415,0.0002661811013240367
2865584360462,1.338358759880066,-9.618705749511719,1.9991583824157715,0.008251613937318325,0.0039927163161337376,-0.0042588976211845875
2865585597775,1.3108254671096802,-9.600749015808105,1.9728221893310547,0.00452507846057415,0.0023956298828125,-0.0007985432748682797
2865586835075,1.3120225667953491,-9.649829864501953,2.0219032764434814,0.0029279920272529125,0.0005323622026480734,0.0007985432748682797
2865588072375,1.3120225667953491,-9.654618263244629,2.027888774871826,0.0066545275039970875,0.0010647244052961469,0.0018632676219567657
2865589309700,1.2820950746536255,-9.607931137084961,1.965639591217041,0.005855984054505825,0.0029279920272529125,0.0026618109550327063
2865590547000,1.2808979749679565,-9.603142738342285,1.9512743949890137,0.0007985432748682797,0.0039927163161337376,0.0013309054775163531
2865591784325,1.314416766166687,-9.657012939453125,2.0027496814727783,0.0037265352439135313,0.0066545275039970875,0.0010647244052961469
2865593021625,1.337161660194397,-9.648633003234863,1.9919757843017578,0.0090501569211483,0.0023956298828125,0.0010647244052961469
2865594258950,1.316810965538025,-9.623494148254395,1.9955670833587646,0.0026618109550327063,0.0002661811013240367,0.003460354171693325
2865595496250,1.3706804513931274,-9.673771858215332,1.9823989868164062,0.005855984054505825,0.0031941730994731188,0.005057440605014563
2865596733537,1.3239935636520386,-9.609128952026367,1.9931728839874268,0.005589802749454975,0.0015970865497365594,0.0066545275039970875
2865597970862,1.3335703611373901,-9.63067626953125,1.9632453918457031,0.010913425125181675,-0.0015970865497365594,0.003460354171693325
2865599208175,1.2964602708816528,-9.59835433959961,1.9752163887023926,0.0090501569211483,0.0002661811013240367,0.00984870083630085
2865600445475,1.3263877630233765,-9.648633003234863,1.9548656940460205,0.007985432632267475,0.0010647244052961469,0.0071868896484375
2865601682787,1.3263877630233765,-9.641449928283691,1.988384485244751,0.0037265352439135313,0.003460354171693325,0.0042588976211845875
2865602920112,1.3239935636520386,-9.651026725769043,2.011129379272461,0.0077192517928779125,0.0029279920272529125,0.0053236219100654125
2865604157400,1.2868834733963013,-9.63187313079834,1.9931728839874268,0.0066545275039970875,0.0005323622026480734,0.00452507846057415
2865605394712,1.3096283674240112,-9.660603523254395,2.0231003761291504,0.008251613937318325,0.0021294488105922937,0.0013309054775163531
2865606632012,1.3299790620803833,-9.65222454071045,2.009932279586792,0.013309055007994175,0.0013309054775163531,0.00452507846057415
2865607869325,1.316810965538025,-9.637859344482422,1.9967641830444336,0.0071868896484375,0.0007985432748682797,0.0066545275039970875
2865609106625,1.2988544702529907,-9.657012939453125,1.9692308902740479,0.006122165359556675,-0.0007985432748682797,0.0002661811013240367
2865610343950,1.3048399686813354,-9.649829864501953,1.9165585041046143,0.008783976547420025,-0.0023956298828125,0.0053236219100654125
2865611581262,1.3455413579940796,-9.65222454071045,1.9919757843017578,0.0063883461989462376,-0.0026618109550327063,0.004791259765625
2865612818575,1.3072341680526733,-9.621099472045898,2.0254945755004883,0.003460354171693325,-0.0039927163161337376,0.005855984054505825
2865614055887,1.3335703611373901,-9.672574996948242,1.9608511924743652,0.0007985432748682797,0.0002661811013240367,0.0013309054775163531
2865615293187,1.2988544702529907,-9.636661529541016,2.0207061767578125,0.0053236219100654125,0.0010647244052961469,0.0066545275039970875
2865616530487,1.334767460823059,-9.66539192199707,1.98958158493042,0.0023956298828125,-0.0010647244052961469,0.00692070834338665
2865617767800,1.3120225667953491,-9.654618263244629,2.0015525817871094,0.0029279920272529125,-0.0023956298828125,0.00958251953125
2865619005112,1.3443442583084106,-9.6618013381958,2.0039467811584473,0.0039927163161337376,0.003460354171693325,0.008517795242369175
2865620242425,1.290474772453308,-9.66419506072998,1.965639591217041,0.005855984054505825,-0.0005323622026480734,0.0053236219100654125
2865621479737,1.2976573705673218,-9.670180320739746,1.96683669090271,0.0015970865497365594,0.0010647244052961469,0.0071868896484375
2865622717050,1.3299790620803833,-9.68694019317627,1.9620482921600342,0.0031941730994731188,0.00692070834338665,0.005589802749454975
2865623954350,1.3024457693099976,-9.671378135681152,1.9692308902740479,0.0031941730994731188,0.003460354171693325,0.005589802749454975
2865625191650,1.290474772453308,-9.674968719482422,1.9847931861877441,0.0002661811013240367,-0.0023956298828125,0.003460354171693325
2865626428962,1.3120225667953491,-9.702502250671387,2.0207061767578125,0.0021294488105922937,0.0005323622026480734,0.0031941730994731188
2865627666275,1.2844892740249634,-9.648633003234863,1.988384485244751,0.0029279920272529125,0.005057440605014563,0.007453070487827063
2865628903587,1.2964602708816528,-9.6618013381958,1.9931728839874268,0.0002661811013240367,0.0007985432748682797,0.01224433071911335
2865630140887,1.3239935636520386,-9.640253067016602,1.9704279899597168,-0.0029279920272529125,0.0005323622026480734,0.00958251953125
2865631378200,1.316810965538025,-9.63067626953125,1.9812018871307373,-0.0031941730994731188,-0.0013309054775163531,0.0066545275039970875
2865632615512,1.314416766166687,-9.640253067016602,1.9776105880737305,-0.003460354171693325,-0.0010647244052961469,0.008517795242369175
2865633852812,1.2952631711959839,-9.646238327026367,1.98958158493042,-0.0042588976211845875,-0.003460354171693325,0.0018632676219567657
2865635090137,1.3120225667953491,-9.643844604492188,1.96683669090271,-0.005057440605014563,0.006122165359556675,0.0018632676219567657
2865636327437,1.2892776727676392,-9.651026725769043,1.988384485244751,-0.0018632676219567657,0.00692070834338665,0.0031941730994731188
2865637564737,1.3072341680526733,-9.676166534423828,1.9584569931030273,-0.00452507846057415,0.0002661811013240367,0.0066545275039970875
2865638802062,1.337161660194397,-9.666589736938477,1.9692308902740479,-0.0071868896484375,-0.0031941730994731188,0.0090501569211483
2865640039362,1.2892776727676392,-9.651026725769043,1.9153614044189453,-0.0002661811013240367,0.0026618109550327063,0.00931633822619915
2865641276675,1.291671872138977,-9.649829864501953,1.9393033981323242,-0.010114881210029125,0.0039927163161337376,0.0071868896484375
2865642513975,1.292868971824646,-9.66299819946289,2.0254945755004883,-0.008783976547420025,0.0018632676219567657,0.004791259765625
2865643751287,1.2473790645599365,-9.668983459472656,1.9919757843017578,-0.0066545275039970875,0.0013309054775163531,0.0026618109550327063
2865644988600,1.290474772453308,-9.66539192199707,1.945288896560669,-0.005057440605014563,-0.0021294488105922937,0.0053236219100654125
2865646225900,1.2785037755966187,-9.658209800720215,1.922544002532959,-0.00692070834338665,0.0002661811013240367,0.0063883461989462376
2865647463225,1.2473790645599365,-9.63067626953125,2.009932279586792,-0.00931633822619915,-0.0013309054775163531,0.004791259765625
2865648700525,1.3024457693099976,-9.647436141967773,1.9572598934173584,-0.00692070834338665,0.0066545275039970875,0.007985432632267475
2865649937837,1.3431471586227417,-9.667786598205566,1.9823989868164062,-0.0042588976211845875,0.004791259765625,0.0090501569211483
2865651175137,1.3120225667953491,-9.658209800720215,1.9955670833587646,-0.007985432632267475,0.0013309054775163531,0.0013309054775163531
2865652412450,1.3060370683670044,-9.639056205749512,1.9752163887023926,-0.005855984054505825,0.0002661811013240367,0.0053236219100654125
2865653649750,1.2844892740249634,-9.660603523254395,1.9165585041046143,-0.0114457868039608,0.0005323622026480734,0.005589802749454975
2865654887075,1.2497732639312744,-9.625887870788574,1.9728221893310547,-0.012510511092841625,0.0042588976211845875,0.007453070487827063
2865656124375,1.2737152576446533,-9.667786598205566,1.9584569931030273,-0.010381062515079975,0.00452507846057415,0.007453070487827063
2865657361687,1.2641384601593018,-9.6618013381958,1.988384485244751,-0.013042873702943325,0.0005323622026480734,0.005855984054505825
2865658598987,1.3072341680526733,-9.653421401977539,1.987187385559082,-0.0138414166867733,0.0042588976211845875,0.0071868896484375
2865659836300,1.2665326595306396,-9.674968719482422,1.964442491531372,-0.0119781494140625,0.007453070487827063,0.00692070834338665
2865661073612,1.3048399686813354,-9.643844604492188,1.9488801956176758,-0.0119781494140625,0.004791259765625,0.0063883461989462376
2865662310925,1.2701239585876465,-9.637859344482422,1.9800047874450684,-0.0119781494140625,0.004791259765625,0.00452507846057415
2865663548237,1.2665326595306396,-9.658209800720215,2.0195090770721436,-0.010913425125181675,0.0018632676219567657,0.003460354171693325
2865664785537,1.337161660194397,-9.660603523254395,1.9931728839874268,-0.01224433071911335,0.0039927163161337376,0.0
2865666022850,1.3036428689956665,-9.659406661987305,2.008735179901123,-0.008251613937318325,0.0053236219100654125,0.0026618109550327063
2865667260150,1.3227964639663696,-9.641449928283691,1.968033790588379,-0.01224433071911335,0.005057440605014563,0.0023956298828125
2865668497462,1.3192051649093628,-9.634267807006836,1.9620482921600342,-0.0114457868039608,0.004791259765625,0.005589802749454975
2865669734775,1.294066071510315,-9.605537414550781,1.9512743949890137,-0.01117960549890995,0.0039927163161337376,0.0066545275039970875
2865670972075,1.2880805730819702,-9.637859344482422,1.9381062984466553,-0.01410759799182415,0.005855984054505825,0.0031941730994731188
2865672209387,1.2773066759109497,-9.606734275817871,1.9776105880737305,-0.0138414166867733,0.0042588976211845875,0.0023956298828125
2865673446700,1.3024457693099976,-9.636661529541016,1.9261353015899658,-0.0114457868039608,0.01171196810901165,0.0018632676219567657
2865674684012,1.2557587623596191,-9.655815124511719,1.9345149993896484,-0.01703559048473835,0.01224433071911335,0.0018632676219567657
2865675921300,1.2713210582733154,-9.639056205749512,1.9069817066192627,-0.013309055007994175,0.0071868896484375,0.0071868896484375
2865677158612,1.294066071510315,-9.659406661987305,1.9512743949890137,-0.013042873702943325,0.0026618109550327063,0.0013309054775163531
2865678395925,1.2964602708816528,-9.655815124511719,1.942894697189331,-0.01171196810901165,0.005855984054505825,0.003460354171693325
2865679633250,1.260547161102295,-9.606734275817871,1.965639591217041,-0.015438503585755825,0.010647243820130825,0.005057440605014563
2865680870537,1.3084312677383423,-9.654618263244629,1.9476830959320068,-0.0173017717897892,0.005057440605014563,0.0015970865497365594
2865682107850,1.2892776727676392,-9.683348655700684,1.9764134883880615,-0.01597086526453495,0.00984870083630085,-0.0039927163161337376
2865683345162,1.2976573705673218,-9.643844604492188,1.9728221893310547,-0.01410759799182415,0.0066545275039970875,-0.0018632676219567657
2865684582475,1.3108254671096802,-9.647436141967773,1.9500772953033447,-0.010647243820130825,0.008251613937318325,0.0021294488105922937
2865685819787,1.2749123573303223,-9.659406661987305,1.9716250896453857,-0.01597086526453495,0.008517795242369175,0.0018632676219567657
2865687057087,1.260547161102295,-9.68813705444336,2.0242974758148193,-0.0167694091796875,0.013042873702943325,0.0005323622026480734
2865688294375,1.2868834733963013,-9.666589736938477,2.0242974758148193,-0.0119781494140625,0.00931633822619915,0.0002661811013240367
2865689531712,1.2964602708816528,-9.691728591918945,1.9584569931030273,-0.01224433071911335,0.007985432632267475,-0.0005323622026480734
2865690769037,1.292868971824646,-9.678560256958008,1.964442491531372,-0.0173017717897892,0.0066545275039970875,-0.0010647244052961469
2865692006325,1.334767460823059,-9.668983459472656,1.9776105880737305,-0.01410759799182415,0.00931633822619915,-0.0026618109550327063
2865693243625,1.2988544702529907,-9.690531730651855,1.945288896560669,-0.0162370465695858,0.00984870083630085,0.0002661811013240367
2865694480925,1.2880805730819702,-9.683348655700684,2.053027868270874,-0.01117960549890995,0.0114457868039608,-0.0010647244052961469
2865695718262,1.3215993642807007,-9.684545516967773,1.9608511924743652,-0.02022976242005825,0.01117960549890995,-0.0023956298828125
2865696955575,1.3096283674240112,-9.642647743225098,1.9967641830444336,-0.0204959437251091,0.014906140975654125,-0.0007985432748682797
2865698192887,1.3096283674240112,-9.657012939453125,2.008735179901123,-0.0119781494140625,0.010913425125181675,0.0
2865699430175,1.2880805730819702,-9.648633003234863,1.9764134883880615,-0.012776692397892475,0.010114881210029125,-0.003460354171693325
2865700667500,1.3180080652236938,-9.643844604492188,1.9548656940460205,-0.0173017717897892,0.010913425125181675,-0.0002661811013240367
2865701904812,1.2856863737106323,-9.62828254699707,1.9704279899597168,-0.014906140975654125,0.01463996060192585,0.0015970865497365594
2865703142112,1.3036428689956665,-9.643844604492188,1.9524714946746826,-0.01410759799182415,0.010114881210029125,0.0021294488105922937
2865704379412,1.3311761617660522,-9.62828254699707,1.9189527034759521,-0.01463996060192585,0.00931633822619915,0.0018632676219567657
2865705616725,1.3215993642807007,-9.66299819946289,1.922544002532959,-0.01943122036755085,0.014373779296875,-0.0002661811013240367
2865706854025,1.3275848627090454,-9.654618263244629,1.9500772953033447,-0.01597086526453495,0.00931633822619915,-0.0013309054775163531
2865708091350,1.3084312677383423,-9.613917350769043,1.9524714946746826,-0.010913425125181675,0.008517795242369175,0.0
2865709328637,1.3120225667953491,-9.605537414550781,1.9584569931030273,-0.012776692397892475,0.014373779296875,0.0015970865497365594
2865710565950,1.3072341680526733,-9.623494148254395,1.9800047874450684,-0.00984870083630085,0.010114881210029125,0.0021294488105922937
2865711803275,1.316810965538025,-9.605537414550781,1.9931728839874268,-0.012510511092841625,0.010114881210029125,-0.0023956298828125
2865713040575,1.3120225667953491,-9.583989143371582,1.9476830959320068,-0.015172322280704975,0.014373779296875,-0.004791259765625
2865714277887,1.3096283674240112,-9.588777542114258,1.964442491531372,-0.0119781494140625,0.010114881210029125,0.0015970865497365594
2865715515187,1.3060370683670044,-9.59715747833252,1.9716250896453857,-0.013309055007994175,0.01224433071911335,0.0029279920272529125
2865716752500,1.290474772453308,-9.621099472045898,1.9632453918457031,-0.00958251953125,0.01357523538172245,-0.004791259765625
2865717989825,1.292868971824646,-9.57201862335205,1.9297266006469727,-0.0114457868039608,0.014906140975654125,-0.0026618109550327063
2865719227112,1.3024457693099976,-9.59596061706543,1.9728221893310547,-0.0138414166867733,0.0138414166867733,-0.0039927163161337376
2865720464425,1.3443442583084106,-9.59596061706543,1.9632453918457031,-0.01224433071911335,0.015172322280704975,-0.00692070834338665
2865721701737,1.2868834733963013,-9.57321548461914,1.942894697189331,-0.012776692397892475,0.014373779296875,-0.0053236219100654125
2865722939062,1.2808979749679565,-9.564835548400879,1.9764134883880615,-0.010913425125181675,0.013042873702943325,-0.0042588976211845875
2865724176362,1.335964560508728,-9.633070945739746,2.0027496814727783,-0.008517795242369175,0.012510511092841625,-0.0053236219100654125
2865725413662,1.3467384576797485,-9.59596061706543,1.9931728839874268,-0.010114881210029125,0.013042873702943325,-0.012510511092841625
2865726650987,1.315613865852356,-9.63067626953125,1.9273324012756348,-0.01224433071911335,0.010913425125181675,-0.01224433071911335
2865727888287,1.337161660194397,-9.605537414550781,1.9704279899597168,-0.01117960549890995,0.014373779296875,-0.007453070487827063
2865729125600,1.3215993642807007,-9.585186958312988,1.9369091987609863,-0.00958251953125,0.012776692397892475,-0.006122165359556675
2865730362912,1.3084312677383423,-9.585186958312988,1.922544002532959,-0.010381062515079975,0.013309055007994175,-0.0053236219100654125
2865731600225,1.337161660194397,-9.605537414550781,1.9835960865020752,-0.00958251953125,0.013042873702943325,-0.0066545275039970875
2865732837525,1.3263877630233765,-9.612719535827637,2.006340980529785,-0.010913425125181675,0.013309055007994175,-0.012776692397892475
2865734074837,1.358709454536438,-9.586383819580078,1.964442491531372,-0.00984870083630085,0.01463996060192585,-0.0138414166867733
2865735312162,1.3838485479354858,-9.62947940826416,1.9321208000183105,-0.006122165359556675,0.010647243820130825,-0.0053236219100654125
2865736549475,1.338358759880066,-9.610325813293457,1.941697597503662,-0.0071868896484375,0.013309055007994175,-0.0063883461989462376
2865737786787,1.3311761617660522,-9.625887870788574,1.9488801956176758,-0.0066545275039970875,0.01410759799182415,-0.008517795242369175
2865739024062,1.3934253454208374,-9.601945877075195,1.9632453918457031,-0.0042588976211845875,0.01463996060192585,-0.010647243820130825
2865740261387,1.3108254671096802,-9.627084732055664,1.9500772953033447,-0.00984870083630085,0.0162370465695858,-0.0071868896484375
2865741498675,1.3299790620803833,-9.651026725769043,1.9512743949890137,-0.0039927163161337376,0.0157046839594841,-0.0090501569211483
2865742736000,1.3886369466781616,-9.648633003234863,1.9393033981323242,-0.006122165359556675,0.01463996060192585,-0.01117960549890995
2865743973312,1.3634978532791138,-9.623494148254395,1.899799108505249,-0.0071868896484375,0.01703559048473835,-0.0071868896484375
2865745210625,1.3503297567367554,-9.641449928283691,1.920149803161621,-0.0039927163161337376,0.015172322280704975,-0.00452507846057415
2865746447925,1.3431471586227417,-9.607931137084961,1.922544002532959,-0.0037265352439135313,0.01597086526453495,-0.005855984054505825
2865747685237,1.335964560508728,-9.623494148254395,1.96683669090271,-0.0063883461989462376,0.012510511092841625,-0.010381062515079975
2865748922537,1.3611036539077759,-9.59476375579834,1.9177556037902832,0.0005323622026480734,0.015172322280704975,-0.014906140975654125
2865750159850,1.3778630495071411,-9.59596061706543,1.9153614044189453,0.0005323622026480734,0.01357523538172245,-0.0114457868039608
2865751397162,1.3227964639663696,-9.651026725769043,1.9572598934173584,-0.005589802749454975,0.010381062515079975,-0.01224433071911335
2865752634475,1.338358759880066,-9.639056205749512,1.942894697189331,-0.0039927163161337376,0.01171196810901165,-0.01117960549890995
2865753871787,1.3467384576797485,-9.613917350769043,1.9572598934173584,0.0002661811013240367,0.01463996060192585,-0.010381062515079975
2865755109075,1.3227964639663696,-9.619902610778809,1.8974049091339111,0.0002661811013240367,0.0119781494140625,-0.012510511092841625
2865756346412,1.357512354850769,-9.593565940856934,1.9081788063049316,0.0007985432748682797,0.01224433071911335,-0.010114881210029125
2865757583712,1.3694833517074585,-9.605537414550781,1.9632453918457031,-0.0023956298828125,0.01171196810901165,-0.01171196810901165
2865758821012,1.3718775510787964,-9.613917350769043,1.9333178997039795,0.0010647244052961469,0.0066545275039970875,-0.0114457868039608
2865760058325,1.3778630495071411,-9.618705749511719,1.9141643047332764,0.0021294488105922937,0.0090501569211483,-0.008251613937318325
2865761295650,1.3395558595657349,-9.579200744628906,1.9584569931030273,-0.0002661811013240367,0.012776692397892475,-0.0119781494140625
2865762532925,1.3443442583084106,-9.543288230895996,1.9752163887023926,0.0018632676219567657,0.0119781494140625,-0.00931633822619915
2865763770250,1.3527239561080933,-9.605537414550781,1.9572598934173584,0.0013309054775163531,0.012510511092841625,-0.008517795242369175
2865765007562,1.3623007535934448,-9.589975357055664,1.9560627937316895,-0.0018632676219567657,0.010913425125181675,-0.0077192517928779125
2865766244887,1.3898340463638306,-9.612719535827637,1.9572598934173584,0.0026618109550327063,0.01357523538172245,-0.00931633822619915
2865767482175,1.3754688501358032,-9.604340553283691,1.941697597503662,0.0007985432748682797,0.010114881210029125,-0.0066545275039970875
2865768719487,1.357512354850769,-9.592369079589844,1.9057846069335938,0.0007985432748682797,0.012776692397892475,-0.0039927163161337376
2865769956800,1.3694833517074585,-9.578003883361816,1.8938136100769043,0.0026618109550327063,0.01224433071911335,-0.006122165359556675
2865771194112,1.3611036539077759,-9.603142738342285,1.9105730056762695,0.0002661811013240367,0.007453070487827063,-0.0071868896484375
2865772431412,1.4173674583435059,-9.65222454071045,1.922544002532959,-0.0002661811013240367,0.0066545275039970875,-0.005057440605014563
2865773668725,1.3611036539077759,-9.651026725769043,1.8878281116485596,0.0021294488105922937,0.008251613937318325,-0.0037265352439135313
2865774906037,1.3527239561080933,-9.588777542114258,1.9632453918457031,0.0071868896484375,0.008783976547420025,-0.0031941730994731188
2865776143337,1.3467384576797485,-9.586383819580078,1.9488801956176758,0.005589802749454975,0.010381062515079975,-0.00452507846057415
2865777380675,1.3431471586227417,-9.616311073303223,1.9273324012756348,0.007985432632267475,0.010114881210029125,-0.007985432632267475
2865778617962,1.3646949529647827,-9.605537414550781,1.9297266006469727,0.005589802749454975,0.0077192517928779125,-0.0077192517928779125
2865779855275,1.37906014919281,-9.600749015808105,1.9273324012756348,0.0090501569211483,0.008517795242369175,-0.0031941730994731188
2865781092587,1.3838485479354858,-9.600749015808105,1.920149803161621,0.0042588976211845875,0.007453070487827063,-0.0026618109550327063
2865782329887,1.358709454536438,-9.578003883361816,1.9069817066192627,0.005057440605014563,0.008251613937318325,-0.0026618109550327063
2865783567200,1.3563152551651,-9.586383819580078,1.899799108505249,0.003460354171693325,0.005589802749454975,-0.005057440605014563
2865784804487,1.3563152551651,-9.605537414550781,1.9800047874450684,0.005855984054505825,0.007985432632267475,-0.005057440605014563
2865786041812,1.3778630495071411,-9.639056205749512,1.945288896560669,0.0071868896484375,0.0066545275039970875,-0.0039927163161337376
2865787279125,1.3970166444778442,-9.605537414550781,1.9165585041046143,0.0029279920272529125,0.0119781494140625,-0.0023956298828125
2865788516437,1.3634978532791138,-9.592369079589844,1.9261353015899658,0.003460354171693325,0.008783976547420025,-0.008783976547420025
2865789753737,1.3491326570510864,-9.587580680847168,1.9057846069335938,0.005057440605014563,0.00931633822619915,-0.0018632676219567657
2865790991050,1.4101848602294922,-9.589975357055664,1.9153614044189453,0.008517795242369175,0.00931633822619915,-0.0007985432748682797
2865792228362,1.3515268564224243,-9.651026725769043,1.9189527034759521,0.005057440605014563,0.010381062515079975,-0.0007985432748682797
2865793465650,1.4018051624298096,-9.63067626953125,1.965639591217041,-0.0029279920272529125,0.01171196810901165,-0.0066545275039970875
2865794702987,1.3527239561080933,-9.655815124511719,1.9357120990753174,0.004791259765625,0.008783976547420025,-0.0026618109550327063
2865795940300,1.3670891523361206,-9.63187313079834,1.899799108505249,0.0063883461989462376,0.004791259765625,-0.0021294488105922937
2865797177587,1.3730746507644653,-9.604340553283691,1.9309237003326416,0.003460354171693325,0.005589802749454975,-0.0007985432748682797
2865798414912,1.3215993642807007,-9.657012939453125,1.9249382019042969,0.005057440605014563,0.0066545275039970875,0.003460354171693325
2865799652212,1.3287819623947144,-9.619902610778809,1.899799108505249,0.010381062515079975,0.00692070834338665,0.0023956298828125
2865800889537,1.380257248878479,-9.63187313079834,1.9249382019042969,0.0066545275039970875,0.005057440605014563,0.0021294488105922937
2865802126850,1.3503297567367554,-9.63187313079834,1.9153614044189453,0.0005323622026480734,0.005855984054505825,0.0018632676219567657
2865803364137,1.3563152551651,-9.589975357055664,1.9979612827301025,-0.0010647244052961469,0.01117960549890995,0.0010647244052961469
2865804601450,1.337161660194397,-9.636661529541016,1.923741102218628,0.005057440605014563,0.0077192517928779125,0.0005323622026480734
2865805838762,1.3287819623947144,-9.66299819946289,1.9249382019042969,0.004791259765625,0.0071868896484375,0.0031941730994731188
2865807076062,1.3646949529647827,-9.684545516967773,1.902193307876587,0.0039927163161337376,0.0114457868039608,-0.0021294488105922937
2865808313387,1.3646949529647827,-9.603142738342285,1.8818424940109253,0.0063883461989462376,0.00692070834338665,0.0053236219100654125
2865809550687,1.3742717504501343,-9.607931137084961,1.8890252113342285,0.0042588976211845875,0.0026618109550327063,0.0063883461989462376
2865810788000,1.3503297567367554,-9.645041465759277,1.8830395936965942,0.0031941730994731188,0.00958251953125,0.0018632676219567657
2865812025300,1.3766659498214722,-9.624691009521484,1.9189527034759521,0.0077192517928779125,0.00692070834338665,0.0023956298828125
2865813262625,1.334767460823059,-9.643844604492188,1.9261353015899658,0.008783976547420025,0.0071868896484375,0.005057440605014563
2865814499925,1.3850456476211548,-9.582792282104492,1.9847931861877441,0.006122165359556675,0.005057440605014563,0.004791259765625
2865815737250,1.3634978532791138,-9.627084732055664,1.9536685943603516,0.0039927163161337376,0.0007985432748682797,0.008517795242369175
2865816974550,1.3275848627090454,-9.618705749511719,1.9488801956176758,0.0039927163161337376,0.0031941730994731188,0.00984870083630085
2865818211862,1.3515268564224243,-9.62947940826416,1.9069817066192627,0.0042588976211845875,0.0071868896484375,0.0066545275039970875
2865819449175,1.3718775510787964,-9.653421401977539,1.9800047874450684,0.0015970865497365594,0.00452507846057415,0.0042588976211845875
2865820686487,1.381454348564148,-9.647436141967773,1.9165585041046143,0.010647243820130825,0.0029279920272529125,-0.0005323622026480734
2865821923800,1.3718775510787964,-9.593565940856934,1.9165585041046143,0.0053236219100654125,0.0018632676219567657,0.0037265352439135313
2865823161100,1.3898340463638306,-9.636661529541016,1.9249382019042969,0.00452507846057415,0.0018632676219567657,0.008251613937318325
2865824398425,1.3730746507644653,-9.660603523254395,1.9261353015899658,0.01117960549890995,0.0010647244052961469,0.008517795242369175
2865825635712,1.3539210557937622,-9.672574996948242,1.9369091987609863,0.008517795242369175,0.0066545275039970875,0.0026618109550327063
2865826873000,1.335964560508728,-9.66299819946289,1.9512743949890137,0.00452507846057415,0.0063883461989462376,0.0018632676219567657
2865828110325,1.3287819623947144,-9.680954933166504,1.964442491531372,0.0066545275039970875,0.0037265352439135313,0.0066545275039970875
2865829347637,1.3706804513931274,-9.63067626953125,1.8902223110198975,0.00958251953125,0.00452507846057415,0.013309055007994175
2865830584950,1.359906554222107,-9.654618263244629,1.9512743949890137,0.0015970865497365594,0.0002661811013240367,0.0071868896484375
2865831822225,1.3611036539077759,-9.642647743225098,2.0015525817871094,0.0021294488105922937,-0.0005323622026480734,0.006122165359556675
2865833059575,1.3682862520217896,-9.651026725769043,1.9381062984466553,0.0066545275039970875,0.0037265352439135313,0.005057440605014563
2865834296887,1.3778630495071411,-9.642647743225098,1.9776105880737305,0.008517795242369175,0.006122165359556675,0.006122165359556675
2865835534175,1.359906554222107,-9.609128952026367,1.9357120990753174,0.0037265352439135313,0.003460354171693325,0.0071868896484375
2865836771512,1.3623007535934448,-9.617507934570312,1.9117701053619385,0.0066545275039970875,0.0010647244052961469,0.005855984054505825
2865838008812,1.3958195447921753,-9.682151794433594,1.9608511924743652,0.00984870083630085,0.0053236219100654125,0.0042588976211845875
2865839246112,1.3862427473068237,-9.6618013381958,1.8962078094482422,0.010114881210029125,0.0018632676219567657,0.012510511092841625
2865840483412,1.3694833517074585,-9.62828254699707,1.9524714946746826,0.01117960549890995,-0.0010647244052961469,0.012510511092841625
2865841720725,1.413776159286499,-9.59596061706543,1.9057846069335938,0.00931633822619915,0.0026618109550327063,0.0090501569211483
2865842958037,1.3670891523361206,-9.601945877075195,1.9536685943603516,0.007453070487827063,0.00692070834338665,0.01117960549890995
2865844195362,1.3515268564224243,-9.601945877075195,1.9249382019042969,0.005589802749454975,0.0,0.005855984054505825
2865845432675,1.357512354850769,-9.633070945739746,1.9321208000183105,0.008251613937318325,-0.0023956298828125,0.005855984054505825
2865846669962,1.3479355573654175,-9.651026725769043,1.941697597503662,0.008517795242369175,-0.0007985432748682797,0.007453070487827063
2865847907287,1.3551181554794312,-9.633070945739746,1.9321208000183105,0.0071868896484375,-0.0005323622026480734,0.003460354171693325
2865849144600,1.359906554222107,-9.62947940826416,1.9955670833587646,0.007453070487827063,-0.0018632676219567657,0.005855984054505825
2865850381912,1.3682862520217896,-9.63067626953125,1.9740192890167236,0.008251613937318325,0.0,0.010114881210029125
2865851619212,1.359906554222107,-9.633070945739746,1.9560627937316895,0.0053236219100654125,0.0010647244052961469,0.0066545275039970875
2865852856500,1.3670891523361206,-9.622296333312988,1.9393033981323242,0.0029279920272529125,-0.0013309054775163531,0.008251613937318325
2865854093825,1.3850456476211548,-9.59476375579834,1.9405004978179932,0.0039927163161337376,-0.0005323622026480734,0.0
2865855331137,1.3335703611373901,-9.673771858215332,1.9752163887023926,0.0066545275039970875,-0.0010647244052961469,0.0010647244052961469
2865856568425,1.3886369466781616,-9.640253067016602,1.9512743949890137,0.00958251953125,0.0007985432748682797,0.0031941730994731188
2865857805775,1.3275848627090454,-9.621099472045898,1.9129672050476074,0.00931633822619915,-0.003460354171693325,0.0031941730994731188
2865859043062,1.3682862520217896,-9.639056205749512,1.9129672050476074,0.0063883461989462376,-0.0042588976211845875,0.010381062515079975
2865860280387,1.3766659498214722,-9.62828254699707,1.946485996246338,0.008783976547420025,-0.003460354171693325,0.008783976547420025
2865861517675,1.3778630495071411,-9.649829864501953,1.9141643047332764,0.01410759799182415,-0.0013309054775163531,0.005855984054505825
2865862754987,1.3706804513931274,-9.627084732055664,1.9740192890167236,0.00931633822619915,0.0021294488105922937,0.004791259765625
2865863992300,1.3754688501358032,-9.606734275817871,1.942894697189331,0.0090501569211483,-0.0007985432748682797,0.0077192517928779125
2865865229600,1.3886369466781616,-9.617507934570312,1.9512743949890137,0.010647243820130825,-0.0018632676219567657,0.0026618109550327063
2865866466912,1.359906554222107,-9.647436141967773,1.9524714946746826,0.0071868896484375,-0.00931633822619915,0.0071868896484375
2865867704225,1.3706804513931274,-9.586383819580078,1.9512743949890137,0.008251613937318325,-0.0039927163161337376,0.005855984054505825
2865868941537,1.3239935636520386,-9.612719535827637,1.968033790588379,0.00931633822619915,-0.0037265352439135313,0.00452507846057415
2865870178850,1.3431471586227417,-9.63187313079834,1.9512743949890137,0.008251613937318325,-0.0031941730994731188,0.005855984054505825
2865871416150,1.3527239561080933,-9.617507934570312,1.9369091987609863,0.0063883461989462376,-0.007453070487827063,0.007453070487827063
2865872653475,1.3970166444778442,-9.605537414550781,1.9189527034759521,0.008783976547420025,-0.0063883461989462376,0.0090501569211483
2865873890775,1.3527239561080933,-9.567230224609375,1.9704279899597168,0.010381062515079975,-0.007453070487827063,0.01224433071911335
2865875128075,1.3407529592514038,-9.599552154541016,1.9309237003326416,0.010381062515079975,-0.0066545275039970875,0.010381062515079975
2865876365375,1.3419500589370728,-9.62947940826416,1.9608511924743652,0.01117960549890995,-0.0029279920272529125,0.0037265352439135313
2865877602712,1.3623007535934448,-9.618705749511719,1.9512743949890137,0.01224433071911335,-0.003460354171693325,0.0066545275039970875
2865878840025,1.3263877630233765,-9.63067626953125,1.9381062984466553,0.008517795242369175,-0.003460354171693325,0.010381062515079975
2865880077337,1.3251906633377075,-9.576807022094727,1.922544002532959,0.008783976547420025,-0.0063883461989462376,0.013309055007994175
2865881314625,1.3634978532791138,-9.627084732055664,1.9333178997039795,0.00958251953125,-0.008783976547420025,0.00692070834338665
2865882551925,1.3551181554794312,-9.645041465759277,1.9620482921600342,0.01224433071911335,-0.00958251953125,0.00692070834338665
2865883789250,1.3754688501358032,-9.636661529541016,1.9536685943603516,0.01410759799182415,-0.0063883461989462376,0.005855984054505825
2865885026550,1.3479355573654175,-9.654618263244629,1.8902223110198975,0.01224433071911335,-0.0063883461989462376,0.00692070834338665
2865886263875,1.2820950746536255,-9.647436141967773,1.922544002532959,0.00958251953125,-0.00958251953125,0.0071868896484375
2865887501187,1.313219666481018,-9.654618263244629,1.9835960865020752,0.007453070487827063,-0.0053236219100654125,0.0063883461989462376
2865888738500,1.3024457693099976,-9.65222454071045,1.9943699836730957,0.004791259765625,-0.005057440605014563,0.005855984054505825
2865889975800,1.338358759880066,-9.605537414550781,1.9357120990753174,0.01410759799182415,-0.008783976547420025,0.008251613937318325
2865891213112,1.359906554222107,-9.659406661987305,1.941697597503662,0.01410759799182415,-0.008783976547420025,0.0114457868039608
2865892450412,1.3563152551651,-9.670180320739746,1.9692308902740479,0.012510511092841625,-0.00692070834338665,0.0066545275039970875
2865893687725,1.3263877630233765,-9.62947940826416,1.9584569931030273,0.01117960549890995,-0.0090501569211483,0.00931633822619915
2865894925025,1.3096283674240112,-9.66539192199707,1.9620482921600342,0.015438503585755825,-0.00958251953125,0.01597086526453495
2865896162337,1.3467384576797485,-9.646238327026367,1.96683669090271,0.010114881210029125,-0.01224433071911335,0.010381062515079975
2865897399662,1.3180080652236938,-9.622296333312988,1.9117701053619385,0.01171196810901165,-0.010114881210029125,0.0066545275039970875
2865898636962,1.3323732614517212,-9.63187313079834,1.9692308902740479,0.01171196810901165,-0.010647243820130825,0.0063883461989462376
2865899874262,1.3467384576797485,-9.63187313079834,1.9620482921600342,0.0077192517928779125,-0.008251613937318325,0.006122165359556675
2865901111587,1.337161660194397,-9.636661529541016,1.9524714946746826,0.0066545275039970875,-0.008251613937318325,0.0063883461989462376
2865902348912,1.3539210557937622,-9.668983459472656,1.9249382019042969,0.0119781494140625,-0.0090501569211483,0.012776692397892475
2865903586200,1.3227964639663696,-9.65222454071045,1.9165585041046143,0.00984870083630085,-0.00958251953125,0.008517795242369175
2865904823525,1.3311761617660522,-9.625887870788574,1.9572598934173584,0.005057440605014563,-0.0071868896484375,0.0023956298828125
2865906060812,1.3551181554794312,-9.654618263244629,1.985990285873413,0.005589802749454975,-0.0042588976211845875,0.0029279920272529125
2865907298137,1.3000515699386597,-9.645041465759277,1.9584569931030273,0.005589802749454975,-0.005855984054505825,0.0010647244052961469
2865908535450,1.3431471586227417,-9.645041465759277,1.987187385559082,0.006122165359556675,-0.005589802749454975,0.01117960549890995
2865909772750,1.334767460823059,-9.668983459472656,1.9608511924743652,0.006122165359556675,-0.0071868896484375,0.01463996060192585
2865911010050,1.3335703611373901,-9.618705749511719,1.9620482921600342,0.003460354171693325,-0.0042588976211845875,0.0053236219100654125
2865912247362,1.3539210557937622,-9.610325813293457,1.9560627937316895,0.005855984054505825,-0.00692070834338665,0.0031941730994731188
2865913484662,1.3192051649093628,-9.59596061706543,1.944091796875,0.0066545275039970875,-0.004791259765625,0.00984870083630085
2865914722000,1.3395558595657349,-9.660603523254395,1.9189527034759521,0.0037265352439135313,-0.010114881210029125,0.00984870083630085
2865915959287,1.3239935636520386,-9.655815124511719,1.9560627937316895,0.010381062515079975,-0.004791259765625,0.00452507846057415
2865917196612,1.3287819623947144,-9.63067626953125,1.942894697189331,0.008517795242369175,-0.0063883461989462376,0.007985432632267475
2865918433925,1.3060370683670044,-9.627084732055664,1.96683669090271,0.0042588976211845875,-0.00692070834338665,0.00958251953125
2865919671225,1.3407529592514038,-9.624691009521484,1.9381062984466553,0.008517795242369175,-0.003460354171693325,0.008783976547420025
2865920908537,1.3299790620803833,-9.635464668273926,1.9596540927886963,0.0077192517928779125,-0.0077192517928779125,0.007985432632267475
2865922145837,1.3419500589370728,-9.651026725769043,1.9309237003326416,0.004791259765625,-0.00931633822619915,0.0071868896484375
2865923383150,1.3539210557937622,-9.611522674560547,1.9728221893310547,0.0066545275039970875,-0.005057440605014563,0.00984870083630085
2865924620487,1.3431471586227417,-9.636661529541016,1.96683669090271,0.0053236219100654125,-0.01117960549890995,0.01117960549890995
2865925857750,1.3706804513931274,-9.637859344482422,1.9608511924743652,0.0066545275039970875,-0.00984870083630085,0.014373779296875
2865927095075,1.3527239561080933,-9.666589736938477,1.9405004978179932,0.01224433071911335,-0.007453070487827063,0.013042873702943325
2865928332400,1.3060370683670044,-9.659406661987305,1.9800047874450684,0.007985432632267475,-0.0066545275039970875,0.0066545275039970875
2865929569700,1.313219666481018,-9.582792282104492,1.9800047874450684,0.0037265352439135313,-0.010381062515079975,0.00452507846057415
2865930807000,1.313219666481018,-9.618705749511719,1.9285295009613037,0.0077192517928779125,-0.0042588976211845875,0.008251613937318325
2865932044325,1.3503297567367554,-9.607931137084961,1.9488801956176758,0.005589802749454975,-0.0026618109550327063,0.0114457868039608
2865933281612,1.3563152551651,-9.62828254699707,1.9596540927886963,0.01117960549890995,-0.0063883461989462376,0.0114457868039608
2865934518937,1.3275848627090454,-9.623494148254395,1.9823989868164062,0.008251613937318325,-0.005057440605014563,0.014906140975654125
2865935756250,1.3287819623947144,-9.618705749511719,1.9692308902740479,0.006122165359556675,-0.007985432632267475,0.01410759799182415
2865936993550,1.314416766166687,-9.59476375579834,1.9500772953033447,0.006122165359556675,-0.008783976547420025,0.00931633822619915
2865938230850,1.3898340463638306,-9.615114212036133,1.968033790588379,0.0037265352439135313,-0.005855984054505825,0.0066545275039970875
2865939468175,1.3275848627090454,-9.599552154541016,1.9979612827301025,0.0039927163161337376,-0.0031941730994731188,0.00692070834338665
2865940705487,1.3287819623947144,-9.623494148254395,1.9381062984466553,0.00931633822619915,-0.0023956298828125,0.005589802749454975
2865941942787,1.3335703611373901,-9.623494148254395,1.9345149993896484,0.008251613937318325,-0.005589802749454975,0.0066545275039970875
2865943180087,1.3287819623947144,-9.610325813293457,1.9704279899597168,0.005589802749454975,-0.003460354171693325,0.010913425125181675
2865944417425,1.2749123573303223,-9.591172218322754,1.9692308902740479,0.004791259765625,-0.0039927163161337376,0.0090501569211483
2865945654712,1.3431471586227417,-9.613917350769043,1.946485996246338,0.0071868896484375,-0.0077192517928779125,0.007453070487827063
2865946892037,1.3419500589370728,-9.591172218322754,1.9321208000183105,0.0071868896484375,-0.0071868896484375,0.01650322787463665
2865948129350,1.3215993642807007,-9.600749015808105,1.9548656940460205,0.005589802749454975,-0.0037265352439135313,0.00931633822619915
2865949366662,1.3479355573654175,-9.607931137084961,1.964442491531372,0.005589802749454975,-0.0021294488105922937,0.00984870083630085
2865950603962,1.357512354850769,-9.617507934570312,1.9704279899597168,0.00984870083630085,-0.0053236219100654125,0.012510511092841625
2865951841275,1.3431471586227417,-9.579200744628906,1.9692308902740479,0.007985432632267475,-0.0053236219100654125,0.0138414166867733
2865953078575,1.3060370683670044,-9.615114212036133,1.9584569931030273,0.008517795242369175,-0.005855984054505825,0.006122165359556675
2865954315900,1.3443442583084106,-9.59715747833252,1.9512743949890137,0.006122165359556675,-0.0026618109550327063,0.00984870083630085
2865955553212,1.3323732614517212,-9.615114212036133,1.9728221893310547,0.0071868896484375,-0.008517795242369175,0.008251613937318325
2865956790512,1.3778630495071411,-9.635464668273926,1.9632453918457031,0.007985432632267475,-0.006122165359556675,0.003460354171693325
2865958027825,1.292868971824646,-9.59476375579834,1.9069817066192627,0.00984870083630085,-0.0063883461989462376,0.008783976547420025
2865959265112,1.3515268564224243,-9.606734275817871,1.988384485244751,0.010381062515079975,-0.0090501569211483,0.008783976547420025
2865960502437,1.3682862520217896,-9.639056205749512,1.96683669090271,0.00984870083630085,-0.0021294488105922937,0.0071868896484375
2865961739750,1.338358759880066,-9.599552154541016,1.941697597503662,0.008783976547420025,-0.0031941730994731188,0.008517795242369175
2865962977050,1.3419500589370728,-9.609128952026367,1.9500772953033447,0.0090501569211483,-0.0063883461989462376,0.008517795242369175
2865964214350,1.3431471586227417,-9.600749015808105,1.9823989868164062,0.010114881210029125,-0.0077192517928779125,0.010381062515079975
2865965451662,1.334767460823059,-9.612719535827637,1.9512743949890137,0.010913425125181675,-0.0018632676219567657,0.008251613937318325
2865966688987,1.3658920526504517,-9.633070945739746,1.9620482921600342,0.01410759799182415,-0.0063883461989462376,0.008251613937318325
2865967926300,1.3060370683670044,-9.604340553283691,1.9728221893310547,0.00958251953125,-0.0039927163161337376,0.0119781494140625
2865969163600,1.3072341680526733,-9.617507934570312,1.987187385559082,0.00931633822619915,-0.00958251953125,0.010381062515079975
2865970400925,1.337161660194397,-9.648633003234863,1.9823989868164062,0.012510511092841625,-0.008517795242369175,0.007985432632267475
2865971638250,1.3251906633377075,-9.623494148254395,1.9967641830444336,0.013309055007994175,-0.00692070834338665,0.01357523538172245
2865972875550,1.3239935636520386,-9.62828254699707,1.968033790588379,0.012510511092841625,-0.005589802749454975,0.00958251953125
2865974112850,1.3072341680526733,-9.62828254699707,1.9728221893310547,0.0071868896484375,-0.007453070487827063,0.0053236219100654125
2865975350150,1.3311761617660522,-9.634267807006836,1.9991583824157715,0.012776692397892475,-0.005589802749454975,0.0090501569211483
2865976587475,1.3611036539077759,-9.642647743225098,1.9716250896453857,0.01410759799182415,-0.00984870083630085,0.0114457868039608
2865977824775,1.3503297567367554,-9.642647743225098,1.9297266006469727,0.012510511092841625,-0.007985432632267475,0.013042873702943325
2865979062100,1.3204022645950317,-9.645041465759277,1.9907786846160889,0.014373779296875,-0.00692070834338665,0.010647243820130825
2865980299400,1.3682862520217896,-9.62828254699707,1.9800047874450684,0.01357523538172245,-0.0013309054775163531,0.008517795242369175
2865981536712,1.335964560508728,-9.62828254699707,1.9812018871307373,0.01463996060192585,-0.0039927163161337376,0.00931633822619915
2865982774025,1.3180080652236938,-9.611522674560547,1.9512743949890137,0.01117960549890995,-0.0114457868039608,0.0042588976211845875
2865984011312,1.3407529592514038,-9.59835433959961,1.9524714946746826,0.012510511092841625,-0.010913425125181675,0.00692070834338665
2865985248625,1.3479355573654175,-9.637859344482422,1.9752163887023926,0.0119781494140625,-0.0053236219100654125,0.00931633822619915
2865986485962,1.3862427473068237,-9.612719535827637,1.9608511924743652,0.010114881210029125,-0.005057440605014563,0.008783976547420025
2865987723262,1.3958195447921753,-9.62828254699707,1.9560627937316895,0.008251613937318325,-0.003460354171693325,0.006122165359556675
2865988960562,1.3443442583084106,-9.649829864501953,1.9812018871307373,0.008517795242369175,-0.005855984054505825,0.0023956298828125
2865990197875,1.3419500589370728,-9.645041465759277,1.98958158493042,0.01703559048473835,-0.0071868896484375,0.0066545275039970875
2865991435187,1.3180080652236938,-9.65222454071045,1.9369091987609863,0.01357523538172245,-0.003460354171693325,0.00692070834338665
2865992672500,1.3467384576797485,-9.615114212036133,1.9381062984466553,0.012776692397892475,-0.003460354171693325,0.00452507846057415
2865993909800,1.3084312677383423,-9.66539192199707,1.9931728839874268,0.012510511092841625,-0.008517795242369175,0.005855984054505825
2865995147100,1.3251906633377075,-9.647436141967773,1.964442491531372,0.01650322787463665,-0.00931633822619915,0.006122165359556675
2865996384412,1.3084312677383423,-9.617507934570312,1.9536685943603516,0.01410759799182415,-0.008517795242369175,0.004791259765625
2865997621725,1.3060370683670044,-9.683348655700684,1.9955670833587646,0.01171196810901165,-0.0053236219100654125,0.00452507846057415
2865998859050,1.3204022645950317,-9.674968719482422,1.9728221893310547,0.0119781494140625,-0.0037265352439135313,0.005589802749454975
2866000096337,1.3180080652236938,-9.65222454071045,1.9488801956176758,0.01410759799182415,-0.006122165359556675,0.00692070834338665
2866001333662,1.290474772453308,-9.640253067016602,1.9847931861877441,0.0119781494140625,-0.006122165359556675,0.010114881210029125
2866002570962,1.3323732614517212,-9.636661529541016,1.9716250896453857,0.01463996060192585,-0.010647243820130825,0.0090501569211483
2866003808275,1.3323732614517212,-9.651026725769043,1.9716250896453857,0.0173017717897892,-0.005855984054505825,0.0071868896484375
2866005045587,1.3479355573654175,-9.658209800720215,1.9847931861877441,0.0162370465695858,-0.0077192517928779125,0.005057440605014563
2866006282900,1.314416766166687,-9.668983459472656,1.9728221893310547,0.010913425125181675,-0.005855984054505825,0.00931633822619915
2866007520187,1.292868971824646,-9.647436141967773,1.9381062984466553,0.0119781494140625,-0.0042588976211845875,0.01117960549890995
2866008757525,1.315613865852356,-9.65222454071045,1.965639591217041,0.012776692397892475,-0.00931633822619915,0.008783976547420025
2866009994825,1.3036428689956665,-9.633070945739746,2.0195090770721436,0.0162370465695858,-0.00984870083630085,0.00692070834338665
2866011232137,1.3323732614517212,-9.659406661987305,1.987187385559082,0.0167694091796875,-0.006122165359556675,0.005855984054505825
2866012469437,1.3275848627090454,-9.677363395690918,1.9596540927886963,0.0138414166867733,-0.0037265352439135313,0.010114881210029125
2866013706762,1.3263877630233765,-9.655815124511719,2.0027496814727783,0.0167694091796875,-0.0026618109550327063,0.00984870083630085
2866014944087,1.3108254671096802,-9.674968719482422,2.0003554821014404,0.0157046839594841,-0.005589802749454975,0.0090501569211483
2866016181375,1.290474772453308,-9.643844604492188,1.968033790588379,0.01783413253724575,-0.0053236219100654125,0.012510511092841625
2866017418675,1.3299790620803833,-9.619902610778809,2.013523578643799,0.012776692397892475,-0.0077192517928779125,0.0119781494140625
2866018655987,1.3192051649093628,-9.62947940826416,1.9704279899597168,0.013309055007994175,-0.007985432632267475,0.0090501569211483
2866019893287,1.314416766166687,-9.660603523254395,1.988384485244751,0.012510511092841625,-0.012510511092841625,0.007985432632267475
2866021130600,1.315613865852356,-9.611522674560547,1.9931728839874268,0.0138414166867733,-0.007453070487827063,0.00931633822619915
2866022367900,1.358709454536438,-9.646238327026367,1.9800047874450684,0.007453070487827063,-0.0031941730994731188,0.008251613937318325
2866023605225,1.3395558595657349,-9.657012939453125,1.985990285873413,0.014906140975654125,-0.0039927163161337376,0.007985432632267475
2866024842550,1.314416766166687,-9.610325813293457,2.006340980529785,0.014373779296875,-0.005855984054505825,0.010114881210029125
2866026079850,1.3503297567367554,-9.646238327026367,1.9931728839874268,0.0114457868039608,-0.00452507846057415,0.008517795242369175
2866027317175,1.3263877630233765,-9.678560256958008,1.9596540927886963,0.00958251953125,-0.005589802749454975,0.0066545275039970875
2866028554462,1.2988544702529907,-9.624691009521484,1.9536685943603516,0.01117960549890995,-0.0007985432748682797,0.008783976547420025
2866029791775,1.2892776727676392,-9.624691009521484,1.9907786846160889,0.01357523538172245,0.0002661811013240367,0.010913425125181675
2866031029087,1.338358759880066,-9.659406661987305,1.987187385559082,0.01224433071911335,-0.004791259765625,0.00692070834338665
2866032266400,1.337161660194397,-9.658209800720215,1.9584569931030273,0.0090501569211483,-0.0037265352439135313,0.0037265352439135313
2866033503700,1.3539210557937622,-9.6618013381958,2.01232647895813,0.010114881210029125,0.0005323622026480734,0.0071868896484375
2866034741025,1.3120225667953491,-9.655815124511719,1.96683669090271,0.0119781494140625,0.0,0.005589802749454975
2866035978325,1.335964560508728,-9.63067626953125,2.032677173614502,0.015172322280704975,-0.005855984054505825,0.00984870083630085
2866037215637,1.3479355573654175,-9.62947940826416,2.009932279586792,0.01224433071911335,-0.0053236219100654125,0.007453070487827063
2866038452962,1.3275848627090454,-9.657012939453125,1.968033790588379,0.00958251953125,-0.0015970865497365594,0.006122165359556675
2866039690250,1.3419500589370728,-9.636661529541016,2.0027496814727783,0.007985432632267475,-0.0037265352439135313,0.008251613937318325
2866040927562,1.3215993642807007,-9.653421401977539,1.9692308902740479,0.010114881210029125,0.005057440605014563,0.0071868896484375
2866042164875,1.3036428689956665,-9.640253067016602,1.985990285873413,0.00984870083630085,0.0010647244052961469,0.0063883461989462376
2866043402175,1.2701239585876465,-9.612719535827637,1.98958158493042,0.0114457868039608,-0.0018632676219567657,0.0071868896484375
2866044639487,1.3239935636520386,-9.647436141967773,2.0254945755004883,0.012510511092841625,-0.0031941730994731188,0.0039927163161337376
2866045876800,1.3527239561080933,-9.634267807006836,1.9405004978179932,0.00692070834338665,-0.0042588976211845875,0.004791259765625
2866047114125,1.357512354850769,-9.648633003234863,1.9584569931030273,0.008517795242369175,-0.0013309054775163531,0.003460354171693325
2866048351425,1.3335703611373901,-9.62828254699707,1.96683669090271,0.00931633822619915,-0.0013309054775163531,0.004791259765625
2866049588737,1.3299790620803833,-9.666589736938477,1.9788076877593994,0.0071868896484375,-0.0013309054775163531,0.010114881210029125
2866050826050,1.2952631711959839,-9.649829864501953,1.9333178997039795,0.00984870083630085,-0.0042588976211845875,0.008783976547420025
2866052063350,1.3227964639663696,-9.655815124511719,1.9967641830444336,0.005057440605014563,-0.0026618109550327063,0.0023956298828125
2866053300662,1.3742717504501343,-9.63187313079834,1.965639591217041,0.0077192517928779125,0.0018632676219567657,0.00452507846057415
2866054537962,1.3275848627090454,-9.637859344482422,1.9620482921600342,0.0114457868039608,-0.0042588976211845875,0.003460354171693325
2866055775287,1.3036428689956665,-9.646238327026367,1.9800047874450684,0.007453070487827063,-0.0007985432748682797,0.0023956298828125
2866057012600,1.314416766166687,-9.647436141967773,1.9823989868164062,0.0066545275039970875,0.0013309054775163531,0.0026618109550327063
2866058249900,1.3323732614517212,-9.636661529541016,1.9632453918457031,0.00452507846057415,0.0005323622026480734,0.00452507846057415
2866059487225,1.334767460823059,-9.633070945739746,1.9800047874450684,0.0021294488105922937,0.0007985432748682797,0.0015970865497365594
2866060724525,1.3251906633377075,-9.627084732055664,1.9704279899597168,0.0053236219100654125,-0.0021294488105922937,0.004791259765625
2866061961850,1.315613865852356,-9.623494148254395,2.0039467811584473,0.0029279920272529125,-0.00452507846057415,0.0015970865497365594
2866063199125,1.3263877630233765,-9.611522674560547,1.988384485244751,0.00692070834338665,0.0026618109550327063,0.0029279920272529125
2866064436437,1.3479355573654175,-9.627084732055664,1.9572598934173584,0.003460354171693325,0.0013309054775163531,0.0042588976211845875
2866065673762,1.335964560508728,-9.641449928283691,1.9752163887023926,0.005855984054505825,-0.0010647244052961469,0.0042588976211845875
2866066911075,1.3407529592514038,-9.649829864501953,1.9740192890167236,0.0077192517928779125,-0.0015970865497365594,0.0010647244052961469
2866068148375,1.3658920526504517,-9.627084732055664,1.9967641830444336,0.005057440605014563,-0.006122165359556675,0.003460354171693325
2866069385675,1.3096283674240112,-9.647436141967773,1.965639591217041,0.008517795242369175,-0.0018632676219567657,0.004791259765625
2866070623000,1.3060370683670044,-9.63187313079834,1.9919757843017578,0.007985432632267475,-0.0002661811013240367,0.00692070834338665
2866071860300,1.3311761617660522,-9.616311073303223,1.9776105880737305,0.004791259765625,0.0029279920272529125,-0.0021294488105922937
2866073097612,1.3275848627090454,-9.634267807006836,1.9740192890167236,0.007985432632267475,0.0,-0.0026618109550327063
2866074334937,1.294066071510315,-9.636661529541016,2.013523578643799,0.00931633822619915,-0.0023956298828125,0.0015970865497365594
2866075572237,1.3287819623947144,-9.641449928283691,1.9776105880737305,0.0031941730994731188,-0.00452507846057415,-0.0013309054775163531
2866076809537,1.3658920526504517,-9.653421401977539,1.9584569931030273,0.007453070487827063,-0.0031941730994731188,0.0018632676219567657
2866078046850,1.3407529592514038,-9.623494148254395,1.988384485244751,0.005855984054505825,-0.0013309054775163531,-0.0010647244052961469
2866079284162,1.337161660194397,-9.640253067016602,1.96683669090271,0.003460354171693325,-0.0029279920272529125,-0.0021294488105922937
2866080521475,1.3263877630233765,-9.63067626953125,2.0003554821014404,0.005057440605014563,0.0015970865497365594,0.0002661811013240367
2866081758787,1.3275848627090454,-9.654618263244629,1.9812018871307373,0.0053236219100654125,-0.0002661811013240367,0.0
2866082996100,1.338358759880066,-9.68574333190918,1.9823989868164062,0.0039927163161337376,-0.004791259765625,0.0023956298828125
2866084233412,1.3623007535934448,-9.657012939453125,1.9835960865020752,0.00452507846057415,-0.0007985432748682797,0.0015970865497365594
2866085470712,1.3263877630233765,-9.672574996948242,1.9931728839874268,0.0042588976211845875,0.0007985432748682797,0.0029279920272529125
2866086708025,1.3335703611373901,-9.63067626953125,1.9800047874450684,0.01357523538172245,-0.0002661811013240367,0.005589802749454975
2866087945337,1.3072341680526733,-9.657012939453125,1.9752163887023926,0.00931633822619915,-0.0013309054775163531,0.0015970865497365594
2866089182650,1.3299790620803833,-9.610325813293457,1.9764134883880615,0.0039927163161337376,-0.0007985432748682797,-0.0037265352439135313
2866090419962,1.3263877630233765,-9.625887870788574,1.9991583824157715,0.0071868896484375,0.0002661811013240367,0.0010647244052961469
2866091657262,1.3491326570510864,-9.634267807006836,1.968033790588379,0.0042588976211845875,0.003460354171693325,0.0026618109550327063
2866092894575,1.3646949529647827,-9.615114212036133,1.9823989868164062,0.0007985432748682797,-0.0018632676219567657,0.0031941730994731188
2866094131875,1.3419500589370728,-9.634267807006836,1.9369091987609863,0.0002661811013240367,-0.0026618109550327063,0.00452507846057415
2866095369200,1.3299790620803833,-9.641449928283691,1.9943699836730957,0.008251613937318325,0.0013309054775163531,0.004791259765625
2866096606525,1.3706804513931274,-9.653421401977539,1.96683669090271,0.0031941730994731188,-0.0026618109550327063,0.004791259765625
2866097843800,1.3251906633377075,-9.634267807006836,1.9548656940460205,-0.0026618109550327063,0.0021294488105922937,0.0
2866099081112,1.3299790620803833,-9.622296333312988,1.9752163887023926,0.0023956298828125,-0.0010647244052961469,0.0010647244052961469
2866100318412,1.335964560508728,-9.646238327026367,1.9931728839874268,0.003460354171693325,-0.0026618109550327063,0.003460354171693325
2866101555725,1.3503297567367554,-9.617507934570312,1.985990285873413,0.0039927163161337376,-0.0005323622026480734,-0.0013309054775163531
2866102793037,1.3000515699386597,-9.623494148254395,1.968033790588379,0.0071868896484375,-0.0018632676219567657,0.0026618109550327063
2866104030375,1.3204022645950317,-9.613917350769043,2.032677173614502,0.0053236219100654125,-0.0018632676219567657,0.010647243820130825
2866105267687,1.3311761617660522,-9.658209800720215,1.9548656940460205,0.0039927163161337376,-0.0023956298828125,0.0039927163161337376
2866106504987,1.3527239561080933,-9.659406661987305,1.9931728839874268,0.0039927163161337376,-0.0002661811013240367,0.0005323622026480734
2866107742300,1.3239935636520386,-9.627084732055664,2.0183119773864746,0.0077192517928779125,-0.0031941730994731188,0.00452507846057415
2866108979600,1.2988544702529907,-9.624691009521484,1.9991583824157715,0.0071868896484375,-0.0002661811013240367,0.005855984054505825
2866110216900,1.3084312677383423,-9.62828254699707,2.0003554821014404,0.0010647244052961469,0.0005323622026480734,0.0018632676219567657
2866111454225,1.3611036539077759,-9.641449928283691,2.013523578643799,0.010913425125181675,0.0010647244052961469,0.005855984054505825
2866112691525,1.381454348564148,-9.648633003234863,1.964442491531372,0.008783976547420025,-0.00452507846057415,0.0053236219100654125
2866113928837,1.3287819623947144,-9.615114212036133,2.0183119773864746,0.005589802749454975,-0.0063883461989462376,0.004791259765625
2866115166162,1.3192051649093628,-9.622296333312988,2.0147206783294678,0.0037265352439135313,-0.005589802749454975,0.004791259765625
2866116403462,1.3527239561080933,-9.633070945739746,1.9716250896453857,0.0007985432748682797,-0.0013309054775163531,0.005057440605014563
2866117640787,1.3335703611373901,-9.641449928283691,1.985990285873413,0.005589802749454975,-0.0015970865497365594,0.0063883461989462376
2866118878075,1.2808979749679565,-9.63067626953125,1.9943699836730957,0.0071868896484375,-0.00452507846057415,0.006122165359556675
2866120115387,1.2677297592163086,-9.648633003234863,1.9596540927886963,0.005057440605014563,0.0029279920272529125,0.00692070834338665
2866121352712,1.3395558595657349,-9.657012939453125,1.964442491531372,0.007985432632267475,0.0023956298828125,0.005855984054505825
2866122590000,1.3275848627090454,-9.621099472045898,1.9752163887023926,0.0071868896484375,0.003460354171693325,0.0063883461989462376
2866123827350,1.3287819623947144,-9.6618013381958,2.005143880844116,0.0066545275039970875,-0.0007985432748682797,0.0071868896484375
2866125064625,1.3263877630233765,-9.66299819946289,1.9560627937316895,0.008251613937318325,-0.0066545275039970875,0.007453070487827063
2866126301937,1.3503297567367554,-9.660603523254395,1.9357120990753174,0.008517795242369175,-0.00452507846057415,0.013042873702943325
2866127539262,1.37906014919281,-9.639056205749512,1.9524714946746826,0.0023956298828125,-0.0039927163161337376,0.010114881210029125
2866128776562,1.3000515699386597,-9.666589736938477,1.9728221893310547,0.0029279920272529125,-0.0015970865497365594,0.008783976547420025
2866130013875,1.3060370683670044,-9.684545516967773,1.96683669090271,0.004791259765625,0.0015970865497365594,0.007453070487827063
2866131251187,1.3072341680526733,-9.692925453186035,1.9740192890167236,-0.0013309054775163531,0.0015970865497365594,0.00692070834338665
2866132488475,1.3299790620803833,-9.636661529541016,1.9740192890167236,0.0037265352439135313,0.0005323622026480734,0.0039927163161337376
2866133725800,1.3239935636520386,-9.674968719482422,2.006340980529785,0.006122165359556675,0.0031941730994731188,0.0090501569211483
2866134963112,1.3120225667953491,-9.676166534423828,2.0027496814727783,0.005057440605014563,0.0029279920272529125,0.010647243820130825
2866136200412,1.292868971824646,-9.640253067016602,2.0147206783294678,0.0063883461989462376,-0.0029279920272529125,0.00452507846057415
2866137437725,1.335964560508728,-9.633070945739746,1.96683669090271,0.003460354171693325,-0.0031941730994731188,0.00958251953125
2866138675062,1.357512354850769,-9.651026725769043,1.9381062984466553,0.005589802749454975,0.0015970865497365594,0.015172322280704975
2866139912362,1.3239935636520386,-9.641449928283691,1.98958158493042,0.003460354171693325,-0.0002661811013240367,0.008783976547420025
2866141149662,1.2964602708816528,-9.619902610778809,1.9788076877593994,-0.0023956298828125,0.0015970865497365594,0.0114457868039608
2866142386962,1.3287819623947144,-9.634267807006836,1.9321208000183105,-0.0002661811013240367,-0.0031941730994731188,0.0119781494140625
2866143624287,1.315613865852356,-9.63187313079834,1.9752163887023926,0.004791259765625,-0.0013309054775163531,0.012776692397892475
2866144861587,1.3491326570510864,-9.610325813293457,1.9919757843017578,0.0042588976211845875,-0.0042588976211845875,0.0071868896484375
2866146098912,1.3060370683670044,-9.601945877075195,1.9919757843017578,-0.005589802749454975,0.0010647244052961469,0.008783976547420025
2866147336200,1.358709454536438,-9.586383819580078,1.9500772953033447,-0.0053236219100654125,-0.0002661811013240367,0.0138414166867733
2866148573537,1.3455413579940796,-9.606734275817871,1.9584569931030273,0.0002661811013240367,-0.0007985432748682797,0.006122165359556675
2866149810837,1.3024457693099976,-9.635464668273926,1.944091796875,0.0021294488105922937,0.005057440605014563,0.0015970865497365594
2866151048125,1.334767460823059,-9.641449928283691,2.0027496814727783,0.006122165359556675,0.0063883461989462376,0.0063883461989462376
2866152285462,1.358709454536438,-9.610325813293457,1.9620482921600342,-0.0007985432748682797,0.0039927163161337376,0.0071868896484375
2866153522750,1.3467384576797485,-9.617507934570312,1.9764134883880615,-0.0039927163161337376,0.0018632676219567657,0.00958251953125
2866154760075,1.3455413579940796,-9.621099472045898,2.0027496814727783,0.0,-0.0021294488105922937,0.007985432632267475
2866155997375,1.3646949529647827,-9.604340553283691,1.9704279899597168,0.0039927163161337376,0.0010647244052961469,0.008783976547420025
2866157234687,1.3503297567367554,-9.63067626953125,1.9752163887023926,0.0023956298828125,-0.0021294488105922937,0.007453070487827063
2866158472000,1.3215993642807007,-9.613917350769043,1.9381062984466553,0.0002661811013240367,-0.0002661811013240367,0.004791259765625
2866159709300,1.3431471586227417,-9.610325813293457,1.9764134883880615,0.0013309054775163531,0.0002661811013240367,0.0063883461989462376
2866160946637,1.3275848627090454,-9.613917350769043,2.009932279586792,0.0037265352439135313,0.0026618109550327063,0.0071868896484375
2866162183912,1.3443442583084106,-9.59596061706543,1.9931728839874268,-0.0010647244052961469,0.0026618109550327063,0.00931633822619915
2866163421250,1.3467384576797485,-9.59835433959961,1.9560627937316895,-0.0021294488105922937,-0.0015970865497365594,0.008251613937318325
2866164658550,1.2713210582733154,-9.639056205749512,1.985990285873413,0.0,0.00692070834338665,0.006122165359556675
2866165895862,1.3048399686813354,-9.611522674560547,1.9752163887023926,0.0026618109550327063,0.0015970865497365594,0.008251613937318325
2866167133187,1.3036428689956665,-9.666589736938477,1.946485996246338,0.0007985432748682797,0.0,0.008517795242369175
2866168370487,1.3311761617660522,-9.639056205749512,1.9632453918457031,0.003460354171693325,0.0018632676219567657,0.0031941730994731188
2866169607800,1.3323732614517212,-9.623494148254395,1.9716250896453857,-0.0007985432748682797,-0.0013309054775163531,0.006122165359556675
2866170845087,1.357512354850769,-9.627084732055664,1.988384485244751,0.0053236219100654125,-0.0002661811013240367,0.010647243820130825
2866172082400,1.3634978532791138,-9.59835433959961,1.9584569931030273,0.0021294488105922937,-0.0031941730994731188,0.00931633822619915
2866173319712,1.3299790620803833,-9.648633003234863,1.9704279899597168,-0.0023956298828125,0.0039927163161337376,0.0015970865497365594
2866174557037,1.3180080652236938,-9.642647743225098,1.985990285873413,0.003460354171693325,-0.0010647244052961469,0.0026618109550327063
2866175794337,1.3323732614517212,-9.63187313079834,2.007538080215454,0.005057440605014563,-0.0013309054775163531,0.0053236219100654125
2866177031650,1.3455413579940796,-9.659406661987305,2.0147206783294678,0.0029279920272529125,0.0002661811013240367,0.0015970865497365594
2866178268962,1.3551181554794312,-9.622296333312988,1.9847931861877441,0.0042588976211845875,-0.0013309054775163531,-0.0007985432748682797
2866179506262,1.3299790620803833,-9.649829864501953,1.9800047874450684,-0.0021294488105922937,0.0031941730994731188,0.004791259765625
2866180743575,1.381454348564148,-9.623494148254395,1.9812018871307373,0.0015970865497365594,-0.0010647244052961469,0.0010647244052961469
2866181980900,1.359906554222107,-9.625887870788574,1.9800047874450684,0.005589802749454975,-0.0015970865497365594,0.0053236219100654125
2866183218212,1.3706804513931274,-9.605537414550781,1.9321208000183105,0.0039927163161337376,-0.0023956298828125,0.00931633822619915
2866184455512,1.3766659498214722,-9.604340553283691,1.941697597503662,0.0007985432748682797,-0.0015970865497365594,0.005057440605014563
2866185692825,1.3862427473068237,-9.603142738342285,1.9716250896453857,-0.0010647244052961469,-0.0013309054775163531,0.00984870083630085
2866186930125,1.3623007535934448,-9.63187313079834,1.9393033981323242,0.0010647244052961469,-0.0021294488105922937,0.0037265352439135313
2866188167437,1.337161660194397,-9.603142738342285,1.9608511924743652,0.0015970865497365594,-0.0037265352439135313,-0.0010647244052961469
2866189404750,1.316810965538025,-9.619902610778809,1.9381062984466553,-0.0013309054775163531,0.0015970865497365594,0.0010647244052961469
2866190642050,1.3204022645950317,-9.660603523254395,1.9632453918457031,-0.0015970865497365594,0.0010647244052961469,0.005057440605014563
2866191879362,1.3096283674240112,-9.642647743225098,1.968033790588379,0.0037265352439135313,0.0002661811013240367,0.008251613937318325
2866193116687,1.3515268564224243,-9.65222454071045,2.0207061767578125,0.0026618109550327063,-0.0007985432748682797,0.0037265352439135313
2866194354000,1.3515268564224243,-9.634267807006836,1.9943699836730957,-0.0005323622026480734,-0.0031941730994731188,-0.0010647244052961469
2866195591300,1.3682862520217896,-9.612719535827637,1.944091796875,0.005589802749454975,-0.0021294488105922937,0.0021294488105922937
2866196828625,1.3623007535934448,-9.627084732055664,1.9704279899597168,0.0031941730994731188,-0.0005323622026480734,0.0002661811013240367
2866198065912,1.3263877630233765,-9.66539192199707,1.9823989868164062,0.0031941730994731188,0.0023956298828125,0.0005323622026480734
2866199303250,1.3503297567367554,-9.655815124511719,2.0027496814727783,0.00452507846057415,0.0018632676219567657,-0.0007985432748682797
2866200540550,1.313219666481018,-9.65222454071045,2.0195090770721436,0.0031941730994731188,0.0018632676219567657,0.0
2866201777850,1.3335703611373901,-9.667786598205566,1.9716250896453857,0.0018632676219567657,0.0023956298828125,0.004791259765625
2866203015162,1.3527239561080933,-9.639056205749512,1.9907786846160889,0.0018632676219567657,-0.004791259765625,0.0037265352439135313
2866204252475,1.2988544702529907,-9.633070945739746,2.0171148777008057,0.003460354171693325,-0.004791259765625,0.0007985432748682797
2866205489787,1.3275848627090454,-9.651026725769043,1.9548656940460205,0.0023956298828125,0.0002661811013240367,0.0015970865497365594
2866206727100,1.358709454536438,-9.636661529541016,2.0242974758148193,0.0013309054775163531,-0.0026618109550327063,0.0029279920272529125
2866207964400,1.3299790620803833,-9.649829864501953,1.985990285873413,-0.0031941730994731188,-0.0021294488105922937,0.0031941730994731188
2866209201712,1.3395558595657349,-9.640253067016602,1.9752163887023926,-0.0015970865497365594,-0.0007985432748682797,0.0023956298828125
2866210439025,1.3730746507644653,-9.586383819580078,1.9752163887023926,0.0005323622026480734,-0.0005323622026480734,0.0026618109550327063
2866211676337,1.3479355573654175,-9.59835433959961,1.9728221893310547,0.005057440605014563,0.0005323622026480734,0.0031941730994731188
2866212913650,1.3551181554794312,-9.62828254699707,1.965639591217041,0.006122165359556675,-0.0013309054775163531,0.0013309054775163531
2866214150962,1.3766659498214722,-9.57441234588623,1.9488801956176758,0.0005323622026480734,0.0010647244052961469,-0.0021294488105922937
2866215388250,1.3563152551651,-9.609128952026367,1.9764134883880615,0.0015970865497365594,0.0015970865497365594,0.0013309054775163531
2866216625562,1.3479355573654175,-9.56124496459961,1.9512743949890137,0.0026618109550327063,-0.0018632676219567657,0.0053236219100654125
2866217862875,1.3551181554794312,-9.63067626953125,1.964442491531372,0.0007985432748682797,-0.0005323622026480734,0.0007985432748682797
2866219100187,1.337161660194397,-9.63187313079834,1.9776105880737305,0.0007985432748682797,-0.0010647244052961469,-0.0042588976211845875
2866220337512,1.3443442583084106,-9.616311073303223,1.9764134883880615,0.0042588976211845875,0.0,0.0015970865497365594
2866221574812,1.3275848627090454,-9.591172218322754,1.9835960865020752,0.0002661811013240367,0.0013309054775163531,-0.0005323622026480734
2866222812125,1.3491326570510864,-9.59476375579834,2.0003554821014404,0.0013309054775163531,0.005057440605014563,0.0026618109550327063
2866224049425,1.3275848627090454,-9.589975357055664,1.9991583824157715,0.0023956298828125,0.0018632676219567657,0.0007985432748682797
2866225286737,1.3778630495071411,-9.600749015808105,1.945288896560669,0.0,0.0002661811013240367,0.004791259765625
2866226524050,1.4101848602294922,-9.62828254699707,1.9788076877593994,0.0031941730994731188,-0.0013309054775163531,0.0063883461989462376
2866227761362,1.3227964639663696,-9.59476375579834,1.968033790588379,0.0010647244052961469,-0.005057440605014563,0.003460354171693325
2866228998675,1.3443442583084106,-9.616311073303223,1.9093759059906006,0.005589802749454975,-0.0026618109550327063,0.0013309054775163531
2866230235987,1.357512354850769,-9.627084732055664,1.9800047874450684,0.0031941730994731188,0.0013309054775163531,0.003460354171693325
2866231473300,1.3551181554794312,-9.618705749511719,1.9632453918457031,0.005589802749454975,0.0,0.0039927163161337376
2866232710587,1.3419500589370728,-9.610325813293457,1.9321208000183105,0.005855984054505825,-0.0018632676219567657,0.005855984054505825
2866233947900,1.3251906633377075,-9.624691009521484,1.9548656940460205,0.0026618109550327063,0.0031941730994731188,0.0029279920272529125
2866235185212,1.3287819623947144,-9.619902610778809,1.988384485244751,0.005589802749454975,0.0023956298828125,0.003460354171693325
2866236422537,1.3443442583084106,-9.670180320739746,1.9835960865020752,0.00931633822619915,-0.0026618109550327063,0.00692070834338665
2866237659850,1.3215993642807007,-9.625887870788574,1.9907786846160889,0.010381062515079975,-0.0037265352439135313,0.00931633822619915
2866238897150,1.3539210557937622,-9.604340553283691,2.011129379272461,0.00958251953125,-0.0015970865497365594,0.007985432632267475
2866240134462,1.3515268564224243,-9.62828254699707,1.9596540927886963,0.003460354171693325,0.00452507846057415,0.0039927163161337376
2866241371787,1.337161660194397,-9.621099472045898,1.9153614044189453,0.0071868896484375,-0.0037265352439135313,0.005855984054505825
2866242609075,1.3204022645950317,-9.63067626953125,1.9823989868164062,0.0071868896484375,-0.0021294488105922937,0.005589802749454975
2866243846400,1.338358759880066,-9.654618263244629,1.9979612827301025,0.010913425125181675,-0.0013309054775163531,0.007453070487827063
2866245083687,1.381454348564148,-9.672574996948242,2.013523578643799,0.005589802749454975,-0.005855984054505825,0.0090501569211483
2866246321025,1.3251906633377075,-9.668983459472656,1.9823989868164062,0.00692070834338665,-0.0053236219100654125,0.007453070487827063
2866247558325,1.3239935636520386,-9.66539192199707,1.9823989868164062,0.010381062515079975,-0.005855984054505825,0.007453070487827063
2866248795637,1.3120225667953491,-9.655815124511719,1.9488801956176758,0.010647243820130825,-0.0018632676219567657,0.014373779296875
2866250032950,1.359906554222107,-9.637859344482422,1.9476830959320068,0.006122165359556675,-0.0031941730994731188,0.014373779296875
2866251270237,1.3670891523361206,-9.66419506072998,1.965639591217041,0.0063883461989462376,-0.0053236219100654125,0.00692070834338665
2866252507562,1.337161660194397,-9.649829864501953,1.9620482921600342,0.008783976547420025,-0.0031941730994731188,0.008783976547420025
2866253744875,1.3634978532791138,-9.648633003234863,1.9572598934173584,0.0023956298828125,0.0018632676219567657,0.00452507846057415
2866254982175,1.3646949529647827,-9.637859344482422,1.9405004978179932,0.0039927163161337376,0.0007985432748682797,0.005589802749454975
2866256219487,1.3838485479354858,-9.6618013381958,2.011129379272461,0.00692070834338665,-0.005057440605014563,0.010114881210029125
2866257456800,1.3431471586227417,-9.607931137084961,1.9967641830444336,0.00931633822619915,-0.003460354171693325,0.008251613937318325
2866258694125,1.3515268564224243,-9.647436141967773,1.964442491531372,0.008783976547420025,-0.00692070834338665,0.01224433071911335
2866259931425,1.3646949529647827,-9.622296333312988,1.9764134883880615,0.0026618109550327063,-0.0013309054775163531,0.0181003138422966
2866261168725,1.359906554222107,-9.63067626953125,1.944091796875,0.0053236219100654125,-0.0002661811013240367,0.0119781494140625
2866262406050,1.37906014919281,-9.601945877075195,1.98958158493042,0.0,-0.0010647244052961469,0.007985432632267475
2866263643362,1.3443442583084106,-9.59596061706543,1.98958158493042,0.0018632676219567657,-0.0066545275039970875,0.00984870083630085
2866264880675,1.3299790620803833,-9.645041465759277,1.9776105880737305,0.01171196810901165,-0.005589802749454975,0.014906140975654125
2866266117962,1.4018051624298096,-9.59596061706543,1.9967641830444336,0.005589802749454975,0.0018632676219567657,0.00931633822619915
2866267355300,1.3623007535934448,-9.609128952026367,1.9728221893310547,0.0066545275039970875,-0.00692070834338665,0.010114881210029125
2866268592587,1.359906554222107,-9.611522674560547,1.9596540927886963,0.014906140975654125,-0.006122165359556675,0.012510511092841625
2866269829937,1.334767460823059,-9.673771858215332,1.9835960865020752,0.00958251953125,-0.0023956298828125,0.010913425125181675
2866271067237,1.3527239561080933,-9.63067626953125,1.98958158493042,0.0042588976211845875,-0.0023956298828125,0.007985432632267475
2866272304537,1.3730746507644653,-9.609128952026367,1.9967641830444336,0.005855984054505825,-0.0026618109550327063,0.00958251953125
2866273541837,1.334767460823059,-9.592369079589844,1.968033790588379,0.00692070834338665,-0.0042588976211845875,0.012510511092841625
2866274779175,1.3658920526504517,-9.578003883361816,1.9847931861877441,0.008783976547420025,-0.005855984054505825,0.010114881210029125
2866276016475,1.3503297567367554,-9.560047149658203,2.0446481704711914,0.005589802749454975,0.0021294488105922937,0.01410759799182415
2866277253787,1.315613865852356,-9.609128952026367,2.008735179901123,0.01117960549890995,-0.0002661811013240367,0.013042873702943325
2866278491087,1.3227964639663696,-9.613917350769043,2.0398597717285156,0.01224433071911335,-0.0037265352439135313,0.01463996060192585
2866279728400,1.3730746507644653,-9.585186958312988,2.006340980529785,0.01410759799182415,-0.00692070834338665,0.01650322787463665
2866280965700,1.3491326570510864,-9.563638687133789,1.9740192890167236,0.01117960549890995,-0.0053236219100654125,0.0119781494140625
2866282203025,1.3515268564224243,-9.526528358459473,1.9393033981323242,0.01410759799182415,-0.00692070834338665,0.01224433071911335
2866283440350,1.3443442583084106,-9.536105155944824,1.9835960865020752,0.015172322280704975,-0.00692070834338665,0.008783976547420025
2866284677625,1.3311761617660522,-9.555258750915527,2.033874273300171,0.014373779296875,-0.005589802749454975,0.01357523538172245
2866285914937,1.3299790620803833,-9.546879768371582,2.0195090770721436,0.007453070487827063,-0.00452507846057415,0.0138414166867733
2866287152250,1.3311761617660522,-9.579200744628906,2.0039467811584473,0.013309055007994175,-0.0053236219100654125,0.0138414166867733
2866288389562,1.3419500589370728,-9.536105155944824,2.006340980529785,0.013042873702943325,-0.0053236219100654125,0.01597086526453495
2866289626887,1.3694833517074585,-9.554061889648438,1.9776105880737305,0.01224433071911335,-0.006122165359556675,0.01650322787463665
2866290864175,1.3850456476211548,-9.554061889648438,1.9800047874450684,0.01650322787463665,-0.0031941730994731188,0.010913425125181675
2866292101487,1.3563152551651,-9.575610160827637,1.9955670833587646,0.01463996060192585,-0.0018632676219567657,0.010913425125181675
2866293338800,1.3180080652236938,-9.566033363342285,1.9919757843017578,0.0157046839594841,-0.0063883461989462376,0.0162370465695858
2866294576100,1.2808979749679565,-9.567230224609375,2.011129379272461,0.01650322787463665,-0.0042588976211845875,0.02129448764026165
2866295813425,1.3323732614517212,-9.580398559570312,1.9931728839874268,0.0181003138422966,-0.00692070834338665,0.0167694091796875
2866297050737,1.3467384576797485,-9.582792282104492,1.98958158493042,0.01597086526453495,-0.005057440605014563,0.014373779296875
2866298288050,1.3455413579940796,-9.585186958312988,1.9620482921600342,0.01410759799182415,-0.0039927163161337376,0.015438503585755825
2866299525375,1.3718775510787964,-9.612719535827637,1.964442491531372,0.0162370465695858,-0.005057440605014563,0.01996358297765255
2866300762662,1.3419500589370728,-9.607931137084961,1.9476830959320068,0.01836649514734745,-0.0090501569211483,0.02022976242005825
2866301999975,1.3611036539077759,-9.62828254699707,1.9488801956176758,0.0181003138422966,-0.010913425125181675,0.0191650390625
2866303237312,1.3407529592514038,-9.63187313079834,1.9716250896453857,0.01410759799182415,-0.010114881210029125,0.0181003138422966
2866304474600,1.3742717504501343,-9.658209800720215,1.9812018871307373,0.013042873702943325,-0.0077192517928779125,0.0228915736079216
2866305711925,1.358709454536438,-9.612719535827637,1.9979612827301025,0.015172322280704975,-0.0066545275039970875,0.01703559048473835
2866306949237,1.3467384576797485,-9.619902610778809,2.0027496814727783,0.0157046839594841,-0.0042588976211845875,0.01996358297765255
2866308186562,1.3623007535934448,-9.657012939453125,1.9788076877593994,0.0119781494140625,-0.006122165359556675,0.0167694091796875
2866309423850,1.358709454536438,-9.668983459472656,1.964442491531372,0.010913425125181675,-0.0042588976211845875,0.01889885775744915
2866310661150,1.334767460823059,-9.604340553283691,1.9752163887023926,0.01117960549890995,-0.01171196810901165,0.015438503585755825
2866311898462,1.3539210557937622,-9.583989143371582,2.0027496814727783,0.014906140975654125,-0.00931633822619915,0.0157046839594841
2866313135775,1.3658920526504517,-9.66299819946289,1.9704279899597168,0.013309055007994175,-0.005057440605014563,0.015438503585755825
2866314373075,1.3718775510787964,-9.637859344482422,1.9524714946746826,0.00931633822619915,-0.00984870083630085,0.01703559048473835
2866315610400,1.3323732614517212,-9.6618013381958,1.985990285873413,0.010114881210029125,-0.00958251953125,0.014906140975654125
2866316847712,1.3192051649093628,-9.697713851928711,2.005143880844116,0.01224433071911335,-0.0090501569211483,0.0157046839594841
2866318085012,1.3407529592514038,-9.616311073303223,1.987187385559082,0.010114881210029125,-0.010647243820130825,0.01756795309484005
2866319322325,1.2808979749679565,-9.646238327026367,2.0231003761291504,0.01117960549890995,-0.007985432632267475,0.01756795309484005
2866320559637,1.3120225667953491,-9.672574996948242,1.9620482921600342,0.010114881210029125,-0.00958251953125,0.0138414166867733
2866321796950,1.3048399686813354,-9.653421401977539,1.96683669090271,0.01117960549890995,-0.008251613937318325,0.01597086526453495
2866323034275,1.3646949529647827,-9.63187313079834,1.985990285873413,0.013309055007994175,-0.0090501569211483,0.02129448764026165
2866324271562,1.3227964639663696,-9.609128952026367,1.965639591217041,0.014373779296875,-0.01117960549890995,0.01463996060192585
2866325508875,1.3120225667953491,-9.673771858215332,1.9716250896453857,0.008517795242369175,-0.008251613937318325,0.01357523538172245
2866326746187,1.3323732614517212,-9.636661529541016,1.9572598934173584,0.0066545275039970875,-0.006122165359556675,0.0173017717897892
2866327983512,1.338358759880066,-9.636661529541016,1.9812018871307373,0.007985432632267475,-0.015438503585755825,0.012510511092841625
2866329220800,1.3395558595657349,-9.601945877075195,2.0638017654418945,0.008783976547420025,-0.0162370465695858,0.00984870083630085
2866330458112,1.2761094570159912,-9.603142738342285,2.0171148777008057,0.010381062515079975,-0.01357523538172245,0.013042873702943325
2866331695425,1.3180080652236938,-9.646238327026367,2.007538080215454,0.010381062515079975,-0.013042873702943325,0.014906140975654125
2866332932737,1.3299790620803833,-9.609128952026367,1.9835960865020752,0.0071868896484375,-0.01171196810901165,0.0138414166867733
2866334170050,1.3000515699386597,-9.648633003234863,2.0147206783294678,0.0063883461989462376,-0.015172322280704975,0.01756795309484005
2866335407350,1.338358759880066,-9.624691009521484,1.985990285873413,0.00931633822619915,-0.0114457868039608,0.01783413253724575
2866336644675,1.313219666481018,-9.625887870788574,1.9620482921600342,0.008517795242369175,-0.007453070487827063,0.0186326764523983
2866337881962,1.2808979749679565,-9.674968719482422,1.9788076877593994,0.005589802749454975,-0.008783976547420025,0.0138414166867733
2866339119312,1.292868971824646,-9.666589736938477,1.985990285873413,0.0037265352439135313,-0.012510511092841625,0.008783976547420025
2866340356612,1.315613865852356,-9.684545516967773,1.9955670833587646,0.0021294488105922937,-0.0071868896484375,0.0114457868039608
2866341593925,1.3096283674240112,-9.660603523254395,1.964442491531372,0.007985432632267475,-0.0071868896484375,0.01357523538172245
2866342831225,1.2988544702529907,-9.668983459472656,2.01232647895813,0.0090501569211483,-0.0066545275039970875,0.01703559048473835
2866344068537,1.3551181554794312,-9.646238327026367,1.9548656940460205,0.005589802749454975,-0.010114881210029125,0.0162370465695858
2866345305850,1.3024457693099976,-9.672574996948242,1.9776105880737305,0.0066545275039970875,-0.008783976547420025,0.012510511092841625
2866346543137,1.316810965538025,-9.709685325622559,2.0266916751861572,0.0042588976211845875,-0.0063883461989462376,0.00984870083630085
2866347780462,1.3120225667953491,-9.68574333190918,1.9632453918457031,0.005589802749454975,-0.0077192517928779125,0.01171196810901165
2866349017775,1.338358759880066,-9.71926212310791,1.9776105880737305,0.0029279920272529125,-0.0066545275039970875,0.01357523538172245
2866350255087,1.3227964639663696,-9.71926212310791,1.9716250896453857,0.0031941730994731188,-0.0053236219100654125,0.01650322787463665
2866351492400,1.3239935636520386,-9.724050521850586,1.9931728839874268,-0.0007985432748682797,-0.010647243820130825,0.010647243820130825
2866352729700,1.3060370683670044,-9.747992515563965,2.0171148777008057,0.0010647244052961469,-0.010114881210029125,0.01117960549890995
2866353967012,1.334767460823059,-9.737218856811523,1.9967641830444336,0.0002661811013240367,-0.010647243820130825,0.0119781494140625
2866355204337,1.2976573705673218,-9.747992515563965,2.0003554821014404,-0.0026618109550327063,-0.008783976547420025,0.01171196810901165
2866356441637,1.2868834733963013,-9.763554573059082,1.9800047874450684,-0.0031941730994731188,-0.0039927163161337376,0.0119781494140625
2866357678950,1.292868971824646,-9.75517463684082,2.0266916751861572,0.0005323622026480734,-0.007985432632267475,0.01117960549890995
2866358916250,1.2952631711959839,-9.725247383117676,1.9524714946746826,-0.005057440605014563,-0.0071868896484375,0.00931633822619915
2866360153575,1.2785037755966187,-9.780314445495605,2.011129379272461,-0.005057440605014563,-0.0042588976211845875,0.008517795242369175
2866361390875,1.2856863737106323,-9.725247383117676,1.987187385559082,-0.0007985432748682797,-0.005855984054505825,0.0071868896484375
2866362628175,1.359906554222107,-9.68574333190918,1.946485996246338,-0.00452507846057415,-0.005057440605014563,0.00452507846057415
2866363865500,1.259350061416626,-9.710882186889648,1.98958158493042,-0.00692070834338665,-0.005855984054505825,0.01463996060192585
2866365102800,1.2808979749679565,-9.71926212310791,1.9560627937316895,-0.008517795242369175,-0.00452507846057415,0.010647243820130825
2866366340125,1.256955862045288,-9.695320129394531,1.9847931861877441,-0.007985432632267475,-0.0021294488105922937,0.003460354171693325
2866367577425,1.3120225667953491,-9.68933391571045,1.9979612827301025,-0.010114881210029125,-0.0007985432748682797,0.0007985432748682797
2866368814750,1.3299790620803833,-9.704896926879883,1.987187385559082,-0.013042873702943325,0.0002661811013240367,0.0018632676219567657
2866370052050,1.2856863737106323,-9.671378135681152,2.0171148777008057,-0.008517795242369175,-0.005589802749454975,0.0042588976211845875
2866371289375,1.290474772453308,-9.658209800720215,2.0171148777008057,-0.0090501569211483,-0.0029279920272529125,-0.0026618109550327063
2866372526662,1.3227964639663696,-9.6618013381958,1.988384485244751,-0.0138414166867733,-0.0002661811013240367,-0.0010647244052961469
2866373763987,1.2976573705673218,-9.66299819946289,1.9788076877593994,-0.012510511092841625,-0.0026618109550327063,0.003460354171693325
2866375001300,1.3539210557937622,-9.670180320739746,1.9800047874450684,-0.010381062515079975,-0.004791259765625,-0.0013309054775163531
2866376238625,1.3263877630233765,-9.635464668273926,2.033874273300171,-0.005057440605014563,0.0,-0.0015970865497365594
2866377475912,1.3192051649093628,-9.617507934570312,2.0231003761291504,-0.008517795242369175,0.0013309054775163531,-0.0005323622026480734
2866378713200,1.3012486696243286,-9.634267807006836,1.987187385559082,-0.007453070487827063,-0.0023956298828125,-0.0018632676219567657
2866379950537,1.2844892740249634,-9.640253067016602,1.9943699836730957,-0.010913425125181675,-0.0013309054775163531,-0.0042588976211845875
2866381187850,1.3084312677383423,-9.579200744628906,1.9847931861877441,-0.00984870083630085,0.005855984054505825,0.0002661811013240367
2866382425162,1.334767460823059,-9.589975357055664,2.0482394695281982,-0.008517795242369175,0.0002661811013240367,0.0015970865497365594
2866383662462,1.3048399686813354,-9.607931137084961,2.0147206783294678,-0.01117960549890995,-0.0021294488105922937,0.0005323622026480734
2866384899775,1.2808979749679565,-9.600749015808105,1.9823989868164062,-0.0071868896484375,-0.0023956298828125,-0.003460354171693325
2866386137075,1.3120225667953491,-9.624691009521484,1.9943699836730957,-0.005057440605014563,-0.0015970865497365594,-0.0023956298828125
2866387374412,1.3251906633377075,-9.619902610778809,2.0027496814727783,-0.008783976547420025,-0.003460354171693325,0.0
2866388611712,1.316810965538025,-9.615114212036133,2.007538080215454,-0.004791259765625,-0.0063883461989462376,-0.0015970865497365594
2866389849012,1.337161660194397,-9.599552154541016,2.013523578643799,-0.0039927163161337376,-0.0026618109550327063,-0.0026618109550327063
2866391086337,1.3024457693099976,-9.59835433959961,2.005143880844116,-0.008517795242369175,0.0018632676219567657,-0.0013309054775163531
2866392323637,1.3862427473068237,-9.621099472045898,1.9907786846160889,-0.00452507846057415,0.0023956298828125,-0.0021294488105922937
2866393560950,1.3120225667953491,-9.615114212036133,1.987187385559082,-0.0010647244052961469,0.005589802749454975,-0.0031941730994731188
2866394798262,1.3407529592514038,-9.600749015808105,1.9835960865020752,-0.0071868896484375,0.0029279920272529125,-0.0005323622026480734
2866396035562,1.3239935636520386,-9.587580680847168,2.0266916751861572,-0.0015970865497365594,0.005855984054505825,-0.0013309054775163531
2866397272875,1.3084312677383423,-9.586383819580078,2.0207061767578125,0.0007985432748682797,0.0013309054775163531,-0.0029279920272529125
2866398510200,1.3239935636520386,-9.586383819580078,2.0374655723571777,-0.0039927163161337376,0.0007985432748682797,0.0
2866399747487,1.3120225667953491,-9.616311073303223,2.0159177780151367,-0.0066545275039970875,0.0013309054775163531,-0.0026618109550327063
2866400984812,1.3227964639663696,-9.588777542114258,1.9823989868164062,-0.0013309054775163531,0.0037265352439135313,-0.007453070487827063
2866402222125,1.3467384576797485,-9.601945877075195,2.0171148777008057,0.0021294488105922937,-0.0010647244052961469,-0.0015970865497365594
2866403459437,1.3658920526504517,-9.59596061706543,1.9955670833587646,-0.0037265352439135313,-0.0010647244052961469,0.0010647244052961469
2866404696775,1.3431471586227417,-9.635464668273926,1.9847931861877441,-0.0013309054775163531,0.005057440605014563,-0.0010647244052961469
2866405934062,1.3335703611373901,-9.617507934570312,1.9704279899597168,0.0005323622026480734,0.0066545275039970875,0.0
2866407171362,1.3443442583084106,-9.587580680847168,2.007538080215454,0.0010647244052961469,0.0066545275039970875,-0.0026618109550327063
2866408408675,1.3036428689956665,-9.583989143371582,2.0027496814727783,0.0023956298828125,0.00452507846057415,0.00452507846057415
2866409645987,1.3084312677383423,-9.569623947143555,2.006340980529785,0.0026618109550327063,0.0018632676219567657,0.0077192517928779125
2866410883300,1.359906554222107,-9.627084732055664,2.029085874557495,0.0031941730994731188,0.0026618109550327063,0.0013309054775163531
2866412120600,1.3611036539077759,-9.615114212036133,2.030282974243164,0.003460354171693325,0.0026618109550327063,0.0005323622026480734
2866413357925,1.3646949529647827,-9.648633003234863,1.9740192890167236,0.0018632676219567657,0.0039927163161337376,0.0007985432748682797
2866414595212,1.3479355573654175,-9.613917350769043,1.9512743949890137,0.0015970865497365594,0.0013309054775163531,-0.0005323622026480734
2866415832537,1.3407529592514038,-9.618705749511719,1.9620482921600342,0.005589802749454975,0.0010647244052961469,-0.0007985432748682797
2866417069862,1.3491326570510864,-9.581595420837402,2.0015525817871094,0.0077192517928779125,-0.0002661811013240367,0.0053236219100654125
2866418307162,1.3395558595657349,-9.619902610778809,1.9560627937316895,0.0063883461989462376,0.005057440605014563,0.0018632676219567657
2866419544487,1.3443442583084106,-9.603142738342285,1.96683669090271,0.0013309054775163531,0.0053236219100654125,0.0010647244052961469
2866420781800,1.3180080652236938,-9.603142738342285,2.01232647895813,0.005057440605014563,0.0013309054775163531,0.005589802749454975
2866422019087,1.3395558595657349,-9.623494148254395,2.0171148777008057,0.00692070834338665,0.0066545275039970875,0.005057440605014563
2866423256425,1.3611036539077759,-9.610325813293457,2.005143880844116,0.005057440605014563,0.0018632676219567657,0.008251613937318325
2866424493737,1.3658920526504517,-9.617507934570312,1.9907786846160889,0.006122165359556675,-0.0039927163161337376,0.0063883461989462376
2866425731037,1.3180080652236938,-9.605537414550781,2.0015525817871094,0.004791259765625,0.0026618109550327063,0.0
2866426968337,1.3658920526504517,-9.59715747833252,1.985990285873413,0.005589802749454975,-0.0010647244052961469,0.005589802749454975
2866428205650,1.3527239561080933,-9.592369079589844,1.9524714946746826,0.00692070834338665,-0.0018632676219567657,0.00931633822619915
2866429442975,1.3551181554794312,-9.615114212036133,1.9955670833587646,0.008251613937318325,0.0,0.0053236219100654125
2866430680262,1.3539210557937622,-9.587580680847168,2.0147206783294678,0.005057440605014563,-0.0029279920272529125,0.0037265352439135313
2866431917562,1.3563152551651,-9.583989143371582,1.9907786846160889,0.010114881210029125,0.003460354171693325,0.0021294488105922937
2866433154875,1.3467384576797485,-9.578003883361816,2.013523578643799,0.012510511092841625,0.0013309054775163531,0.0042588976211845875
2866434392200,1.3443442583084106,-9.59715747833252,1.9716250896453857,0.01171196810901165,-0.0013309054775163531,0.008251613937318325
2866435629512,1.3407529592514038,-9.545681953430176,2.0015525817871094,0.00984870083630085,0.0,0.007453070487827063
2866436866825,1.3515268564224243,-9.599552154541016,1.9800047874450684,0.007985432632267475,0.0021294488105922937,0.0021294488105922937
2866438104137,1.3455413579940796,-9.613917350769043,2.0254945755004883,0.01357523538172245,-0.005589802749454975,0.006122165359556675
2866439341450,1.3287819623947144,-9.589975357055664,1.987187385559082,0.010114881210029125,-0.0053236219100654125,0.005057440605014563
2866440578762,1.3299790620803833,-9.599552154541016,1.9752163887023926,0.010114881210029125,0.0010647244052961469,0.0063883461989462376
2866441816075,1.3395558595657349,-9.612719535827637,1.9955670833587646,0.014906140975654125,-0.005855984054505825,0.008783976547420025
2866443053362,1.314416766166687,-9.666589736938477,1.9955670833587646,0.010647243820130825,-0.0002661811013240367,0.0018632676219567657
