timestamp_ns,accel_x,accel_y,accel_z,gyro_x,gyro_y,gyro_z
2600369958412,1.5191209316253662,-9.655815124511719,1.3431471586227417,-0.01171196810901165,0.00931633822619915,0.01357523538172245
2600371195537,1.5286978483200073,-9.710882186889648,1.3551181554794312,-0.01357523538172245,0.010913425125181675,0.012510511092841625
2600372432675,1.478419542312622,-9.709685325622559,1.359906554222107,-0.01463996060192585,0.004791259765625,0.013309055007994175
2600373669812,1.4640543460845947,-9.712079048156738,1.3395558595657349,-0.01703559048473835,0.005057440605014563,0.01943122036755085
2600374906975,1.4856021404266357,-9.700108528137207,1.3251906633377075,-0.010647243820130825,0.004791259765625,0.01756795309484005
2600376144112,1.4844050407409668,-9.68933391571045,1.3407529592514038,-0.01463996060192585,-0.0007985432748682797,0.01597086526453495
2600377381262,1.5310920476913452,-9.750386238098145,1.335964560508728,-0.01756795309484005,0.0015970865497365594,0.01597086526453495
2600378618400,1.501164436340332,-9.707290649414062,1.3395558595657349,-0.014373779296875,0.0023956298828125,0.0173017717897892
2600379855550,1.4975731372833252,-9.702502250671387,1.3227964639663696,-0.012776692397892475,0.0002661811013240367,0.0181003138422966
2600381092675,1.4712369441986084,-9.724050521850586,1.313219666481018,-0.0173017717897892,-0.0021294488105922937,0.02182685025036335
2600382329825,1.482010841369629,-9.697713851928711,1.3407529592514038,-0.014906140975654125,-0.0031941730994731188,0.01703559048473835
2600383566987,1.4772224426269531,-9.692925453186035,1.3263877630233765,-0.014906140975654125,0.0015970865497365594,0.01410759799182415
2600384804112,1.533486247062683,-9.68574333190918,1.3120225667953491,-0.015438503585755825,0.0026618109550327063,0.0204959437251091
2600386041262,1.4867992401123047,-9.727641105651855,1.334767460823059,-0.01357523538172245,0.0,0.02129448764026165
2600387278412,1.4856021404266357,-9.75158405303955,1.2952631711959839,-0.012776692397892475,-0.0002661811013240367,0.0215606689453125
2600388515537,1.4975731372833252,-9.740809440612793,1.2892776727676392,-0.012510511092841625,0.0031941730994731188,0.0252872034907341
2600389752675,1.4879963397979736,-9.716867446899414,1.338358759880066,-0.0167694091796875,0.0023956298828125,0.02369011752307415
2600390989850,1.479616641998291,-9.746795654296875,1.3838485479354858,-0.01597086526453495,-0.0066545275039970875,0.023956298828125
2600392227000,1.4700398445129395,-9.72165584564209,1.3479355573654175,-0.0167694091796875,-0.006122165359556675,0.02502102218568325
2600393464125,1.48081374168396,-9.701305389404297,1.3922282457351685,-0.013309055007994175,0.0005323622026480734,0.03034464456140995
2600394701250,1.4951789379119873,-9.730035781860352,1.3479355573654175,-0.01703559048473835,-0.0010647244052961469,0.0258195661008358
2600395938412,1.4389152526855469,-9.72285270690918,1.2797008752822876,-0.01783413253724575,-0.0029279920272529125,0.0210283063352108
2600397175550,1.4867992401123047,-9.715670585632324,1.3239935636520386,-0.014373779296875,-0.003460354171693325,0.0271504707634449
2600398412687,1.4460978507995605,-9.7420072555542,1.3060370683670044,-0.01597086526453495,-0.0077192517928779125,0.0268842913210392
2600399649850,1.4532804489135742,-9.72285270690918,1.338358759880066,-0.015172322280704975,-0.0077192517928779125,0.0247548408806324
2600400887012,1.4628572463989258,-9.714473724365234,1.359906554222107,-0.01756795309484005,-0.0071868896484375,0.0271504707634449
2600402124150,1.4472949504852295,-9.716867446899414,1.315613865852356,-0.015438503585755825,-0.007985432632267475,0.02794901467859745
2600403361262,1.456871747970581,-9.713275909423828,1.3048399686813354,-0.0191650390625,-0.007453070487827063,0.0220930315554142
2600404598412,1.4867992401123047,-9.746795654296875,1.3251906633377075,-0.0186326764523983,-0.007453070487827063,0.0247548408806324
2600405835562,1.4987702369689941,-9.740809440612793,1.3263877630233765,-0.014373779296875,-0.007985432632267475,0.0295461006462574
2600407072712,1.4484920501708984,-9.730035781860352,1.3000515699386597,-0.0162370465695858,-0.008783976547420025,0.02901373989880085
2600408309862,1.4832079410552979,-9.720458984375,1.3180080652236938,-0.0210283063352108,0.0015970865497365594,0.0223592109978199
2600409547000,1.4532804489135742,-9.747992515563965,1.3335703611373901,-0.0204959437251091,-0.005855984054505825,0.0228915736079216
2600410784150,1.4652514457702637,-9.738415718078613,1.3204022645950317,-0.01463996060192585,-0.0090501569211483,0.02608574740588665
2600412021287,1.4281413555145264,-9.72285270690918,1.3239935636520386,-0.010114881210029125,-0.006122165359556675,0.0276828333735466
2600413258437,1.4544775485992432,-9.72285270690918,1.3287819623947144,-0.00984870083630085,-0.010381062515079975,0.0311431884765625
2600414495587,1.4832079410552979,-9.732430458068848,1.2976573705673218,-0.015438503585755825,-0.00958251953125,0.0258195661008358
2600415732725,1.4628572463989258,-9.695320129394531,1.3419500589370728,-0.015438503585755825,-0.005057440605014563,0.0276828333735466
2600416969862,1.4257471561431885,-9.743204116821289,1.3527239561080933,-0.0173017717897892,-0.008783976547420025,0.0271504707634449
2600418207000,1.4257471561431885,-9.727641105651855,1.3323732614517212,-0.0186326764523983,-0.0114457868039608,0.0252872034907341
2600419444137,1.459265947341919,-9.720458984375,1.3036428689956665,-0.015438503585755825,-0.006122165359556675,0.02608574740588665
2600420681287,1.4389152526855469,-9.72165584564209,1.2832921743392944,-0.01650322787463665,-0.006122165359556675,0.02608574740588665
2600421918437,1.4844050407409668,-9.716867446899414,1.3287819623947144,-0.01889885775744915,-0.0077192517928779125,0.02874755859375
2600423155575,1.502361536026001,-9.740809440612793,1.3287819623947144,-0.01756795309484005,-0.008517795242369175,0.0252872034907341
2600424392737,1.4867992401123047,-9.68694019317627,1.3335703611373901,-0.0215606689453125,-0.00984870083630085,0.0244886614382267
2600425629875,1.4664485454559326,-9.701305389404297,1.2557587623596191,-0.01836649514734745,-0.01117960549890995,0.02315775491297245
2600426867025,1.4724340438842773,-9.697713851928711,1.3215993642807007,-0.01836649514734745,-0.01171196810901165,0.0252872034907341
2600428104162,1.4269442558288574,-9.68694019317627,1.3120225667953491,-0.01756795309484005,-0.010647243820130825,0.0234239362180233
2600429341312,1.4413094520568848,-9.72165584564209,1.3623007535934448,-0.01783413253724575,-0.012510511092841625,0.02129448764026165
2600430578462,1.4963760375976562,-9.724050521850586,1.3515268564224243,-0.01836649514734745,-0.01357523538172245,0.0157046839594841
2600431815587,1.4449007511138916,-9.68694019317627,1.3515268564224243,-0.012776692397892475,-0.01650322787463665,0.0220930315554142
2600433052737,1.4413094520568848,-9.701305389404297,1.3215993642807007,-0.01410759799182415,-0.02076212503015995,0.0228915736079216
2600434289887,1.456871747970581,-9.683348655700684,1.3192051649093628,-0.01836649514734745,-0.0186326764523983,0.02129448764026165
2600435527012,1.4437036514282227,-9.716867446899414,1.3395558595657349,-0.01783413253724575,-0.0162370465695858,0.02608574740588665
2600436764175,1.455674648284912,-9.703699111938477,1.3180080652236938,-0.01597086526453495,-0.0114457868039608,0.0228915736079216
2600438001325,1.4700398445129395,-9.692925453186035,1.3072341680526733,-0.0167694091796875,-0.013309055007994175,0.0191650390625
2600439238462,1.4700398445129395,-9.694122314453125,1.2952631711959839,-0.0138414166867733,-0.0162370465695858,0.0186326764523983
2600440475612,1.4484920501708984,-9.712079048156738,1.2868834733963013,-0.0162370465695858,-0.012776692397892475,0.012776692397892475
2600441712737,1.41257905960083,-9.6989107131958,1.313219666481018,-0.014373779296875,-0.010913425125181675,0.01703559048473835
2600442949900,1.4293384552001953,-9.694122314453125,1.3431471586227417,-0.0162370465695858,-0.01463996060192585,0.014373779296875
2600444187037,1.436521053314209,-9.71926212310791,1.3479355573654175,-0.0186326764523983,-0.0119781494140625,0.013309055007994175
2600445424187,1.4616601467132568,-9.706093788146973,1.3036428689956665,-0.01463996060192585,-0.01650322787463665,0.013309055007994175
2600446661325,1.4401123523712158,-9.706093788146973,1.3323732614517212,-0.01650322787463665,-0.0119781494140625,0.0119781494140625
2600447898462,1.3982137441635132,-9.7420072555542,1.3120225667953491,-0.01996358297765255,-0.0138414166867733,0.0119781494140625
2600449135600,1.4425065517425537,-9.77672290802002,1.3311761617660522,-0.0244886614382267,-0.012776692397892475,0.0090501569211483
2600450372750,1.4664485454559326,-9.72285270690918,1.2773066759109497,-0.0173017717897892,-0.0119781494140625,0.007985432632267475
2600451609900,1.43532395362854,-9.702502250671387,1.290474772453308,-0.015172322280704975,-0.00931633822619915,0.010913425125181675
2600452847037,1.4425065517425537,-9.758766174316406,1.3287819623947144,-0.0215606689453125,-0.013309055007994175,0.01171196810901165
2600454084200,1.4401123523712158,-9.734824180603027,1.337161660194397,-0.01783413253724575,-0.01597086526453495,0.012510511092841625
2600455321325,1.4233529567718506,-9.730035781860352,1.2892776727676392,-0.01463996060192585,-0.01703559048473835,0.01224433071911335
2600456558475,1.4257471561431885,-9.746795654296875,1.291671872138977,-0.01996358297765255,-0.01357523538172245,0.007985432632267475
2600457795637,1.4209587574005127,-9.745597839355469,1.2689268589019775,-0.015438503585755825,-0.0173017717897892,0.0119781494140625
2600459032762,1.4281413555145264,-9.746795654296875,1.315613865852356,-0.0210283063352108,-0.0138414166867733,0.005589802749454975
2600460269912,1.4425065517425537,-9.730035781860352,1.3311761617660522,-0.0186326764523983,-0.00958251953125,0.006122165359556675
2600461507062,1.4281413555145264,-9.712079048156738,1.335964560508728,-0.0167694091796875,-0.0119781494140625,0.00958251953125
2600462744200,1.434126853942871,-9.710882186889648,1.335964560508728,-0.0196974016726017,-0.00984870083630085,0.014906140975654125
2600463981337,1.436521053314209,-9.733627319335938,1.2856863737106323,-0.02182685025036335,-0.0119781494140625,0.0090501569211483
2600465218475,1.4437036514282227,-9.725247383117676,1.3000515699386597,-0.0196974016726017,-0.014373779296875,0.00958251953125
2600466455650,1.4065935611724854,-9.700108528137207,1.3024457693099976,-0.015438503585755825,-0.012510511092841625,0.01224433071911335
2600467692775,1.4472949504852295,-9.712079048156738,1.3311761617660522,-0.0162370465695858,-0.013309055007994175,0.0077192517928779125
2600468929912,1.416170358657837,-9.72165584564209,1.3323732614517212,-0.0234239362180233,-0.01117960549890995,0.005589802749454975
2600470167075,1.436521053314209,-9.764751434326172,1.3287819623947144,-0.01996358297765255,-0.01117960549890995,0.0114457868039608
2600471404200,1.4245500564575195,-9.72285270690918,1.3096283674240112,-0.0186326764523983,-0.0119781494140625,0.007985432632267475
2600472641350,1.4496891498565674,-9.6989107131958,1.2725181579589844,-0.01783413253724575,-0.00984870083630085,0.007985432632267475
2600473878487,1.4269442558288574,-9.702502250671387,1.316810965538025,-0.0228915736079216,-0.01756795309484005,0.00984870083630085
2600475115637,1.416170358657837,-9.725247383117676,1.3275848627090454,-0.0210283063352108,-0.01703559048473835,0.0063883461989462376
2600476352775,1.4317326545715332,-9.749189376831055,1.3479355573654175,-0.01756795309484005,-0.014373779296875,0.003460354171693325
2600477589937,1.4245500564575195,-9.676166534423828,1.2797008752822876,-0.01756795309484005,-0.01117960549890995,0.00452507846057415
2600478827062,1.4245500564575195,-9.703699111938477,1.292868971824646,-0.0223592109978199,-0.01410759799182415,0.00692070834338665
2600480064212,1.4101848602294922,-9.704896926879883,1.290474772453308,-0.02076212503015995,-0.01463996060192585,0.0039927163161337376
2600481301350,1.4173674583435059,-9.702502250671387,1.3048399686813354,-0.0234239362180233,-0.0157046839594841,0.0026618109550327063
2600482538500,1.4197616577148438,-9.654618263244629,1.2952631711959839,-0.0215606689453125,-0.015172322280704975,-0.0005323622026480734
2600483775662,1.434126853942871,-9.680954933166504,1.2952631711959839,-0.01889885775744915,-0.013309055007994175,-0.0013309054775163531
2600485012787,1.460463047027588,-9.75397777557373,1.3227964639663696,-0.0215606689453125,-0.01224433071911335,0.0007985432748682797
2600486249925,1.4532804489135742,-9.701305389404297,1.3084312677383423,-0.0252872034907341,-0.0138414166867733,-0.0026618109550327063
2600487487087,1.436521053314209,-9.710882186889648,1.2832921743392944,-0.01996358297765255,-0.012510511092841625,-0.004791259765625
2600488724237,1.4305355548858643,-9.695320129394531,1.3204022645950317,-0.0162370465695858,-0.013309055007994175,-0.0029279920272529125
2600489961362,1.4197616577148438,-9.677363395690918,1.2701239585876465,-0.0196974016726017,-0.008251613937318325,0.0021294488105922937
2600491198525,1.4077906608581543,-9.6989107131958,1.3096283674240112,-0.01996358297765255,-0.005855984054505825,0.0
2600492435650,1.4173674583435059,-9.702502250671387,1.3012486696243286,-0.02262539230287075,-0.00692070834338665,-0.003460354171693325
2600493672800,1.4030022621154785,-9.724050521850586,1.3192051649093628,-0.02315775491297245,-0.012510511092841625,-0.0013309054775163531
2600494909937,1.4101848602294922,-9.737218856811523,1.316810965538025,-0.0228915736079216,-0.0071868896484375,0.0018632676219567657
2600496147075,1.3886369466781616,-9.718064308166504,1.2653355598449707,-0.02262539230287075,-0.0090501569211483,-0.0023956298828125
2600497384237,1.3754688501358032,-9.716867446899414,1.2773066759109497,-0.0220930315554142,-0.0090501569211483,-0.005589802749454975
2600498621362,1.4101848602294922,-9.724050521850586,1.3180080652236938,-0.0220930315554142,-0.007453070487827063,-0.00452507846057415
2600499858525,1.3994109630584717,-9.701305389404297,1.3072341680526733,-0.02369011752307415,-0.008251613937318325,0.0007985432748682797
2600501095662,1.434126853942871,-9.71926212310791,1.3012486696243286,-0.0215606689453125,-0.00958251953125,-0.0007985432748682797
2600502332812,1.3718775510787964,-9.75158405303955,1.3000515699386597,-0.02022976242005825,-0.0063883461989462376,0.0013309054775163531
2600503569950,1.434126853942871,-9.747992515563965,1.2533645629882812,-0.0196974016726017,-0.007985432632267475,0.0037265352439135313
2600504807100,1.4173674583435059,-9.75517463684082,1.2808979749679565,-0.0228915736079216,-0.00958251953125,-0.0031941730994731188
2600506044262,1.4053964614868164,-9.7420072555542,1.3084312677383423,-0.02076212503015995,-0.0077192517928779125,0.0013309054775163531
2600507281387,1.3862427473068237,-9.757569313049316,1.3407529592514038,-0.0215606689453125,-0.00692070834338665,0.004791259765625
2600508518525,1.3982137441635132,-9.744400978088379,1.3084312677383423,-0.02129448764026165,-0.00984870083630085,0.0053236219100654125
2600509755675,1.3994109630584717,-9.743204116821289,1.2737152576446533,-0.02022976242005825,-0.006122165359556675,0.0037265352439135313
2600510992800,1.4065935611724854,-9.740809440612793,1.2725181579589844,-0.02022976242005825,-0.0031941730994731188,0.006122165359556675
2600512229962,1.4065935611724854,-9.782708168029785,1.334767460823059,-0.02129448764026165,-0.0063883461989462376,0.0063883461989462376
2600513467100,1.4197616577148438,-9.75397777557373,1.3192051649093628,-0.0223592109978199,-0.0039927163161337376,0.0010647244052961469
2600514704250,1.4496891498565674,-9.768342971801758,1.3084312677383423,-0.02315775491297245,-0.00452507846057415,0.008783976547420025
2600515941387,1.456871747970581,-9.793481826782227,1.3192051649093628,-0.0223592109978199,-0.003460354171693325,0.0029279920272529125
2600517178550,1.416170358657837,-9.774328231811523,1.3108254671096802,-0.0228915736079216,-0.005057440605014563,0.0031941730994731188
2600518415675,1.4413094520568848,-9.770737648010254,1.3084312677383423,-0.02315775491297245,-0.0013309054775163531,0.005855984054505825
2600519652825,1.43532395362854,-9.792284965515137,1.314416766166687,-0.02315775491297245,-0.003460354171693325,0.004791259765625
2600520889987,1.4508862495422363,-9.768342971801758,1.3000515699386597,-0.02661811001598835,-0.0007985432748682797,0.0037265352439135313
2600522127125,1.4437036514282227,-9.739612579345703,1.290474772453308,-0.02502102218568325,-0.0039927163161337376,0.0063883461989462376
2600523364262,1.4233529567718506,-9.761160850524902,1.3036428689956665,-0.0220930315554142,-0.0010647244052961469,0.0031941730994731188
2600524601425,1.4185645580291748,-9.747992515563965,1.2533645629882812,-0.0228915736079216,-0.0037265352439135313,0.0063883461989462376
2600525838550,1.4269442558288574,-9.731232643127441,1.260547161102295,-0.02661811001598835,-0.0013309054775163531,0.0029279920272529125
2600527075700,1.4532804489135742,-9.702502250671387,1.258152961730957,-0.0228915736079216,0.0007985432748682797,0.0005323622026480734
2600528312825,1.4329297542572021,-9.75278091430664,1.260547161102295,-0.0252872034907341,0.0010647244052961469,0.0029279920272529125
2600529549987,1.3970166444778442,-9.734824180603027,1.3036428689956665,-0.0252872034907341,0.00452507846057415,0.0002661811013240367
2600530787137,1.3970166444778442,-9.780314445495605,1.2785037755966187,-0.0263519287109375,0.0037265352439135313,0.0010647244052961469
2600532024287,1.4209587574005127,-9.756372451782227,1.260547161102295,-0.0252872034907341,0.0015970865497365594,0.0029279920272529125
2600533261412,1.4077906608581543,-9.703699111938477,1.2964602708816528,-0.0258195661008358,0.0042588976211845875,0.0018632676219567657
2600534498550,1.4113819599151611,-9.713275909423828,1.2820950746536255,-0.02661811001598835,0.0053236219100654125,0.0029279920272529125
2600535735712,1.3982137441635132,-9.690531730651855,1.315613865852356,-0.0271504707634449,0.0037265352439135313,0.003460354171693325
2600536972850,1.434126853942871,-9.706093788146973,1.2102689743041992,-0.02661811001598835,0.0029279920272529125,0.00452507846057415
2600538210000,1.43532395362854,-9.733627319335938,1.2773066759109497,-0.02182685025036335,0.0026618109550327063,0.007985432632267475
2600539447137,1.4221558570861816,-9.75397777557373,1.2701239585876465,-0.0228915736079216,0.0039927163161337376,0.005057440605014563
2600540684275,1.4269442558288574,-9.720458984375,1.3036428689956665,-0.02369011752307415,0.0013309054775163531,0.0031941730994731188
2600541921425,1.4101848602294922,-9.706093788146973,1.256955862045288,-0.0258195661008358,0.00452507846057415,0.0007985432748682797
2600543158562,1.437718152999878,-9.724050521850586,1.193509578704834,-0.0292799212038517,0.010647243820130825,0.0
2600544395712,1.4221558570861816,-9.72165584564209,1.2976573705673218,-0.02369011752307415,0.010114881210029125,0.0021294488105922937
2600545632862,1.4209587574005127,-9.716867446899414,1.2880805730819702,-0.0258195661008358,0.008517795242369175,0.0015970865497365594
2600546870000,1.4544775485992432,-9.71926212310791,1.2641384601593018,-0.0263519287109375,0.005855984054505825,0.0002661811013240367
2600548107137,1.41257905960083,-9.736021041870117,1.2797008752822876,-0.02315775491297245,0.00452507846057415,0.0013309054775163531
2600549344300,1.4293384552001953,-9.737218856811523,1.2856863737106323,-0.0268842913210392,0.0042588976211845875,-0.0002661811013240367
2600550581437,1.4472949504852295,-9.727641105651855,1.2342109680175781,-0.0276828333735466,0.0018632676219567657,0.0037265352439135313
2600551818600,1.4257471561431885,-9.770737648010254,1.2701239585876465,-0.0282151959836483,0.006122165359556675,0.0
2600553055750,1.3850456476211548,-9.728838920593262,1.2761094570159912,-0.02608574740588665,0.007985432632267475,0.0007985432748682797
2600554292875,1.4401123523712158,-9.771934509277344,1.3012486696243286,-0.0314093679189682,0.01117960549890995,-0.0026618109550327063
2600555530012,1.4389152526855469,-9.75397777557373,1.2629413604736328,-0.0300784632563591,0.012776692397892475,-0.005057440605014563
2600556767162,1.4413094520568848,-9.746795654296875,1.2545616626739502,-0.0282151959836483,0.010913425125181675,0.003460354171693325
2600558004300,1.4389152526855469,-9.725247383117676,1.2677297592163086,-0.03034464456140995,0.014373779296875,0.0026618109550327063
2600559241437,1.479616641998291,-9.695320129394531,1.2521674633026123,-0.02901373989880085,0.007453070487827063,-0.0013309054775163531
2600560478600,1.4413094520568848,-9.694122314453125,1.2749123573303223,-0.0276828333735466,0.003460354171693325,0.0015970865497365594
2600561715750,1.456871747970581,-9.739612579345703,1.2797008752822876,-0.0244886614382267,0.01463996060192585,0.0010647244052961469
2600562952900,1.3874398469924927,-9.718064308166504,1.2737152576446533,-0.0292799212038517,0.015438503585755825,-0.0015970865497365594
2600564190025,1.3994109630584717,-9.737218856811523,1.2773066759109497,-0.0322079136967659,0.0138414166867733,0.0018632676219567657
2600565427175,1.37906014919281,-9.725247383117676,1.260547161102295,-0.0295461006462574,0.0071868896484375,0.0029279920272529125
2600566664312,1.459265947341919,-9.68694019317627,1.3000515699386597,-0.02741665206849575,0.008517795242369175,0.0010647244052961469
2600567901462,1.4688427448272705,-9.725247383117676,1.2294225692749023,-0.0282151959836483,0.00931633822619915,0.005057440605014563
2600569138587,1.437718152999878,-9.670180320739746,1.1875240802764893,-0.0271504707634449,0.01597086526453495,0.00692070834338665
2600570375750,1.43532395362854,-9.679757118225098,1.2294225692749023,-0.02661811001598835,0.010114881210029125,0.004791259765625
2600571612862,1.4520833492279053,-9.690531730651855,1.2617442607879639,-0.0276828333735466,0.010381062515079975,0.0018632676219567657
2600572850037,1.459265947341919,-9.734824180603027,1.2653355598449707,-0.0276828333735466,0.0167694091796875,0.0015970865497365594
2600574087187,1.479616641998291,-9.710882186889648,1.2485761642456055,-0.0343373604118824,0.01171196810901165,0.0018632676219567657
2600575324337,1.4939818382263184,-9.708487510681152,1.2210428714752197,-0.0292799212038517,0.013309055007994175,0.0039927163161337376
2600576561475,1.4077906608581543,-9.720458984375,1.235408067703247,-0.02661811001598835,0.012776692397892475,0.0023956298828125
2600577798600,1.4221558570861816,-9.7420072555542,1.2868834733963013,-0.0295461006462574,0.010114881210029125,0.0010647244052961469
2600579035725,1.4449007511138916,-9.747992515563965,1.2521674633026123,-0.0244886614382267,0.01410759799182415,0.0013309054775163531
2600580272900,1.4317326545715332,-9.726444244384766,1.256955862045288,-0.0263519287109375,0.014373779296875,0.005589802749454975
2600581510037,1.4437036514282227,-9.716867446899414,1.2222399711608887,-0.0311431884765625,0.0119781494140625,0.0077192517928779125
2600582747187,1.3910311460494995,-9.692925453186035,1.2485761642456055,-0.02502102218568325,0.0119781494140625,0.006122165359556675
2600583984325,1.4640543460845947,-9.716867446899414,1.2725181579589844,-0.02422248013317585,0.0119781494140625,0.0018632676219567657
2600585221475,1.4269442558288574,-9.704896926879883,1.2653355598449707,-0.0258195661008358,0.014373779296875,0.0021294488105922937
2600586458612,1.4472949504852295,-9.708487510681152,1.2461819648742676,-0.02555338479578495,0.012510511092841625,0.005589802749454975
2600587695762,1.459265947341919,-9.728838920593262,1.2425906658172607,-0.02848137728869915,0.012776692397892475,0.010913425125181675
2600588932912,1.4460978507995605,-9.725247383117676,1.2677297592163086,-0.02661811001598835,0.012776692397892475,0.0066545275039970875
2600590170062,1.4640543460845947,-9.714473724365234,1.2485761642456055,-0.02502102218568325,0.01597086526453495,0.007985432632267475
2600591407200,1.45806884765625,-9.710882186889648,1.2401964664459229,-0.02422248013317585,0.015438503585755825,0.008251613937318325
2600592644337,1.479616641998291,-9.726444244384766,1.2258312702178955,-0.023956298828125,0.01117960549890995,0.013309055007994175
2600593881500,1.48081374168396,-9.691728591918945,1.259350061416626,-0.0215606689453125,0.010647243820130825,0.012510511092841625
2600595118625,1.4616601467132568,-9.731232643127441,1.2497732639312744,-0.0223592109978199,0.010381062515079975,0.010647243820130825
2600596355787,1.45806884765625,-9.713275909423828,1.2844892740249634,-0.02182685025036335,0.014906140975654125,0.0138414166867733
2600597592925,1.4449007511138916,-9.715670585632324,1.2306196689605713,-0.0191650390625,0.015438503585755825,0.0210283063352108
2600598830075,1.4449007511138916,-9.720458984375,1.260547161102295,-0.02422248013317585,0.013042873702943325,0.0220930315554142
2600600067225,1.4305355548858643,-9.725247383117676,1.2318167686462402,-0.02262539230287075,0.014373779296875,0.01889885775744915
2600601304337,1.4401123523712158,-9.671378135681152,1.3024457693099976,-0.0186326764523983,0.0162370465695858,0.01597086526453495
2600602541512,1.4233529567718506,-9.695320129394531,1.315613865852356,-0.0167694091796875,0.010647243820130825,0.0186326764523983
2600603778625,1.4676456451416016,-9.712079048156738,1.2773066759109497,-0.01836649514734745,0.0173017717897892,0.01996358297765255
2600605015787,1.5119383335113525,-9.710882186889648,1.2844892740249634,-0.02076212503015995,0.01889885775744915,0.0173017717897892
2600606252925,1.4520833492279053,-9.678560256958008,1.2461819648742676,-0.0181003138422966,0.0114457868039608,0.02022976242005825
2600607490075,1.436521053314209,-9.708487510681152,1.290474772453308,-0.01463996060192585,0.008783976547420025,0.01756795309484005
2600608727225,1.4987702369689941,-9.679757118225098,1.2677297592163086,-0.02369011752307415,0.0119781494140625,0.015172322280704975
2600609964375,1.4676456451416016,-9.695320129394531,1.2342109680175781,-0.01943122036755085,0.0114457868039608,0.01996358297765255
2600611201500,1.4915876388549805,-9.673771858215332,1.2629413604736328,-0.0191650390625,0.0157046839594841,0.0167694091796875
2600612438650,1.4760253429412842,-9.68574333190918,1.3012486696243286,-0.013042873702943325,0.014906140975654125,0.01650322787463665
2600613675787,1.4736311435699463,-9.694122314453125,1.2761094570159912,-0.013309055007994175,0.013309055007994175,0.0196974016726017
2600614912937,1.4664485454559326,-9.678560256958008,1.2629413604736328,-0.01783413253724575,0.008517795242369175,0.023956298828125
2600616150100,1.4496891498565674,-9.640253067016602,1.2557587623596191,-0.015172322280704975,0.0090501569211483,0.02182685025036335
2600617387237,1.4736311435699463,-9.647436141967773,1.259350061416626,-0.0138414166867733,0.01650322787463665,0.01783413253724575
2600618624400,1.479616641998291,-9.601945877075195,1.2665326595306396,-0.01410759799182415,0.01171196810901165,0.02076212503015995
2600619861512,1.4640543460845947,-9.655815124511719,1.2461819648742676,-0.0114457868039608,0.013309055007994175,0.0191650390625
2600621098662,1.4712369441986084,-9.659406661987305,1.2749123573303223,-0.01410759799182415,0.01410759799182415,0.0210283063352108
2600622335812,1.4664485454559326,-9.62947940826416,1.2880805730819702,-0.014373779296875,0.00931633822619915,0.0223592109978199
2600623572950,1.459265947341919,-9.648633003234863,1.2677297592163086,-0.00984870083630085,0.008783976547420025,0.0186326764523983
2600624810100,1.4879963397979736,-9.660603523254395,1.2785037755966187,-0.012776692397892475,0.013042873702943325,0.0186326764523983
2600626047250,1.5047557353973389,-9.637859344482422,1.2701239585876465,-0.0090501569211483,0.01357523538172245,0.0181003138422966
2600627284400,1.4879963397979736,-9.641449928283691,1.2785037755966187,-0.0066545275039970875,0.01224433071911335,0.0157046839594841
2600628521550,1.482010841369629,-9.639056205749512,1.2306196689605713,-0.00692070834338665,0.008783976547420025,0.02262539230287075
2600629758675,1.4233529567718506,-9.640253067016602,1.235408067703247,-0.0053236219100654125,0.0090501569211483,0.01996358297765255
2600630995825,1.4449007511138916,-9.599552154541016,1.216254472732544,-0.0005323622026480734,0.010381062515079975,0.0167694091796875
2600632232962,1.482010841369629,-9.678560256958008,1.1887211799621582,-0.0005323622026480734,0.010381062515079975,0.01889885775744915
2600633470112,1.4652514457702637,-9.619902610778809,1.2042834758758545,-0.0037265352439135313,0.008783976547420025,0.0204959437251091
2600634707262,1.4616601467132568,-9.641449928283691,1.2258312702178955,-0.005057440605014563,0.00984870083630085,0.0215606689453125
2600635944400,1.4628572463989258,-9.666589736938477,1.2018892765045166,-0.003460354171693325,0.0071868896484375,0.0157046839594841
2600637181550,1.4760253429412842,-9.66299819946289,1.237802267074585,-0.0013309054775163531,0.008783976547420025,0.0186326764523983
2600638418700,1.460463047027588,-9.68933391571045,1.238999366760254,0.0005323622026480734,0.013309055007994175,0.01836649514734745
2600639655837,1.455674648284912,-9.659406661987305,1.212663173675537,0.0013309054775163531,0.0037265352439135313,0.015438503585755825
2600640893000,1.479616641998291,-9.668983459472656,1.2629413604736328,0.0010647244052961469,0.004791259765625,0.01597086526453495
2600642130137,1.437718152999878,-9.66419506072998,1.2689268589019775,-0.0010647244052961469,0.0063883461989462376,0.014906140975654125
2600643367275,1.4113819599151611,-9.68813705444336,1.2473790645599365,-0.005855984054505825,0.004791259765625,0.014373779296875
2600644604425,1.4425065517425537,-9.68813705444336,1.2401964664459229,-0.00452507846057415,0.006122165359556675,0.01783413253724575
2600645841562,1.4640543460845947,-9.667786598205566,1.237802267074585,0.0002661811013240367,0.006122165359556675,0.0173017717897892
2600647078700,1.4532804489135742,-9.691728591918945,1.2785037755966187,-0.0002661811013240367,0.0037265352439135313,0.015172322280704975
2600648315862,1.45806884765625,-9.709685325622559,1.2425906658172607,-0.0007985432748682797,0.00452507846057415,0.01703559048473835
2600649553000,1.4712369441986084,-9.667786598205566,1.2401964664459229,-0.003460354171693325,0.006122165359556675,0.008517795242369175
2600650790150,1.436521053314209,-9.707290649414062,1.2725181579589844,0.0,0.0071868896484375,0.0063883461989462376
2600652027275,1.434126853942871,-9.718064308166504,1.256955862045288,0.0,0.0037265352439135313,0.013309055007994175
2600653264450,1.4927847385406494,-9.718064308166504,1.2773066759109497,-0.0029279920272529125,0.0037265352439135313,0.0119781494140625
2600654501562,1.4844050407409668,-9.732430458068848,1.236605167388916,-0.0042588976211845875,0.005057440605014563,0.01117960549890995
2600655738725,1.4963760375976562,-9.724050521850586,1.235408067703247,-0.0005323622026480734,0.008783976547420025,0.01224433071911335
2600656975875,1.4832079410552979,-9.768342971801758,1.2737152576446533,-0.003460354171693325,0.008251613937318325,0.013309055007994175
2600658213012,1.4700398445129395,-9.768342971801758,1.2545616626739502,0.0021294488105922937,0.00692070834338665,0.013042873702943325
2600659450137,1.460463047027588,-9.738415718078613,1.2617442607879639,0.0005323622026480734,0.0029279920272529125,0.01703559048473835
2600660687300,1.4891934394836426,-9.7791166305542,1.2641384601593018,-0.0026618109550327063,0.0031941730994731188,0.01171196810901165
2600661924437,1.4975731372833252,-9.750386238098145,1.2725181579589844,-0.0053236219100654125,0.005589802749454975,0.01117960549890995
2600663161600,1.4628572463989258,-9.75397777557373,1.2473790645599365,-0.0013309054775163531,0.0010647244052961469,0.0119781494140625
2600664398725,1.4736311435699463,-9.767146110534668,1.259350061416626,-0.0042588976211845875,0.0026618109550327063,0.0090501569211483
2600665635862,1.4484920501708984,-9.769539833068848,1.2461819648742676,-0.0071868896484375,0.0015970865497365594,0.0077192517928779125
2600666873025,1.48081374168396,-9.761160850524902,1.2665326595306396,-0.0042588976211845875,-0.0015970865497365594,0.00958251953125
2600668110150,1.4628572463989258,-9.75397777557373,1.2677297592163086,-0.0021294488105922937,-0.0021294488105922937,0.01171196810901165
2600669347300,1.43532395362854,-9.750386238098145,1.3012486696243286,-0.0053236219100654125,0.0005323622026480734,0.013309055007994175
2600670584462,1.4221558570861816,-9.767146110534668,1.2737152576446533,-0.01171196810901165,0.003460354171693325,0.00984870083630085
2600671821600,1.4688427448272705,-9.804256439208984,1.2617442607879639,-0.0071868896484375,0.0029279920272529125,0.00692070834338665
2600673058750,1.48081374168396,-9.77672290802002,1.2437877655029297,-0.00984870083630085,0.0042588976211845875,0.0077192517928779125
2600674295887,1.437718152999878,-9.768342971801758,1.2641384601593018,-0.008783976547420025,0.0005323622026480734,0.0066545275039970875
2600675533037,1.4317326545715332,-9.783905029296875,1.2629413604736328,-0.01224433071911335,-0.0021294488105922937,0.0053236219100654125
2600676770187,1.4293384552001953,-9.750386238098145,1.2976573705673218,-0.0114457868039608,-0.0013309054775163531,0.008783976547420025
2600678007325,1.437718152999878,-9.761160850524902,1.217451572418213,-0.01171196810901165,0.0002661811013240367,0.0053236219100654125
2600679244475,1.460463047027588,-9.823410034179688,1.2509703636169434,-0.01943122036755085,0.0,0.0063883461989462376
2600680481612,1.4736311435699463,-9.749189376831055,1.2665326595306396,-0.013042873702943325,0.0023956298828125,0.007985432632267475
2600681718775,1.4891934394836426,-9.770737648010254,1.2342109680175781,-0.01117960549890995,0.0005323622026480734,0.005589802749454975
2600682955900,1.45806884765625,-9.724050521850586,1.2641384601593018,-0.0167694091796875,-0.0039927163161337376,0.005855984054505825
2600684193062,1.4700398445129395,-9.727641105651855,1.2785037755966187,-0.0181003138422966,-0.008251613937318325,0.005057440605014563
2600685430187,1.4401123523712158,-9.747992515563965,1.2761094570159912,-0.01357523538172245,-0.0029279920272529125,0.0026618109550327063
2600686667350,1.4748282432556152,-9.7420072555542,1.2868834733963013,-0.012776692397892475,-0.0023956298828125,0.0039927163161337376
2600687904487,1.4724340438842773,-9.712079048156738,1.2533645629882812,-0.01410759799182415,-0.004791259765625,0.0026618109550327063
2600689141625,1.4508862495422363,-9.738415718078613,1.238999366760254,-0.01463996060192585,-0.005589802749454975,0.0021294488105922937
2600690378775,1.4891934394836426,-9.730035781860352,1.260547161102295,-0.01650322787463665,-0.0066545275039970875,-0.0010647244052961469
2600691615937,1.460463047027588,-9.713275909423828,1.2318167686462402,-0.01463996060192585,-0.007453070487827063,0.0013309054775163531
2600692853050,1.4844050407409668,-9.745597839355469,1.2449848651885986,-0.0114457868039608,-0.0026618109550327063,0.003460354171693325
2600694090212,1.4484920501708984,-9.68694019317627,1.3048399686813354,-0.006122165359556675,-0.0018632676219567657,0.005057440605014563
2600695327362,1.5251065492630005,-9.727641105651855,1.2318167686462402,-0.01597086526453495,-0.0002661811013240367,-0.0007985432748682797
2600696564500,1.459265947341919,-9.718064308166504,1.2533645629882812,-0.0157046839594841,-0.004791259765625,-0.0037265352439135313
2600697801650,1.479616641998291,-9.734824180603027,1.258152961730957,-0.0162370465695858,-0.0066545275039970875,0.0015970865497365594
2600699038787,1.4652514457702637,-9.690531730651855,1.2509703636169434,-0.01650322787463665,-0.0077192517928779125,0.0010647244052961469
2600700275937,1.456871747970581,-9.702502250671387,1.2090718746185303,-0.0119781494140625,-0.008783976547420025,-0.0063883461989462376
2600701513075,1.4664485454559326,-9.713275909423828,1.2689268589019775,-0.015172322280704975,-0.010381062515079975,-0.005855984054505825
2600702750225,1.4628572463989258,-9.692925453186035,1.2497732639312744,-0.012776692397892475,-0.00984870083630085,0.00452507846057415
2600703987362,1.45806884765625,-9.684545516967773,1.290474772453308,-0.01463996060192585,-0.005589802749454975,0.0013309054775163531
2600705224525,1.4018051624298096,-9.670180320739746,1.2533645629882812,-0.01463996060192585,-0.008251613937318325,0.0018632676219567657
2600706461675,1.4508862495422363,-9.715670585632324,1.2461819648742676,-0.0138414166867733,-0.0071868896484375,-0.0010647244052961469
2600707698800,1.479616641998291,-9.676166534423828,1.2306196689605713,-0.010913425125181675,-0.0042588976211845875,-0.0021294488105922937
2600708935962,1.4305355548858643,-9.726444244384766,1.2641384601593018,-0.01410759799182415,-0.0039927163161337376,-0.00452507846057415
2600710173112,1.4484920501708984,-9.683348655700684,1.2066776752471924,-0.0167694091796875,-0.004791259765625,0.0005323622026480734
2600711410225,1.4760253429412842,-9.66419506072998,1.2689268589019775,-0.01650322787463665,-0.0042588976211845875,-0.0039927163161337376
2600712647387,1.48081374168396,-9.666589736938477,1.2713210582733154,-0.014373779296875,-0.008251613937318325,-0.0037265352439135313
2600713884537,1.460463047027588,-9.695320129394531,1.2198457717895508,-0.008251613937318325,-0.0071868896484375,0.0029279920272529125
2600715121687,1.4963760375976562,-9.702502250671387,1.2761094570159912,-0.012776692397892475,-0.0077192517928779125,0.0
2600716358812,1.4616601467132568,-9.738415718078613,1.259350061416626,-0.012510511092841625,-0.00984870083630085,0.0029279920272529125
2600717595975,1.4293384552001953,-9.718064308166504,1.256955862045288,-0.014906140975654125,-0.010114881210029125,-0.0037265352439135313
2600718833125,1.4748282432556152,-9.668983459472656,1.2773066759109497,-0.0119781494140625,-0.0119781494140625,-0.0029279920272529125
2600720070262,1.4664485454559326,-9.684545516967773,1.2617442607879639,-0.010647243820130825,-0.00931633822619915,-0.00452507846057415
2600721307400,1.4700398445129395,-9.703699111938477,1.2018892765045166,-0.010647243820130825,-0.00692070834338665,-0.003460354171693325
2600722544550,1.4879963397979736,-9.715670585632324,1.1803414821624756,-0.01410759799182415,-0.0066545275039970875,-0.004791259765625
2600723781712,1.5215152502059937,-9.703699111938477,1.260547161102295,-0.00931633822619915,-0.008517795242369175,-0.0018632676219567657
2600725018837,1.48081374168396,-9.682151794433594,1.260547161102295,-0.008517795242369175,-0.007453070487827063,-0.00452507846057415
2600726256000,1.4640543460845947,-9.673771858215332,1.2773066759109497,-0.00958251953125,-0.010381062515079975,-0.0071868896484375
2600727493150,1.4520833492279053,-9.727641105651855,1.2832921743392944,-0.0114457868039608,-0.012776692397892475,-0.0042588976211845875
2600728730275,1.4628572463989258,-9.690531730651855,1.258152961730957,-0.008517795242369175,-0.010647243820130825,-0.0026618109550327063
2600729967425,1.4628572463989258,-9.691728591918945,1.2545616626739502,-0.00692070834338665,-0.007453070487827063,-0.0039927163161337376
2600731204562,1.4724340438842773,-9.691728591918945,1.2641384601593018,-0.00692070834338665,-0.01117960549890995,-0.0037265352439135313
2600732441725,1.4413094520568848,-9.691728591918945,1.2713210582733154,-0.004791259765625,-0.01650322787463665,-0.003460354171693325
2600733678862,1.4460978507995605,-9.680954933166504,1.2545616626739502,-0.0063883461989462376,-0.012776692397892475,-0.0013309054775163531
2600734916012,1.4221558570861816,-9.659406661987305,1.236605167388916,-0.01224433071911335,-0.012510511092841625,-0.005057440605014563
2600736153137,1.456871747970581,-9.68694019317627,1.2641384601593018,-0.0071868896484375,-0.00958251953125,-0.0071868896484375
2600737390312,1.455674648284912,-9.682151794433594,1.258152961730957,-0.0066545275039970875,-0.010647243820130825,-0.0063883461989462376
2600738627437,1.4676456451416016,-9.66299819946289,1.2318167686462402,-0.010381062515079975,-0.00958251953125,-0.0042588976211845875
2600739864575,1.4712369441986084,-9.62828254699707,1.2617442607879639,-0.014373779296875,-0.0029279920272529125,-0.0031941730994731188
2600741101737,1.4640543460845947,-9.672574996948242,1.2425906658172607,-0.005855984054505825,-0.0090501569211483,-0.0066545275039970875
2600742338862,1.482010841369629,-9.666589736938477,1.235408067703247,-0.0071868896484375,-0.01171196810901165,-0.0042588976211845875
2600743576012,1.4484920501708984,-9.710882186889648,1.2797008752822876,-0.00692070834338665,-0.0138414166867733,-0.005057440605014563
2600744813162,1.4437036514282227,-9.674968719482422,1.2461819648742676,-0.007985432632267475,-0.010913425125181675,-0.0037265352439135313
2600746050300,1.4951789379119873,-9.666589736938477,1.2749123573303223,-0.005057440605014563,-0.01117960549890995,-0.0066545275039970875
2600747287450,1.5155296325683594,-9.676166534423828,1.259350061416626,-0.0042588976211845875,-0.014373779296875,-0.005855984054505825
2600748524612,1.4293384552001953,-9.68694019317627,1.2425906658172607,-0.0002661811013240367,-0.010913425125181675,-0.003460354171693325
2600749761737,1.4736311435699463,-9.678560256958008,1.2677297592163086,-0.0018632676219567657,-0.0138414166867733,-0.0026618109550327063
2600750998875,1.4616601467132568,-9.643844604492188,1.2054805755615234,-0.004791259765625,-0.0119781494140625,-0.0005323622026480734
2600752236025,1.4041993618011475,-9.673771858215332,1.2689268589019775,-0.0002661811013240367,-0.006122165359556675,-0.0037265352439135313
2600753473175,1.4425065517425537,-9.667786598205566,1.237802267074585,-0.0015970865497365594,-0.010381062515079975,-0.008517795242369175
2600754710325,1.4449007511138916,-9.680954933166504,1.217451572418213,-0.005057440605014563,-0.00931633822619915,-0.0077192517928779125
2600755947475,1.4712369441986084,-9.683348655700684,1.2533645629882812,-0.00692070834338665,-0.008783976547420025,-0.004791259765625
2600757184625,1.459265947341919,-9.701305389404297,1.2413935661315918,-0.0013309054775163531,-0.01171196810901165,-0.0066545275039970875
2600758421762,1.4652514457702637,-9.697713851928711,1.2042834758758545,0.0031941730994731188,-0.008783976547420025,-0.008783976547420025
2600759658912,1.4748282432556152,-9.716867446899414,1.2820950746536255,-0.0029279920272529125,-0.010381062515079975,-0.014373779296875
2600760896062,1.4305355548858643,-9.713275909423828,1.2629413604736328,-0.004791259765625,-0.007985432632267475,-0.01117960549890995
2600762133200,1.4700398445129395,-9.702502250671387,1.2988544702529907,-0.0002661811013240367,-0.0090501569211483,-0.00984870083630085
2600763370350,1.4724340438842773,-9.668983459472656,1.2425906658172607,-0.0005323622026480734,-0.007985432632267475,-0.012776692397892475
2600764607500,1.4628572463989258,-9.682151794433594,1.2461819648742676,0.0013309054775163531,-0.007985432632267475,-0.0119781494140625
2600765844625,1.4891934394836426,-9.692925453186035,1.2665326595306396,0.005057440605014563,-0.01224433071911335,-0.010114881210029125
2600767081787,1.4449007511138916,-9.668983459472656,1.1899182796478271,0.0015970865497365594,-0.010913425125181675,-0.008783976547420025
2600768318925,1.4760253429412842,-9.692925453186035,1.2186486721038818,0.0015970865497365594,-0.00931633822619915,-0.010381062515079975
2600769556062,1.4867992401123047,-9.696516990661621,1.2401964664459229,0.0005323622026480734,-0.015438503585755825,-0.014373779296875
2600770793212,1.4844050407409668,-9.701305389404297,1.2042834758758545,0.0021294488105922937,-0.01224433071911335,-0.012776692397892475
2600772030375,1.4987702369689941,-9.690531730651855,1.258152961730957,0.0042588976211845875,-0.01171196810901165,-0.008517795242369175
2600773267500,1.434126853942871,-9.697713851928711,1.256955862045288,-0.0002661811013240367,-0.007985432632267475,-0.0077192517928779125
2600774504650,1.43532395362854,-9.695320129394531,1.256955862045288,0.0007985432748682797,-0.0114457868039608,-0.00958251953125
2600775741787,1.4389152526855469,-9.671378135681152,1.1887211799621582,0.0037265352439135313,-0.0053236219100654125,-0.01463996060192585
2600776978950,1.4437036514282227,-9.690531730651855,1.1863269805908203,0.0007985432748682797,-0.0071868896484375,-0.01463996060192585
2600778216087,1.4520833492279053,-9.691728591918945,1.2425906658172607,0.00452507846057415,-0.0114457868039608,-0.01171196810901165
2600779453237,1.4532804489135742,-9.707290649414062,1.2701239585876465,0.007453070487827063,-0.013309055007994175,-0.014906140975654125
2600780690387,1.4676456451416016,-9.701305389404297,1.2629413604736328,0.007985432632267475,-0.0119781494140625,-0.00931633822619915
2600781927525,1.459265947341919,-9.712079048156738,1.2294225692749023,0.006122165359556675,-0.010114881210029125,-0.010381062515079975
2600783164662,1.43532395362854,-9.6989107131958,1.2629413604736328,0.007453070487827063,-0.00958251953125,-0.015438503585755825
2600784401812,1.4532804489135742,-9.709685325622559,1.2797008752822876,0.0066545275039970875,-0.010647243820130825,-0.0196974016726017
2600785638975,1.4724340438842773,-9.704896926879883,1.2773066759109497,0.006122165359556675,-0.010913425125181675,-0.013042873702943325
2600786876112,1.4640543460845947,-9.714473724365234,1.2461819648742676,0.004791259765625,-0.007453070487827063,-0.01224433071911335
2600788113262,1.4221558570861816,-9.68813705444336,1.194706678390503,0.00984870083630085,-0.0053236219100654125,-0.01597086526453495
2600789350400,1.4305355548858643,-9.712079048156738,1.2629413604736328,0.00984870083630085,-0.00931633822619915,-0.0138414166867733
2600790587537,1.4472949504852295,-9.696516990661621,1.256955862045288,0.0077192517928779125,-0.0071868896484375,-0.0157046839594841
2600791824700,1.4736311435699463,-9.694122314453125,1.2306196689605713,0.0063883461989462376,-0.004791259765625,-0.014373779296875
2600793061837,1.456871747970581,-9.706093788146973,1.2737152576446533,0.008517795242369175,-0.0018632676219567657,-0.01463996060192585
2600794298975,1.4209587574005127,-9.694122314453125,1.2342109680175781,0.010647243820130825,-0.0029279920272529125,-0.0138414166867733
2600795536125,1.4652514457702637,-9.71926212310791,1.2210428714752197,0.00984870083630085,-0.0090501569211483,-0.01996358297765255
2600796773275,1.459265947341919,-9.737218856811523,1.1971008777618408,0.006122165359556675,-0.007453070487827063,-0.01756795309484005
2600798010425,1.4532804489135742,-9.734824180603027,1.235408067703247,0.010913425125181675,-0.004791259765625,-0.012510511092841625
2600799247550,1.4844050407409668,-9.770737648010254,1.258152961730957,0.00958251953125,-0.0037265352439135313,-0.01756795309484005
2600800484700,1.4927847385406494,-9.744400978088379,1.2976573705673218,0.0090501569211483,-0.005589802749454975,-0.0173017717897892
2600801721850,1.4496891498565674,-9.72165584564209,1.2222399711608887,0.007985432632267475,-0.003460354171693325,-0.015172322280704975
2600802959000,1.4413094520568848,-9.725247383117676,1.194706678390503,0.003460354171693325,-0.005855984054505825,-0.01756795309484005
2600804196150,1.4269442558288574,-9.720458984375,1.2473790645599365,0.007985432632267475,-0.0066545275039970875,-0.01410759799182415
2600805433287,1.4700398445129395,-9.733627319335938,1.258152961730957,0.0066545275039970875,-0.0071868896484375,-0.0181003138422966
2600806670450,1.4389152526855469,-9.733627319335938,1.294066071510315,0.0063883461989462376,-0.0023956298828125,-0.01783413253724575
2600807907587,1.4532804489135742,-9.739612579345703,1.2449848651885986,0.01171196810901165,0.0005323622026480734,-0.01836649514734745
2600809144725,1.4460978507995605,-9.716867446899414,1.2449848651885986,0.01171196810901165,-0.0066545275039970875,-0.01756795309484005
2600810381887,1.4652514457702637,-9.724050521850586,1.260547161102295,0.006122165359556675,-0.0066545275039970875,-0.0119781494140625
2600811619025,1.502361536026001,-9.707290649414062,1.2282254695892334,0.0114457868039608,-0.01171196810901165,-0.012510511092841625
2600812856175,1.4903905391693115,-9.690531730651855,1.2425906658172607,0.00931633822619915,-0.006122165359556675,-0.01357523538172245
2600814093300,1.4915876388549805,-9.714473724365234,1.237802267074585,0.0090501569211483,-0.0007985432748682797,-0.013309055007994175
2600815330462,1.4269442558288574,-9.726444244384766,1.2617442607879639,0.0071868896484375,-0.007453070487827063,-0.01597086526453495
2600816567600,1.4879963397979736,-9.734824180603027,1.2629413604736328,0.01117960549890995,-0.01224433071911335,-0.01650322787463665
2600817804750,1.4903905391693115,-9.716867446899414,1.2521674633026123,0.01463996060192585,-0.008517795242369175,-0.012776692397892475
2600819041887,1.50355863571167,-9.750386238098145,1.2485761642456055,0.00984870083630085,-0.0015970865497365594,-0.015172322280704975
2600820279037,1.4963760375976562,-9.732430458068848,1.2832921743392944,0.0119781494140625,-0.0037265352439135313,-0.015438503585755825
2600821516162,1.5095441341400146,-9.692925453186035,1.2832921743392944,0.010114881210029125,-0.0039927163161337376,-0.01597086526453495
2600822753312,1.4963760375976562,-9.724050521850586,1.2785037755966187,0.007985432632267475,-0.0005323622026480734,-0.01703559048473835
2600823990462,1.4460978507995605,-9.728838920593262,1.2964602708816528,0.008251613937318325,-0.0029279920272529125,-0.0138414166867733
2600825227625,1.4748282432556152,-9.736021041870117,1.2808979749679565,0.00931633822619915,-0.003460354171693325,-0.01650322787463665
2600826464775,1.479616641998291,-9.684545516967773,1.2737152576446533,0.00931633822619915,-0.0023956298828125,-0.0167694091796875
2600827701912,1.4748282432556152,-9.695320129394531,1.2701239585876465,0.01224433071911335,-0.005057440605014563,-0.0173017717897892
2600828939050,1.4724340438842773,-9.727641105651855,1.2521674633026123,0.010647243820130825,-0.005589802749454975,-0.01703559048473835
2600830176200,1.4903905391693115,-9.701305389404297,1.2629413604736328,0.012510511092841625,-0.0037265352439135313,-0.015172322280704975
2600831413350,1.5167267322540283,-9.6989107131958,1.2761094570159912,0.010647243820130825,-0.00931633822619915,-0.015438503585755825
2600832650500,1.4389152526855469,-9.720458984375,1.2653355598449707,0.01171196810901165,-0.00452507846057415,-0.014373779296875
2600833887625,1.4915876388549805,-9.72285270690918,1.2665326595306396,0.01650322787463665,-0.0039927163161337376,-0.01650322787463665
2600835124775,1.4664485454559326,-9.690531730651855,1.2533645629882812,0.01650322787463665,-0.0031941730994731188,-0.01410759799182415
2600836361925,1.4891934394836426,-9.680954933166504,1.2868834733963013,0.01597086526453495,-0.003460354171693325,-0.0119781494140625
2600837599075,1.455674648284912,-9.718064308166504,1.2677297592163086,0.0119781494140625,-0.0013309054775163531,-0.012776692397892475
2600838836212,1.53707754611969,-9.68694019317627,1.2820950746536255,0.014906140975654125,-0.004791259765625,-0.01703559048473835
2600840073362,1.5203181505203247,-9.72165584564209,1.2880805730819702,0.0167694091796875,-0.0023956298828125,-0.0157046839594841
2600841310500,1.4927847385406494,-9.700108528137207,1.2880805730819702,0.012776692397892475,-0.0077192517928779125,-0.0162370465695858
2600842547650,1.45806884765625,-9.678560256958008,1.2617442607879639,0.00984870083630085,-0.0053236219100654125,-0.01783413253724575
2600843784800,1.5239094495773315,-9.700108528137207,1.2653355598449707,0.014906140975654125,-0.0023956298828125,-0.0191650390625
2600845021937,1.4760253429412842,-9.694122314453125,1.3048399686813354,0.01783413253724575,-0.0026618109550327063,-0.01597086526453495
2600846259075,1.4879963397979736,-9.660603523254395,1.256955862045288,0.01836649514734745,-0.0002661811013240367,-0.014906140975654125
2600847496237,1.4915876388549805,-9.674968719482422,1.2198457717895508,0.01783413253724575,-0.005589802749454975,-0.01597086526453495
2600848733375,1.5155296325683594,-9.68694019317627,1.2749123573303223,0.0162370465695858,-0.0077192517928779125,-0.01597086526453495
2600849970512,1.4760253429412842,-9.700108528137207,1.237802267074585,0.01597086526453495,-0.0021294488105922937,-0.015172322280704975
2600851207675,1.4939818382263184,-9.713275909423828,1.3048399686813354,0.0157046839594841,-0.008251613937318325,-0.01463996060192585
2600852444812,1.4975731372833252,-9.68933391571045,1.2665326595306396,0.012776692397892475,-0.008251613937318325,-0.0138414166867733
2600853681975,1.5095441341400146,-9.707290649414062,1.2725181579589844,0.01703559048473835,-0.00452507846057415,-0.014373779296875
2600854919100,1.5263036489486694,-9.743204116821289,1.2485761642456055,0.01703559048473835,-0.0063883461989462376,-0.0157046839594841
2600856156250,1.501164436340332,-9.709685325622559,1.2246341705322266,0.014373779296875,-0.0031941730994731188,-0.02022976242005825
2600857393387,1.5310920476913452,-9.75397777557373,1.238999366760254,0.0157046839594841,-0.005057440605014563,-0.0119781494140625
2600858630550,1.4927847385406494,-9.72285270690918,1.3120225667953491,0.015172322280704975,-0.00692070834338665,-0.006122165359556675
2600859867687,1.5215152502059937,-9.71926212310791,1.2533645629882812,0.0204959437251091,-0.010381062515079975,-0.014373779296875
2600861104850,1.4987702369689941,-9.718064308166504,1.2713210582733154,0.02022976242005825,-0.0063883461989462376,-0.01463996060192585
2600862341975,1.5382746458053589,-9.726444244384766,1.2737152576446533,0.01996358297765255,-0.0042588976211845875,-0.0119781494140625
2600863579125,1.4927847385406494,-9.6989107131958,1.3024457693099976,0.0204959437251091,-0.0063883461989462376,-0.015172322280704975
2600864816275,1.5275007486343384,-9.68574333190918,1.2437877655029297,0.01703559048473835,-0.005855984054505825,-0.0157046839594841
2600866053412,1.5215152502059937,-9.706093788146973,1.256955862045288,0.01703559048473835,-0.005589802749454975,-0.014906140975654125
2600867290550,1.5239094495773315,-9.720458984375,1.2773066759109497,0.0138414166867733,-0.008251613937318325,-0.0157046839594841
2600868527725,1.5310920476913452,-9.7420072555542,1.2749123573303223,0.01943122036755085,-0.00984870083630085,-0.007985432632267475
2600869764862,1.50355863571167,-9.743204116821289,1.294066071510315,0.0167694091796875,-0.0053236219100654125,-0.013042873702943325
2600871002000,1.5275007486343384,-9.694122314453125,1.2641384601593018,0.0162370465695858,-0.0037265352439135313,-0.01650322787463665
2600872239137,1.460463047027588,-9.732430458068848,1.2509703636169434,0.01597086526453495,-0.0077192517928779125,-0.01597086526453495
2600873476275,1.479616641998291,-9.739612579345703,1.2078747749328613,0.01783413253724575,-0.008517795242369175,-0.013042873702943325
2600874713437,1.5275007486343384,-9.690531730651855,1.2186486721038818,0.0215606689453125,-0.0031941730994731188,-0.00984870083630085
2600875950600,1.501164436340332,-9.709685325622559,1.2701239585876465,0.0181003138422966,-0.0031941730994731188,-0.01171196810901165
2600877187737,1.501164436340332,-9.745597839355469,1.2725181579589844,0.0186326764523983,-0.0077192517928779125,-0.013309055007994175
2600878424887,1.4987702369689941,-9.749189376831055,1.2342109680175781,0.0191650390625,-0.010381062515079975,-0.015438503585755825
2600879662025,1.5310920476913452,-9.731232643127441,1.237802267074585,0.01703559048473835,-0.0090501569211483,-0.01171196810901165
2600880899162,1.4760253429412842,-9.743204116821289,1.2725181579589844,0.01783413253724575,-0.003460354171693325,-0.0071868896484375
2600882136312,1.4891934394836426,-9.738415718078613,1.260547161102295,0.01756795309484005,-0.007453070487827063,-0.014373779296875
2600883373450,1.4915876388549805,-9.724050521850586,1.2808979749679565,0.0162370465695858,-0.006122165359556675,-0.01357523538172245
2600884610600,1.5239094495773315,-9.72165584564209,1.2497732639312744,0.0186326764523983,-0.01224433071911335,-0.008251613937318325
2600885847750,1.534683346748352,-9.725247383117676,1.2713210582733154,0.01943122036755085,-0.01224433071911335,-0.008251613937318325
2600887084900,1.5310920476913452,-9.734824180603027,1.3024457693099976,0.01703559048473835,-0.0181003138422966,-0.010114881210029125
2600888322025,1.5263036489486694,-9.731232643127441,1.290474772453308,0.0173017717897892,-0.01463996060192585,-0.007453070487827063
2600889559187,1.5143325328826904,-9.701305389404297,1.3036428689956665,0.0173017717897892,-0.008251613937318325,-0.008251613937318325
2600890796350,1.5071499347686768,-9.731232643127441,1.2976573705673218,0.01783413253724575,-0.010913425125181675,-0.007985432632267475
2600892033475,1.5083470344543457,-9.75397777557373,1.2832921743392944,0.01783413253724575,-0.01650322787463665,-0.006122165359556675
2600893270612,1.501164436340332,-9.709685325622559,1.2701239585876465,0.0173017717897892,-0.014906140975654125,-0.005855984054505825
2600894507775,1.5251065492630005,-9.765949249267578,1.3048399686813354,0.0181003138422966,-0.0119781494140625,-0.006122165359556675
2600895744925,1.5310920476913452,-9.702502250671387,1.2844892740249634,0.0157046839594841,-0.01410759799182415,-0.003460354171693325
2600896982062,1.5478514432907104,-9.71926212310791,1.2689268589019775,0.0157046839594841,-0.0138414166867733,-0.00958251953125
2600898219212,1.5239094495773315,-9.732430458068848,1.2401964664459229,0.0167694091796875,-0.012776692397892475,-0.005855984054505825
2600899456362,1.5251065492630005,-9.726444244384766,1.2449848651885986,0.02262539230287075,-0.00958251953125,-0.0021294488105922937
2600900693512,1.5286978483200073,-9.690531730651855,1.2641384601593018,0.02182685025036335,-0.01224433071911335,-0.005589802749454975
2600901930662,1.5143325328826904,-9.726444244384766,1.2785037755966187,0.0162370465695858,-0.0138414166867733,-0.0021294488105922937
2600903167787,1.5119383335113525,-9.731232643127441,1.2665326595306396,0.01783413253724575,-0.010913425125181675,-0.0026618109550327063
2600904404937,1.5538369417190552,-9.747992515563965,1.2485761642456055,0.0157046839594841,-0.0114457868039608,-0.004791259765625
2600905642087,1.534683346748352,-9.718064308166504,1.2952631711959839,0.01836649514734745,-0.0138414166867733,-0.0015970865497365594
2600906879237,1.5119383335113525,-9.734824180603027,1.3012486696243286,0.015438503585755825,-0.0138414166867733,-0.0002661811013240367
2600908116362,1.5298949480056763,-9.716867446899414,1.2856863737106323,0.01597086526453495,-0.01463996060192585,0.0007985432748682797
2600909353525,1.5406688451766968,-9.72165584564209,1.3180080652236938,0.02076212503015995,-0.01410759799182415,-0.0042588976211845875
2600910590662,1.5526398420333862,-9.704896926879883,1.260547161102295,0.015438503585755825,-0.015172322280704975,0.0026618109550327063
2600911827812,1.5382746458053589,-9.726444244384766,1.2713210582733154,0.013042873702943325,-0.0162370465695858,0.0013309054775163531
2600913064950,1.5298949480056763,-9.7420072555542,1.2832921743392944,0.014373779296875,-0.0181003138422966,-0.0015970865497365594
2600914302100,1.5215152502059937,-9.695320129394531,1.260547161102295,0.01783413253724575,-0.0167694091796875,0.0042588976211845875
2600915539250,1.5071499347686768,-9.714473724365234,1.3120225667953491,0.01996358297765255,-0.01783413253724575,0.0053236219100654125
2600916776375,1.499967336654663,-9.730035781860352,1.259350061416626,0.02129448764026165,-0.02076212503015995,-0.0007985432748682797
2600918013537,1.501164436340332,-9.734824180603027,1.3012486696243286,0.0186326764523983,-0.01836649514734745,0.0013309054775163531
2600919250687,1.534683346748352,-9.725247383117676,1.2832921743392944,0.014373779296875,-0.01996358297765255,0.0021294488105922937
2600920487850,1.5131354331970215,-9.744400978088379,1.3275848627090454,0.01703559048473835,-0.02129448764026165,0.0018632676219567657
2600921724975,1.5215152502059937,-9.695320129394531,1.2629413604736328,0.015172322280704975,-0.01943122036755085,0.0021294488105922937
2600922962112,1.5406688451766968,-9.691728591918945,1.2641384601593018,0.01650322787463665,-0.0191650390625,0.0031941730994731188
2600924199275,1.5622166395187378,-9.728838920593262,1.2437877655029297,0.0173017717897892,-0.01943122036755085,0.0026618109550327063
2600925436400,1.535880446434021,-9.732430458068848,1.291671872138977,0.01996358297765255,-0.01889885775744915,0.0053236219100654125
2600926673562,1.5514427423477173,-9.683348655700684,1.315613865852356,0.0181003138422966,-0.0173017717897892,0.00452507846057415
2600927910700,1.5430630445480347,-9.709685325622559,1.2844892740249634,0.01703559048473835,-0.02315775491297245,0.0063883461989462376
2600929147862,1.5047557353973389,-9.734824180603027,1.3000515699386597,0.01783413253724575,-0.0252872034907341,0.004791259765625
2600930385000,1.5119383335113525,-9.713275909423828,1.3192051649093628,0.0173017717897892,-0.0204959437251091,0.00452507846057415
2600931622137,1.5251065492630005,-9.734824180603027,1.3120225667953491,0.0196974016726017,-0.02129448764026165,0.007453070487827063
2600932859275,1.5107412338256836,-9.713275909423828,1.236605167388916,0.0157046839594841,-0.02129448764026165,0.008783976547420025
2600934096425,1.5490485429763794,-9.690531730651855,1.2988544702529907,0.01410759799182415,-0.02502102218568325,0.0015970865497365594
2600935333600,1.534683346748352,-9.715670585632324,1.3084312677383423,0.015438503585755825,-0.02502102218568325,0.0018632676219567657
2600936570712,1.5310920476913452,-9.716867446899414,1.2545616626739502,0.0186326764523983,-0.023956298828125,0.006122165359556675
2600937807862,1.5466543436050415,-9.724050521850586,1.294066071510315,0.0162370465695858,-0.02555338479578495,0.010114881210029125
2600939045025,1.5251065492630005,-9.728838920593262,1.2976573705673218,0.014373779296875,-0.02981228195130825,0.008517795242369175
2600940282162,1.5227123498916626,-9.668983459472656,1.3251906633377075,0.01650322787463665,-0.0228915736079216,0.007453070487827063
2600941519325,1.5430630445480347,-9.71926212310791,1.3048399686813354,0.013309055007994175,-0.0234239362180233,0.007453070487827063
2600942756462,1.5107412338256836,-9.724050521850586,1.2808979749679565,0.0173017717897892,-0.02422248013317585,0.008251613937318325
2600943993600,1.5179238319396973,-9.707290649414062,1.3096283674240112,0.01410759799182415,-0.02262539230287075,0.00958251953125
2600945230762,1.5227123498916626,-9.745597839355469,1.2797008752822876,0.01224433071911335,-0.02794901467859745,0.0053236219100654125
2600946467887,1.5442601442337036,-9.764751434326172,1.2713210582733154,0.012510511092841625,-0.0276828333735466,0.008251613937318325
2600947705037,1.5442601442337036,-9.727641105651855,1.3694833517074585,0.0157046839594841,-0.02555338479578495,0.014906140975654125
2600948942187,1.5203181505203247,-9.730035781860352,1.3443442583084106,0.01597086526453495,-0.0258195661008358,0.010647243820130825
2600950179325,1.5239094495773315,-9.68694019317627,1.3120225667953491,0.015438503585755825,-0.0314093679189682,0.0071868896484375
2600951416475,1.5729905366897583,-9.710882186889648,1.2725181579589844,0.010913425125181675,-0.0295461006462574,0.01224433071911335
2600952653625,1.5538369417190552,-9.72285270690918,1.2749123573303223,0.0138414166867733,-0.02661811001598835,0.01357523538172245
2600953890775,1.5310920476913452,-9.75397777557373,1.237802267074585,0.0196974016726017,-0.0314093679189682,0.010913425125181675
2600955127912,1.5514427423477173,-9.745597839355469,1.2892776727676392,0.01996358297765255,-0.0367329902946949,0.01357523538172245
2600956365075,1.5107412338256836,-9.702502250671387,1.337161660194397,0.02262539230287075,-0.0324740931391716,0.013309055007994175
2600957602200,1.5059528350830078,-9.680954933166504,1.2749123573303223,0.01756795309484005,-0.0276828333735466,0.01357523538172245
2600958839362,1.5095441341400146,-9.728838920593262,1.2880805730819702,0.0162370465695858,-0.0324740931391716,0.014906140975654125
2600960076487,1.5083470344543457,-9.720458984375,1.290474772453308,0.012510511092841625,-0.0322079136967659,0.015438503585755825
2600961313650,1.5550340414047241,-9.696516990661621,1.3036428689956665,0.01410759799182415,-0.02981228195130825,0.013309055007994175
2600962550812,1.5131354331970215,-9.679757118225098,1.290474772453308,0.0186326764523983,-0.0295461006462574,0.008783976547420025
2600963787937,1.4915876388549805,-9.716867446899414,1.259350061416626,0.01597086526453495,-0.0311431884765625,0.0077192517928779125
2600965025100,1.4915876388549805,-9.730035781860352,1.2952631711959839,0.0210283063352108,-0.02901373989880085,0.0167694091796875
2600966262237,1.5298949480056763,-9.6618013381958,1.358709454536438,0.0186326764523983,-0.0282151959836483,0.0181003138422966
2600967499387,1.533486247062683,-9.68574333190918,1.3120225667953491,0.0186326764523983,-0.0324740931391716,0.014906140975654125
2600968736525,1.5275007486343384,-9.679757118225098,1.2892776727676392,0.02022976242005825,-0.03034464456140995,0.01889885775744915
2600969973662,1.5526398420333862,-9.68694019317627,1.2725181579589844,0.01889885775744915,-0.03087700717151165,0.01597086526453495
2600971210825,1.558625340461731,-9.674968719482422,1.2844892740249634,0.02182685025036335,-0.0316755510866642,0.0191650390625
2600972447962,1.5717934370040894,-9.726444244384766,1.2677297592163086,0.0215606689453125,-0.02981228195130825,0.0181003138422966
2600973685125,1.5167267322540283,-9.718064308166504,1.3036428689956665,0.02262539230287075,-0.0327402763068676,0.01224433071911335
2600974922275,1.533486247062683,-9.704896926879883,1.316810965538025,0.0210283063352108,-0.0340711809694767,0.01943122036755085
2600976159387,1.5143325328826904,-9.726444244384766,1.315613865852356,0.0196974016726017,-0.0319417305290699,0.0223592109978199
2600977396550,1.5095441341400146,-9.746795654296875,1.2832921743392944,0.02129448764026165,-0.0314093679189682,0.0215606689453125
2600978633687,1.501164436340332,-9.713275909423828,1.2701239585876465,0.02182685025036335,-0.033272635191679,0.0210283063352108
2600979870837,1.4939818382263184,-9.728838920593262,1.315613865852356,0.02129448764026165,-0.0346035435795784,0.0162370465695858
2600981107975,1.4640543460845947,-9.768342971801758,1.3479355573654175,0.0244886614382267,-0.0375315360724926,0.02315775491297245
2600982345150,1.4927847385406494,-9.746795654296875,1.334767460823059,0.0210283063352108,-0.0407257080078125,0.0223592109978199
2600983582262,1.48081374168396,-9.75517463684082,1.3227964639663696,0.0204959437251091,-0.0369991734623909,0.01996358297765255
2600984819425,1.5155296325683594,-9.763554573059082,1.3239935636520386,0.0220930315554142,-0.0330064557492733,0.02129448764026165
2600986056575,1.48081374168396,-9.747992515563965,1.2868834733963013,0.0186326764523983,-0.0322079136967659,0.0196974016726017
2600987293712,1.4939818382263184,-9.745597839355469,1.3275848627090454,0.0191650390625,-0.0356682650744915,0.01756795309484005
2600988530875,1.5131354331970215,-9.762357711791992,1.3311761617660522,0.02315775491297245,-0.0348697230219841,0.0210283063352108
2600989768000,1.4939818382263184,-9.747992515563965,1.337161660194397,0.02129448764026165,-0.0351359061896801,0.0234239362180233
2600991005150,1.4856021404266357,-9.737218856811523,1.335964560508728,0.02369011752307415,-0.0316755510866642,0.0196974016726017
2600992242325,1.479616641998291,-9.72285270690918,1.3419500589370728,0.01703559048473835,-0.0319417305290699,0.01783413253724575
2600993479450,1.48081374168396,-9.71926212310791,1.3311761617660522,0.01943122036755085,-0.0356682650744915,0.0252872034907341
2600994716600,1.4951789379119873,-9.720458984375,1.3096283674240112,0.01889885775744915,-0.038330078125,0.0234239362180233
2600995953737,1.5179238319396973,-9.756372451782227,1.2832921743392944,0.014373779296875,-0.03087700717151165,0.01756795309484005
2600997190887,1.5191209316253662,-9.736021041870117,1.3024457693099976,0.0167694091796875,-0.0322079136967659,0.02315775491297245
2600998428037,1.5167267322540283,-9.715670585632324,1.290474772453308,0.0228915736079216,-0.0404595248401165,0.02315775491297245
2600999665187,1.4772224426269531,-9.715670585632324,1.2868834733963013,0.01650322787463665,-0.0388624407351017,0.0181003138422966
2601000902325,1.4844050407409668,-9.738415718078613,1.3012486696243286,0.01889885775744915,-0.0369991734623909,0.0247548408806324
2601002139462,1.501164436340332,-9.712079048156738,1.314416766166687,0.0223592109978199,-0.0369991734623909,0.0295461006462574
2601003376625,1.5059528350830078,-9.718064308166504,1.3048399686813354,0.01756795309484005,-0.0388624407351017,0.0228915736079216
2601004613762,1.5131354331970215,-9.727641105651855,1.3072341680526733,0.0167694091796875,-0.0359344482421875,0.0244886614382267
2601005850925,1.5119383335113525,-9.683348655700684,1.3299790620803833,0.01756795309484005,-0.0306108258664608,0.01889885775744915
2601007088062,1.48081374168396,-9.726444244384766,1.3467384576797485,0.015172322280704975,-0.0340711809694767,0.01943122036755085
2601008325200,1.499967336654663,-9.716867446899414,1.3251906633377075,0.01756795309484005,-0.0364668108522892,0.02022976242005825
2601009562362,1.5155296325683594,-9.694122314453125,1.3096283674240112,0.0181003138422966,-0.0354020856320858,0.01597086526453495
2601010799512,1.482010841369629,-9.671378135681152,1.3419500589370728,0.01650322787463665,-0.0338049978017807,0.0215606689453125
2601012036637,1.499967336654663,-9.680954933166504,1.3024457693099976,0.0167694091796875,-0.0311431884765625,0.01996358297765255
2601013273775,1.45806884765625,-9.694122314453125,1.3551181554794312,0.01889885775744915,-0.0343373604118824,0.0191650390625
2601014510937,1.45806884765625,-9.691728591918945,1.3060370683670044,0.02022976242005825,-0.038063894957304,0.015438503585755825
2601015748087,1.4209587574005127,-9.674968719482422,1.3180080652236938,0.0186326764523983,-0.0372653529047966,0.0196974016726017
2601016985212,1.4508862495422363,-9.683348655700684,1.2785037755966187,0.01703559048473835,-0.0396609827876091,0.0223592109978199
2601018222375,1.459265947341919,-9.694122314453125,1.2749123573303223,0.0173017717897892,-0.0364668108522892,0.0186326764523983
2601019459512,1.4197616577148438,-9.690531730651855,1.2797008752822876,0.01996358297765255,-0.0346035435795784,0.01756795309484005
2601020696662,1.4544775485992432,-9.730035781860352,1.2820950746536255,0.0173017717897892,-0.033538818359375,0.0186326764523983
2601021933812,1.3898340463638306,-9.720458984375,1.2797008752822876,0.0162370465695858,-0.0316755510866642,0.01756795309484005
2601023170962,1.4496891498565674,-9.713275909423828,1.3048399686813354,0.0186326764523983,-0.0319417305290699,0.015438503585755825
2601024408112,1.459265947341919,-9.72285270690918,1.3431471586227417,0.01889885775744915,-0.0340711809694767,0.015172322280704975
2601025645250,1.4832079410552979,-9.703699111938477,1.335964560508728,0.0204959437251091,-0.033538818359375,0.0215606689453125
2601026882412,1.4724340438842773,-9.733627319335938,1.3000515699386597,0.02022976242005825,-0.0359344482421875,0.0196974016726017
2601028119525,1.4712369441986084,-9.725247383117676,1.2868834733963013,0.0204959437251091,-0.0348697230219841,0.0220930315554142
2601029356687,1.4520833492279053,-9.690531730651855,1.2976573705673218,0.01650322787463665,-0.0346035435795784,0.0181003138422966
2601030593825,1.48081374168396,-9.690531730651855,1.314416766166687,0.01463996060192585,-0.0354020856320858,0.01597086526453495
2601031830987,1.4736311435699463,-9.712079048156738,1.3670891523361206,0.0191650390625,-0.0364668108522892,0.0196974016726017
2601033068112,1.5083470344543457,-9.724050521850586,1.3491326570510864,0.0196974016726017,-0.0377977155148983,0.01783413253724575
2601034305262,1.4748282432556152,-9.72165584564209,1.290474772453308,0.0186326764523983,-0.0340711809694767,0.01650322787463665
2601035542412,1.479616641998291,-9.738415718078613,1.3563152551651,0.01996358297765255,-0.0348697230219841,0.0173017717897892
2601036779562,1.4891934394836426,-9.696516990661621,1.2952631711959839,0.0162370465695858,-0.0393948033452034,0.0181003138422966
2601038016712,1.4472949504852295,-9.68813705444336,1.3395558595657349,0.01996358297765255,-0.0385962575674057,0.0181003138422966
2601039253837,1.4257471561431885,-9.703699111938477,1.3036428689956665,0.01889885775744915,-0.0343373604118824,0.01650322787463665
2601040491012,1.4544775485992432,-9.731232643127441,1.337161660194397,0.01756795309484005,-0.033538818359375,0.02262539230287075
2601041728150,1.4844050407409668,-9.72285270690918,1.3287819623947144,0.0210283063352108,-0.0330064557492733,0.023956298828125
2601042965287,1.4951789379119873,-9.709685325622559,1.3108254671096802,0.014373779296875,-0.0375315360724926,0.0173017717897892
2601044202450,1.460463047027588,-9.706093788146973,1.3024457693099976,0.01597086526453495,-0.0354020856320858,0.0210283063352108
2601045439587,1.4688427448272705,-9.738415718078613,1.2988544702529907,0.02129448764026165,-0.0346035435795784,0.02422248013317585
2601046676725,1.4496891498565674,-9.740809440612793,1.316810965538025,0.01836649514734745,-0.0338049978017807,0.01943122036755085
2601047913875,1.4472949504852295,-9.72285270690918,1.3455413579940796,0.0167694091796875,-0.0338049978017807,0.014373779296875
2601049151050,1.4269442558288574,-9.715670585632324,1.3299790620803833,0.0186326764523983,-0.0324740931391716,0.0204959437251091
2601050388162,1.4772224426269531,-9.782708168029785,1.3204022645950317,0.0162370465695858,-0.03034464456140995,0.01996358297765255
2601051625337,1.4532804489135742,-9.749189376831055,1.3215993642807007,0.0167694091796875,-0.0300784632563591,0.0204959437251091
2601052862475,1.436521053314209,-9.759963035583496,1.3204022645950317,0.0191650390625,-0.03034464456140995,0.0215606689453125
2601054099637,1.4389152526855469,-9.75278091430664,1.292868971824646,0.014906140975654125,-0.0319417305290699,0.02022976242005825
2601055336762,1.4089877605438232,-9.764751434326172,1.3311761617660522,0.01650322787463665,-0.0295461006462574,0.01943122036755085
2601056573900,1.4257471561431885,-9.763554573059082,1.2988544702529907,0.0196974016726017,-0.0276828333735466,0.01357523538172245
2601057811062,1.4449007511138916,-9.774328231811523,1.3311761617660522,0.01597086526453495,-0.03034464456140995,0.01597086526453495
2601059048200,1.416170358657837,-9.738415718078613,1.3263877630233765,0.01171196810901165,-0.02502102218568325,0.0173017717897892
2601060285350,1.4616601467132568,-9.745597839355469,1.3000515699386597,0.01171196810901165,-0.02608574740588665,0.01410759799182415
2601061522487,1.45806884765625,-9.758766174316406,1.335964560508728,0.01783413253724575,-0.0311431884765625,0.0191650390625
2601062759637,1.4293384552001953,-9.709685325622559,1.3180080652236938,0.01357523538172245,-0.02981228195130825,0.015172322280704975
2601063996812,1.4041993618011475,-9.762357711791992,1.3048399686813354,0.01410759799182415,-0.0263519287109375,0.01783413253724575
2601065233937,1.3910311460494995,-9.749189376831055,1.3192051649093628,0.01597086526453495,-0.0271504707634449,0.014906140975654125
2601066471087,1.4173674583435059,-9.773131370544434,1.338358759880066,0.015172322280704975,-0.0282151959836483,0.01463996060192585
2601067708225,1.4449007511138916,-9.733627319335938,1.3275848627090454,0.0114457868039608,-0.0252872034907341,0.01357523538172245
2601068945362,1.41257905960083,-9.763554573059082,1.3227964639663696,0.01357523538172245,-0.0276828333735466,0.014906140975654125
2601070182525,1.4460978507995605,-9.75517463684082,1.3670891523361206,0.013042873702943325,-0.0276828333735466,0.0138414166867733
2601071419662,1.4221558570861816,-9.733627319335938,1.3527239561080933,0.010647243820130825,-0.0263519287109375,0.014373779296875
2601072656812,1.4508862495422363,-9.747992515563965,1.3227964639663696,0.01357523538172245,-0.02422248013317585,0.0173017717897892
2601073893975,1.4185645580291748,-9.770737648010254,1.3431471586227417,0.0119781494140625,-0.02422248013317585,0.01703559048473835
2601075131125,1.4233529567718506,-9.77791976928711,1.3311761617660522,0.01357523538172245,-0.0263519287109375,0.015172322280704975
2601076368262,1.4317326545715332,-9.745597839355469,1.3323732614517212,0.010647243820130825,-0.02874755859375,0.01836649514734745
2601077605387,1.4257471561431885,-9.797073364257812,1.3335703611373901,0.007985432632267475,-0.02262539230287075,0.01703559048473835
2601078842550,1.3946224451065063,-9.782708168029785,1.2988544702529907,0.0114457868039608,-0.0220930315554142,0.012776692397892475
2601080079687,1.43532395362854,-9.747992515563965,1.3634978532791138,0.012510511092841625,-0.02022976242005825,0.01410759799182415
2601081316837,1.4245500564575195,-9.757569313049316,1.2737152576446533,0.010114881210029125,-0.0223592109978199,0.014373779296875
2601082553975,1.4113819599151611,-9.746795654296875,1.3395558595657349,0.013042873702943325,-0.02262539230287075,0.01357523538172245
2601083791125,1.4520833492279053,-9.743204116821289,1.3527239561080933,0.007453070487827063,-0.014906140975654125,0.0157046839594841
2601085028287,1.3886369466781616,-9.75158405303955,1.2832921743392944,0.007453070487827063,-0.01836649514734745,0.010913425125181675
2601086265437,1.3910311460494995,-9.756372451782227,1.2797008752822876,0.0090501569211483,-0.0210283063352108,0.010381062515079975
2601087502575,1.3862427473068237,-9.716867446899414,1.3455413579940796,0.008783976547420025,-0.02502102218568325,0.008251613937318325
2601088739725,1.4664485454559326,-9.7420072555542,1.316810965538025,0.010647243820130825,-0.0196974016726017,0.008517795242369175
2601089976862,1.4305355548858643,-9.728838920593262,1.3491326570510864,0.006122165359556675,-0.01889885775744915,0.014373779296875
2601091214012,1.4508862495422363,-9.728838920593262,1.3287819623947144,0.006122165359556675,-0.01943122036755085,0.010114881210029125
2601092451150,1.4305355548858643,-9.732430458068848,1.3215993642807007,0.00452507846057415,-0.01650322787463665,0.012510511092841625
2601093688325,1.3970166444778442,-9.727641105651855,1.3036428689956665,0.0053236219100654125,-0.0181003138422966,0.012510511092841625
2601094925425,1.4616601467132568,-9.696516990661621,1.3072341680526733,0.0077192517928779125,-0.01357523538172245,0.010114881210029125
2601096162612,1.3934253454208374,-9.709685325622559,1.3443442583084106,0.00692070834338665,-0.01597086526453495,0.006122165359556675
2601097399750,1.4053964614868164,-9.695320129394531,1.3646949529647827,0.00958251953125,-0.0181003138422966,0.01171196810901165
2601098636875,1.4269442558288574,-9.713275909423828,1.3634978532791138,0.008251613937318325,-0.0186326764523983,0.013042873702943325
2601099874037,1.436521053314209,-9.707290649414062,1.3287819623947144,0.0037265352439135313,-0.014906140975654125,0.010913425125181675
2601101111162,1.4113819599151611,-9.697713851928711,1.3539210557937622,0.0042588976211845875,-0.0053236219100654125,0.010381062515079975
2601102348325,1.4006080627441406,-9.682151794433594,1.3766659498214722,0.007453070487827063,-0.007985432632267475,0.013309055007994175
2601103585475,1.41257905960083,-9.692925453186035,1.3120225667953491,0.0053236219100654125,-0.01943122036755085,0.008251613937318325
2601104822625,1.413776159286499,-9.749189376831055,1.3204022645950317,0.00958251953125,-0.0162370465695858,0.010647243820130825
2601106059775,1.4484920501708984,-9.677363395690918,1.3323732614517212,0.0077192517928779125,-0.010381062515079975,0.008517795242369175
2601107296900,1.4185645580291748,-9.703699111938477,1.3287819623947144,0.0090501569211483,-0.0119781494140625,0.0042588976211845875
2601108534062,1.436521053314209,-9.733627319335938,1.334767460823059,0.007453070487827063,-0.00984870083630085,0.003460354171693325
2601109771200,1.4185645580291748,-9.696516990661621,1.3407529592514038,0.0063883461989462376,-0.013309055007994175,0.0021294488105922937
2601111008350,1.4245500564575195,-9.725247383117676,1.3120225667953491,0.0021294488105922937,-0.003460354171693325,0.0071868896484375
2601112245500,1.4484920501708984,-9.72285270690918,1.3060370683670044,0.007985432632267475,-0.007453070487827063,0.01171196810901165
2601113482662,1.4053964614868164,-9.730035781860352,1.3204022645950317,0.010647243820130825,-0.0119781494140625,0.008251613937318325
2601114719787,1.4185645580291748,-9.71926212310791,1.2808979749679565,0.00931633822619915,-0.0071868896484375,0.0013309054775163531
2601115956937,1.4006080627441406,-9.732430458068848,1.3335703611373901,0.0066545275039970875,-0.00692070834338665,0.005057440605014563
2601117194087,1.4233529567718506,-9.708487510681152,1.334767460823059,0.007985432632267475,-0.0119781494140625,0.0031941730994731188
2601118431212,1.41257905960083,-9.712079048156738,1.3275848627090454,0.008251613937318325,-0.007985432632267475,-0.0013309054775163531
2601119668375,1.437718152999878,-9.706093788146973,1.3311761617660522,0.00692070834338665,-0.0071868896484375,0.003460354171693325
2601120905525,1.4257471561431885,-9.732430458068848,1.290474772453308,0.0037265352439135313,-0.0029279920272529125,0.003460354171693325
2601122142675,1.4065935611724854,-9.727641105651855,1.3431471586227417,0.005057440605014563,-0.0010647244052961469,0.0039927163161337376
2601123379812,1.4425065517425537,-9.707290649414062,1.3000515699386597,0.0042588976211845875,-0.0031941730994731188,0.0023956298828125
2601124616962,1.460463047027588,-9.707290649414062,1.3431471586227417,0.004791259765625,-0.004791259765625,0.0023956298828125
2601125854100,1.4221558570861816,-9.703699111938477,1.3048399686813354,0.003460354171693325,-0.0031941730994731188,0.0007985432748682797
2601127091250,1.4329297542572021,-9.718064308166504,1.316810965538025,0.0015970865497365594,0.0,0.005057440605014563
2601128328375,1.4437036514282227,-9.738415718078613,1.3479355573654175,0.0013309054775163531,-0.0013309054775163531,0.005057440605014563
2601129565575,1.4173674583435059,-9.700108528137207,1.3515268564224243,0.0053236219100654125,0.0037265352439135313,0.0
2601130802700,1.4460978507995605,-9.696516990661621,1.3192051649093628,0.0029279920272529125,0.0023956298828125,-0.0053236219100654125
2601132039837,1.414973258972168,-9.72285270690918,1.3335703611373901,0.0018632676219567657,0.0053236219100654125,0.0053236219100654125
2601133277012,1.455674648284912,-9.710882186889648,1.3239935636520386,0.0037265352439135313,-0.0029279920272529125,0.0031941730994731188
2601134514137,1.4449007511138916,-9.708487510681152,1.3204022645950317,0.004791259765625,-0.0010647244052961469,0.003460354171693325
2601135751275,1.434126853942871,-9.725247383117676,1.3287819623947144,0.0042588976211845875,0.0015970865497365594,0.006122165359556675
2601136988437,1.4425065517425537,-9.702502250671387,1.335964560508728,0.0013309054775163531,0.0029279920272529125,0.0010647244052961469
2601138225575,1.4520833492279053,-9.714473724365234,1.3180080652236938,0.0071868896484375,0.0031941730994731188,0.0029279920272529125
2601139462725,1.4460978507995605,-9.712079048156738,1.3491326570510864,0.00931633822619915,0.0002661811013240367,0.0013309054775163531
2601140699875,1.4113819599151611,-9.706093788146973,1.3455413579940796,0.0090501569211483,-0.0010647244052961469,0.0015970865497365594
2601141937025,1.4484920501708984,-9.710882186889648,1.3503297567367554,0.0039927163161337376,0.0029279920272529125,0.0031941730994731188
2601143174162,1.3934253454208374,-9.65222454071045,1.3658920526504517,0.0039927163161337376,0.0010647244052961469,0.0037265352439135313
2601144411300,1.4209587574005127,-9.678560256958008,1.3275848627090454,0.010114881210029125,0.0066545275039970875,0.0063883461989462376
2601145648462,1.3922282457351685,-9.659406661987305,1.3120225667953491,0.00931633822619915,0.0010647244052961469,-0.005589802749454975
2601146885600,1.4449007511138916,-9.653421401977539,1.3479355573654175,0.00931633822619915,0.0013309054775163531,0.0010647244052961469
2601148122762,1.4460978507995605,-9.682151794433594,1.3192051649093628,0.01117960549890995,0.0026618109550327063,0.0023956298828125
2601149359900,1.414973258972168,-9.649829864501953,1.2653355598449707,0.005855984054505825,0.0071868896484375,0.0031941730994731188
2601150597050,1.4065935611724854,-9.707290649414062,1.3611036539077759,0.010647243820130825,0.006122165359556675,0.0005323622026480734
2601151834200,1.459265947341919,-9.658209800720215,1.335964560508728,0.0090501569211483,0.005057440605014563,0.0018632676219567657
2601153071350,1.4449007511138916,-9.657012939453125,1.3192051649093628,0.00984870083630085,0.0053236219100654125,0.0023956298828125
2601154308500,1.456871747970581,-9.660603523254395,1.3108254671096802,0.008517795242369175,0.0066545275039970875,0.0026618109550327063
2601155545637,1.4221558570861816,-9.674968719482422,1.3215993642807007,0.010647243820130825,0.0021294488105922937,0.005855984054505825
2601156782787,1.4389152526855469,-9.68813705444336,1.3215993642807007,0.0063883461989462376,0.005589802749454975,0.0005323622026480734
2601158019925,1.4269442558288574,-9.676166534423828,1.3192051649093628,0.007985432632267475,0.013042873702943325,0.0018632676219567657
2601159257075,1.3994109630584717,-9.66299819946289,1.294066071510315,0.010647243820130825,0.0071868896484375,0.0042588976211845875
2601160494212,1.4101848602294922,-9.68933391571045,1.294066071510315,0.0090501569211483,0.00692070834338665,0.00452507846057415
2601161731350,1.4496891498565674,-9.657012939453125,1.3192051649093628,0.00984870083630085,0.004791259765625,0.0018632676219567657
2601162968537,1.437718152999878,-9.666589736938477,1.3455413579940796,0.00984870083630085,0.0039927163161337376,0.004791259765625
2601164205662,1.416170358657837,-9.683348655700684,1.3275848627090454,0.008251613937318325,0.008251613937318325,0.0042588976211845875
2601165442825,1.4484920501708984,-9.667786598205566,1.2725181579589844,0.0071868896484375,0.00958251953125,-0.0021294488105922937
2601166679950,1.4209587574005127,-9.68933391571045,1.3000515699386597,0.008517795242369175,0.0077192517928779125,0.0002661811013240367
2601167917087,1.4532804489135742,-9.68813705444336,1.316810965538025,0.0053236219100654125,0.007453070487827063,0.0005323622026480734
2601169154250,1.4317326545715332,-9.720458984375,1.3204022645950317,0.005589802749454975,0.01117960549890995,0.0013309054775163531
2601170391375,1.4018051624298096,-9.720458984375,1.2844892740249634,0.005855984054505825,0.0042588976211845875,0.006122165359556675
2601171628537,1.413776159286499,-9.743204116821289,1.3515268564224243,0.0007985432748682797,0.00931633822619915,0.0015970865497365594
2601172865700,1.4305355548858643,-9.759963035583496,1.2689268589019775,-0.0005323622026480734,0.01224433071911335,-0.0010647244052961469
2601174102837,1.4544775485992432,-9.770737648010254,1.290474772453308,0.0002661811013240367,0.007985432632267475,-0.0023956298828125
2601175339962,1.4532804489135742,-9.78869342803955,1.2797008752822876,0.005589802749454975,0.008251613937318325,-0.003460354171693325
2601176577137,1.4245500564575195,-9.762357711791992,1.2952631711959839,0.0013309054775163531,0.013309055007994175,-0.0037265352439135313
2601177814275,1.4197616577148438,-9.825803756713867,1.2401964664459229,-0.0031941730994731188,0.015438503585755825,0.0007985432748682797
2601179051412,1.4089877605438232,-9.793481826782227,1.235408067703247,-0.0010647244052961469,0.015172322280704975,0.0015970865497365594
2601180288562,1.4185645580291748,-9.791088104248047,1.2761094570159912,-0.0013309054775163531,0.014906140975654125,-0.0013309054775163531
2601181525700,1.4041993618011475,-9.830592155456543,1.2725181579589844,-0.0063883461989462376,0.015172322280704975,-0.0039927163161337376
2601182762875,1.4018051624298096,-9.84256362915039,1.2545616626739502,-0.0053236219100654125,0.012510511092841625,-0.0013309054775163531
2601184000012,1.4113819599151611,-9.834183692932129,1.2856863737106323,-0.008251613937318325,0.01703559048473835,-0.0039927163161337376
2601185237150,1.4293384552001953,-9.81024169921875,1.2521674633026123,-0.012510511092841625,0.0167694091796875,-0.0029279920272529125
2601186474300,1.4089877605438232,-9.84495735168457,1.2880805730819702,-0.01171196810901165,0.0162370465695858,-0.00452507846057415
2601187711450,1.4736311435699463,-9.840168952941895,1.3048399686813354,-0.00692070834338665,0.010647243820130825,-0.0026618109550327063
2601188948587,1.4053964614868164,-9.84615421295166,1.2677297592163086,-0.010647243820130825,0.013042873702943325,-0.0026618109550327063
2601190185737,1.4197616577148438,-9.819818496704102,1.2665326595306396,-0.0157046839594841,0.0186326764523983,-0.00452507846057415
2601191422887,1.4640543460845947,-9.841365814208984,1.259350061416626,-0.01836649514734745,0.015438503585755825,-0.00452507846057415
2601192660025,1.4281413555145264,-9.800664901733398,1.2725181579589844,-0.02182685025036335,0.01597086526453495,0.0018632676219567657
2601193897187,1.4413094520568848,-9.7791166305542,1.291671872138977,-0.0191650390625,0.0196974016726017,0.0023956298828125
2601195134337,1.459265947341919,-9.786299705505371,1.2737152576446533,-0.01463996060192585,0.0234239362180233,0.0010647244052961469
2601196371487,1.4101848602294922,-9.783905029296875,1.2677297592163086,-0.014906140975654125,0.01463996060192585,0.0002661811013240367
2601197608625,1.4484920501708984,-9.75278091430664,1.2868834733963013,-0.0204959437251091,0.02022976242005825,-0.0021294488105922937
2601198845750,1.41257905960083,-9.725247383117676,1.2868834733963013,-0.0220930315554142,0.0234239362180233,-0.005589802749454975
2601200082925,1.4760253429412842,-9.71926212310791,1.259350061416626,-0.0220930315554142,0.0181003138422966,0.0010647244052961469
2601201320062,1.436521053314209,-9.739612579345703,1.2808979749679565,-0.0186326764523983,0.0215606689453125,-0.0018632676219567657
2601202557200,1.3922282457351685,-9.727641105651855,1.2617442607879639,-0.01943122036755085,0.01783413253724575,0.0013309054775163531
2601203794362,1.4317326545715332,-9.678560256958008,1.2318167686462402,-0.02315775491297245,0.02129448764026165,0.0013309054775163531
2601205031487,1.4077906608581543,-9.68574333190918,1.2820950746536255,-0.02502102218568325,0.02182685025036335,0.0005323622026480734
2601206268662,1.4496891498565674,-9.715670585632324,1.2282254695892334,-0.0215606689453125,0.02262539230287075,-0.0010647244052961469
2601207505800,1.4664485454559326,-9.745597839355469,1.2665326595306396,-0.0247548408806324,0.0223592109978199,-0.0021294488105922937
2601208742950,1.45806884765625,-9.75278091430664,1.2701239585876465,-0.02422248013317585,0.02022976242005825,-0.0037265352439135313
2601209980087,1.4700398445129395,-9.715670585632324,1.2737152576446533,-0.02874755859375,0.01836649514734745,-0.0029279920272529125
2601211217237,1.4245500564575195,-9.695320129394531,1.2497732639312744,-0.0258195661008358,0.0223592109978199,-0.00452507846057415
2601212454387,1.459265947341919,-9.701305389404297,1.2485761642456055,-0.02369011752307415,0.0244886614382267,-0.0026618109550327063
2601213691537,1.4891934394836426,-9.725247383117676,1.2617442607879639,-0.0258195661008358,0.0247548408806324,-0.0039927163161337376
2601214928687,1.460463047027588,-9.683348655700684,1.235408067703247,-0.02981228195130825,0.0234239362180233,-0.006122165359556675
2601216165825,1.4520833492279053,-9.697713851928711,1.2449848651885986,-0.0268842913210392,0.02262539230287075,-0.0039927163161337376
2601217402962,1.4712369441986084,-9.714473724365234,1.2677297592163086,-0.0247548408806324,0.01996358297765255,-0.0023956298828125
2601218640112,1.4772224426269531,-9.679757118225098,1.316810965538025,-0.02848137728869915,0.0173017717897892,0.0021294488105922937
2601219877275,1.4879963397979736,-9.700108528137207,1.260547161102295,-0.0292799212038517,0.02315775491297245,-0.005855984054505825
2601221114412,1.5059528350830078,-9.691728591918945,1.2761094570159912,-0.0258195661008358,0.0247548408806324,-0.0053236219100654125
2601222351550,1.479616641998291,-9.683348655700684,1.290474772453308,-0.02369011752307415,0.02502102218568325,-0.0053236219100654125
2601223588700,1.5263036489486694,-9.692925453186035,1.2665326595306396,-0.02422248013317585,0.02661811001598835,-0.0071868896484375
2601224825862,1.48081374168396,-9.667786598205566,1.2629413604736328,-0.0252872034907341,0.0191650390625,-0.004791259765625
2601226062987,1.4496891498565674,-9.676166534423828,1.3192051649093628,-0.02262539230287075,0.02315775491297245,-0.005855984054505825
2601227300150,1.4760253429412842,-9.72285270690918,1.256955862045288,-0.0252872034907341,0.0282151959836483,-0.0071868896484375
2601228537275,1.4856021404266357,-9.672574996948242,1.2820950746536255,-0.023956298828125,0.0258195661008358,-0.013042873702943325
2601229774425,1.502361536026001,-9.673771858215332,1.2713210582733154,-0.02502102218568325,0.02262539230287075,-0.0119781494140625
2601231011625,1.482010841369629,-9.651026725769043,1.2856863737106323,-0.023956298828125,0.0223592109978199,-0.006122165359556675
2601232248737,1.4712369441986084,-9.659406661987305,1.294066071510315,-0.0204959437251091,0.02076212503015995,-0.00931633822619915
2601233485875,1.4939818382263184,-9.617507934570312,1.2952631711959839,-0.01117960549890995,0.0223592109978199,-0.010381062515079975
2601234723037,1.502361536026001,-9.66539192199707,1.3060370683670044,-0.02022976242005825,0.0247548408806324,-0.012510511092841625
2601235960187,1.5729905366897583,-9.635464668273926,1.315613865852356,-0.01836649514734745,0.0276828333735466,-0.0138414166867733
2601237197337,1.5059528350830078,-9.59835433959961,1.2880805730819702,-0.01756795309484005,0.0258195661008358,-0.013309055007994175
2601238434475,1.4628572463989258,-9.592369079589844,1.3227964639663696,-0.02129448764026165,0.02262539230287075,-0.01117960549890995
2601239671625,1.4903905391693115,-9.617507934570312,1.2952631711959839,-0.0157046839594841,0.02022976242005825,-0.01224433071911335
2601240908762,1.5322891473770142,-9.647436141967773,1.3024457693099976,-0.00984870083630085,0.0271504707634449,-0.01117960549890995
2601242145925,1.5263036489486694,-9.62828254699707,1.3012486696243286,-0.010114881210029125,0.0234239362180233,-0.014906140975654125
2601243383062,1.499967336654663,-9.640253067016602,1.315613865852356,-0.013309055007994175,0.0204959437251091,-0.0138414166867733
2601244620212,1.5502456426620483,-9.65222454071045,1.3311761617660522,-0.0114457868039608,0.02369011752307415,-0.02022976242005825
2601245857350,1.5095441341400146,-9.63067626953125,1.3515268564224243,-0.0071868896484375,0.0210283063352108,-0.01410759799182415
2601247094475,1.556231141090393,-9.643844604492188,1.3563152551651,-0.008251613937318325,0.02129448764026165,-0.0119781494140625
2601248331650,1.5454572439193726,-9.643844604492188,1.2725181579589844,-0.0039927163161337376,0.02369011752307415,-0.010114881210029125
2601249568800,1.5191209316253662,-9.65222454071045,1.2832921743392944,0.0029279920272529125,0.02022976242005825,-0.01783413253724575
2601250805937,1.5095441341400146,-9.653421401977539,1.2952631711959839,-0.0015970865497365594,0.0167694091796875,-0.014906140975654125
2601252043075,1.5466543436050415,-9.653421401977539,1.2868834733963013,-0.0023956298828125,0.01703559048473835,-0.01117960549890995
2601253280225,1.5251065492630005,-9.627084732055664,1.3180080652236938,0.005589802749454975,0.01889885775744915,-0.01410759799182415
2601254517362,1.5143325328826904,-9.658209800720215,1.3646949529647827,0.0015970865497365594,0.02262539230287075,-0.01943122036755085
2601255754525,1.4927847385406494,-9.657012939453125,1.3287819623947144,0.0042588976211845875,0.0191650390625,-0.01650322787463665
2601256991675,1.48081374168396,-9.642647743225098,1.3263877630233765,0.00692070834338665,0.0186326764523983,-0.0173017717897892
2601258228825,1.5310920476913452,-9.68574333190918,1.2797008752822876,0.013309055007994175,0.01703559048473835,-0.0220930315554142
2601259465975,1.5538369417190552,-9.727641105651855,1.3096283674240112,0.01463996060192585,0.01836649514734745,-0.015438503585755825
2601260703100,1.581370234489441,-9.68813705444336,1.294066071510315,0.01117960549890995,0.01463996060192585,-0.01463996060192585
2601261940287,1.556231141090393,-9.670180320739746,1.3204022645950317,0.010913425125181675,0.014906140975654125,-0.0157046839594841
2601263177400,1.5921441316604614,-9.680954933166504,1.2892776727676392,0.0119781494140625,0.0204959437251091,-0.0191650390625
2601264414550,1.5442601442337036,-9.658209800720215,1.3299790620803833,0.01224433071911335,0.0215606689453125,-0.014906140975654125
2601265651700,1.5382746458053589,-9.622296333312988,1.2880805730819702,0.014373779296875,0.013309055007994175,-0.0167694091796875
2601266888850,1.5538369417190552,-9.676166534423828,1.2988544702529907,0.01650322787463665,0.010114881210029125,-0.01597086526453495
2601268126000,1.5263036489486694,-9.694122314453125,1.3527239561080933,0.0167694091796875,0.0138414166867733,-0.014906140975654125
2601269363150,1.5682021379470825,-9.62947940826416,1.3215993642807007,0.01756795309484005,0.01597086526453495,-0.012776692397892475
2601270600287,1.599326729774475,-9.642647743225098,1.3180080652236938,0.0196974016726017,0.013309055007994175,-0.0173017717897892
2601271837437,1.580173134803772,-9.637859344482422,1.294066071510315,0.0215606689453125,0.00984870083630085,-0.015172322280704975
2601273074575,1.577778935432434,-9.636661529541016,1.3192051649093628,0.02315775491297245,0.012510511092841625,-0.02129448764026165
2601274311737,1.5047557353973389,-9.66299819946289,1.337161660194397,0.0228915736079216,0.013309055007994175,-0.02076212503015995
2601275548875,1.5430630445480347,-9.683348655700684,1.294066071510315,0.0220930315554142,0.015172322280704975,-0.01597086526453495
2601276786025,1.5227123498916626,-9.635464668273926,1.3180080652236938,0.0258195661008358,0.014373779296875,-0.015438503585755825
2601278023187,1.5227123498916626,-9.666589736938477,1.291671872138977,0.0282151959836483,0.013042873702943325,-0.02022976242005825
2601279260325,1.5418659448623657,-9.68694019317627,1.294066071510315,0.0276828333735466,0.01224433071911335,-0.01783413253724575
2601280497475,1.5203181505203247,-9.655815124511719,1.2892776727676392,0.0295461006462574,0.01171196810901165,-0.0191650390625
2601281734612,1.5083470344543457,-9.646238327026367,1.3192051649093628,0.0322079136967659,0.010647243820130825,-0.0215606689453125
2601282971775,1.4975731372833252,-9.659406661987305,1.2689268589019775,0.02608574740588665,0.010114881210029125,-0.01756795309484005
2601284208912,1.534683346748352,-9.66299819946289,1.3431471586227417,0.0258195661008358,0.01224433071911335,-0.01597086526453495
2601285446062,1.5239094495773315,-9.670180320739746,1.3072341680526733,0.0319417305290699,0.010913425125181675,-0.0119781494140625
2601286683200,1.5646108388900757,-9.668983459472656,1.3431471586227417,0.0338049978017807,0.012776692397892475,-0.01703559048473835
2601287920350,1.599326729774475,-9.701305389404297,1.3060370683670044,0.0351359061896801,0.010647243820130825,-0.0181003138422966
2601289157500,1.5705963373184204,-9.703699111938477,1.3515268564224243,0.0306108258664608,0.0114457868039608,-0.0173017717897892
2601290394650,1.5670050382614136,-9.6618013381958,1.3215993642807007,0.0346035435795784,0.0119781494140625,-0.02022976242005825
2601291631800,1.534683346748352,-9.658209800720215,1.3192051649093628,0.0423227921128273,0.00931633822619915,-0.0244886614382267
2601292868937,1.5945383310317993,-9.678560256958008,1.3431471586227417,0.0385962575674057,0.010647243820130825,-0.01836649514734745
2601294106075,1.6328455209732056,-9.654618263244629,1.3060370683670044,0.0364668108522892,0.0066545275039970875,-0.0234239362180233
2601295343225,1.5945383310317993,-9.703699111938477,1.3323732614517212,0.0359344482421875,0.00452507846057415,-0.01996358297765255
2601296580375,1.5705963373184204,-9.678560256958008,1.337161660194397,0.0377977155148983,0.0053236219100654125,-0.02022976242005825
2601297817537,1.558625340461731,-9.672574996948242,1.3311761617660522,0.0362006276845932,0.010381062515079975,-0.0220930315554142
2601299054675,1.578976035118103,-9.666589736938477,1.294066071510315,0.0393948033452034,0.00452507846057415,-0.01783413253724575
2601300291825,1.5646108388900757,-9.715670585632324,1.314416766166687,0.042855154722929,0.006122165359556675,-0.0223592109978199
2601301528950,1.5610195398330688,-9.68813705444336,1.3682862520217896,0.042855154722929,0.005057440605014563,-0.0247548408806324
2601302766112,1.5418659448623657,-9.68933391571045,1.2988544702529907,0.0423227921128273,0.0053236219100654125,-0.02315775491297245
2601304003275,1.557428240776062,-9.670180320739746,1.3431471586227417,0.0354020856320858,0.00931633822619915,-0.02741665206849575
2601305240400,1.5167267322540283,-9.724050521850586,1.3503297567367554,0.0375315360724926,0.00692070834338665,-0.023956298828125
2601306477562,1.5670050382614136,-9.710882186889648,1.3275848627090454,0.0346035435795784,0.0026618109550327063,-0.02555338479578495
2601307714687,1.580173134803772,-9.737218856811523,1.3048399686813354,0.0375315360724926,0.0021294488105922937,-0.023956298828125
2601308951862,1.534683346748352,-9.727641105651855,1.3180080652236938,0.0377977155148983,0.0031941730994731188,-0.02262539230287075
2601310188987,1.5538369417190552,-9.743204116821289,1.2880805730819702,0.0396609827876091,0.0029279920272529125,-0.0247548408806324
2601311426125,1.5861586332321167,-9.750386238098145,1.3048399686813354,0.0388624407351017,0.0010647244052961469,-0.023956298828125
2601312663312,1.5502456426620483,-9.757569313049316,1.335964560508728,0.0364668108522892,0.0023956298828125,-0.02076212503015995
2601313900425,1.5765818357467651,-9.759963035583496,1.3311761617660522,0.0356682650744915,0.0010647244052961469,-0.0215606689453125
2601315137575,1.5670050382614136,-9.797073364257812,1.3239935636520386,0.0375315360724926,0.0005323622026480734,-0.023956298828125
2601316374725,1.5622166395187378,-9.745597839355469,1.3694833517074585,0.0377977155148983,0.003460354171693325,-0.0196974016726017
2601317611875,1.5538369417190552,-9.792284965515137,1.3431471586227417,0.0354020856320858,-0.0026618109550327063,-0.0167694091796875
2601318849012,1.5215152502059937,-9.75517463684082,1.2725181579589844,0.0351359061896801,-0.0026618109550327063,-0.02608574740588665
2601320086162,1.5765818357467651,-9.77791976928711,1.3263877630233765,0.0351359061896801,0.0015970865497365594,-0.01836649514734745
2601321323325,1.556231141090393,-9.783905029296875,1.3443442583084106,0.0369991734623909,0.0,-0.014373779296875
2601322560475,1.5191209316253662,-9.787496566772461,1.3407529592514038,0.033538818359375,-0.0018632676219567657,-0.01996358297765255
2601323797600,1.5682021379470825,-9.77552604675293,1.3000515699386597,0.0348697230219841,-0.0021294488105922937,-0.01836649514734745
2601325034750,1.53707754611969,-9.81143856048584,1.315613865852356,0.0362006276845932,-0.0005323622026480734,-0.0173017717897892
2601326271900,1.5538369417190552,-9.818621635437012,1.2880805730819702,0.0327402763068676,0.0,-0.0191650390625
2601327509050,1.5454572439193726,-9.805453300476074,1.3192051649093628,0.0324740931391716,0.0021294488105922937,-0.0186326764523983
2601328746200,1.557428240776062,-9.824606895446777,1.2820950746536255,0.02874755859375,0.0042588976211845875,-0.01943122036755085
2601329983337,1.5622166395187378,-9.80904483795166,1.3515268564224243,0.0282151959836483,-0.00692070834338665,-0.01463996060192585
2601331220500,1.5286978483200073,-9.794679641723633,1.315613865852356,0.0292799212038517,-0.0026618109550327063,-0.010647243820130825
2601332457637,1.5275007486343384,-9.782708168029785,1.3299790620803833,0.02981228195130825,-0.0026618109550327063,-0.01171196810901165
2601333694787,1.5598224401474,-9.836577415466309,1.3000515699386597,0.0319417305290699,-0.0039927163161337376,-0.0114457868039608
2601334931925,1.5239094495773315,-9.84376049041748,1.315613865852356,0.0210283063352108,0.0005323622026480734,-0.01117960549890995
2601336169087,1.5155296325683594,-9.78869342803955,1.337161660194397,0.0252872034907341,0.0,-0.010114881210029125
2601337406212,1.5131354331970215,-9.785102844238281,1.3036428689956665,0.02608574740588665,-0.00452507846057415,-0.007453070487827063
2601338643387,1.5119383335113525,-9.798270225524902,1.3467384576797485,0.0191650390625,-0.005855984054505825,-0.003460354171693325
2601339880537,1.5167267322540283,-9.80904483795166,1.3299790620803833,0.01783413253724575,-0.005855984054505825,-0.00692070834338665
2601341117687,1.5825673341751099,-9.81024169921875,1.3060370683670044,0.0210283063352108,-0.005589802749454975,-0.00984870083630085
2601342354825,1.557428240776062,-9.786299705505371,1.2952631711959839,0.01889885775744915,-0.0007985432748682797,-0.0066545275039970875
2601343591962,1.5131354331970215,-9.822212219238281,1.3527239561080933,0.02182685025036335,-0.0029279920272529125,-0.0031941730994731188
2601344829125,1.5239094495773315,-9.81024169921875,1.3024457693099976,0.01357523538172245,-0.00692070834338665,-0.003460354171693325
2601346066262,1.499967336654663,-9.799468040466309,1.2964602708816528,0.01836649514734745,-0.010114881210029125,-0.0021294488105922937
2601347303412,1.53707754611969,-9.797073364257812,1.357512354850769,0.0157046839594841,-0.010114881210029125,-0.0026618109550327063
2601348540550,1.502361536026001,-9.804256439208984,1.3287819623947144,0.0138414166867733,-0.010114881210029125,0.0007985432748682797
2601349777700,1.558625340461731,-9.81024169921875,1.2976573705673218,0.015438503585755825,-0.013042873702943325,0.0026618109550327063
2601351014850,1.5466543436050415,-9.81024169921875,1.3287819623947144,0.01171196810901165,-0.00984870083630085,0.0042588976211845875
2601352252000,1.5741876363754272,-9.780314445495605,1.315613865852356,0.012510511092841625,-0.010913425125181675,0.0031941730994731188
2601353489150,1.5610195398330688,-9.758766174316406,1.3419500589370728,0.012510511092841625,-0.0090501569211483,0.005855984054505825
2601354726300,1.557428240776062,-9.805453300476074,1.3036428689956665,0.00931633822619915,-0.010381062515079975,0.006122165359556675
2601355963450,1.5310920476913452,-9.797073364257812,1.2820950746536255,0.00931633822619915,-0.010647243820130825,0.00692070834338665
2601357200587,1.5418659448623657,-9.791088104248047,1.3443442583084106,0.008517795242369175,-0.013042873702943325,0.006122165359556675
2601358437725,1.5550340414047241,-9.759963035583496,1.3275848627090454,0.010381062515079975,-0.015172322280704975,0.006122165359556675
2601359674887,1.5466543436050415,-9.81263542175293,1.3048399686813354,0.010381062515079975,-0.01171196810901165,0.0114457868039608
2601360912037,1.5670050382614136,-9.791088104248047,1.338358759880066,0.0077192517928779125,-0.010381062515079975,0.0162370465695858
2601362149187,1.482010841369629,-9.806650161743164,1.3072341680526733,0.004791259765625,-0.0167694091796875,0.0157046839594841
2601363386325,1.53707754611969,-9.767146110534668,1.3287819623947144,0.0037265352439135313,-0.0162370465695858,0.015172322280704975
2601364623475,1.5215152502059937,-9.763554573059082,1.3060370683670044,0.006122165359556675,-0.0157046839594841,0.0138414166867733
2601365860612,1.5717934370040894,-9.781511306762695,1.3467384576797485,0.0037265352439135313,-0.014373779296875,0.0162370465695858
2601367097775,1.5717934370040894,-9.794679641723633,1.3204022645950317,0.005855984054505825,-0.0162370465695858,0.02608574740588665
2601368334912,1.5466543436050415,-9.822212219238281,1.3227964639663696,0.005855984054505825,-0.014373779296875,0.0220930315554142
2601369572062,1.5251065492630005,-9.738415718078613,1.3239935636520386,0.0005323622026480734,-0.0167694091796875,0.02262539230287075
2601370809212,1.5251065492630005,-9.803058624267578,1.3227964639663696,-0.0015970865497365594,-0.0162370465695858,0.0234239362180233
2601372046350,1.5310920476913452,-9.787496566772461,1.313219666481018,-0.0026618109550327063,-0.014373779296875,0.01943122036755085
2601373283512,1.535880446434021,-9.77672290802002,1.3204022645950317,-0.005589802749454975,-0.01410759799182415,0.0162370465695858
2601374520637,1.5191209316253662,-9.763554573059082,1.3239935636520386,-0.0021294488105922937,-0.01597086526453495,0.02076212503015995
2601375757800,1.5215152502059937,-9.773131370544434,1.3491326570510864,-0.0066545275039970875,-0.01597086526453495,0.02555338479578495
2601376994962,1.5394717454910278,-9.789891242980957,1.3287819623947144,-0.0090501569211483,-0.0196974016726017,0.023956298828125
2601378232100,1.5179238319396973,-9.761160850524902,1.3215993642807007,-0.0063883461989462376,-0.02129448764026165,0.0314093679189682
2601379469237,1.5478514432907104,-9.75517463684082,1.3323732614517212,-0.006122165359556675,-0.0173017717897892,0.02874755859375
2601380706387,1.53707754611969,-9.763554573059082,1.2988544702529907,-0.0090501569211483,-0.0162370465695858,0.02661811001598835
2601381943525,1.4760253429412842,-9.78869342803955,1.334767460823059,-0.007985432632267475,-0.0186326764523983,0.0306108258664608
2601383180687,1.4939818382263184,-9.77672290802002,1.3263877630233765,-0.00984870083630085,-0.01783413253724575,0.0300784632563591
2601384417850,1.5466543436050415,-9.765949249267578,1.294066071510315,-0.010381062515079975,-0.013309055007994175,0.02874755859375
2601385654975,1.5155296325683594,-9.75397777557373,1.3395558595657349,-0.013309055007994175,-0.01703559048473835,0.0311431884765625
2601386892112,1.5275007486343384,-9.757569313049316,1.3108254671096802,-0.01224433071911335,-0.01783413253724575,0.0346035435795784
2601388129275,1.4987702369689941,-9.763554573059082,1.338358759880066,-0.01650322787463665,-0.01943122036755085,0.0359344482421875
2601389366425,1.478419542312622,-9.745597839355469,1.3503297567367554,-0.01357523538172245,-0.0181003138422966,0.0407257080078125
2601390603550,1.4772224426269531,-9.783905029296875,1.3634978532791138,-0.01463996060192585,-0.01756795309484005,0.0367329902946949
2601391840725,1.4987702369689941,-9.756372451782227,1.3192051649093628,-0.01357523538172245,-0.01836649514734745,0.0356682650744915
2601393077862,1.4832079410552979,-9.77672290802002,1.2749123573303223,-0.01703559048473835,-0.01889885775744915,0.0372653529047966
2601394315012,1.5083470344543457,-9.75158405303955,1.3251906633377075,-0.01836649514734745,-0.0220930315554142,0.0359344482421875
2601395552162,1.5131354331970215,-9.767146110534668,1.3096283674240112,-0.0204959437251091,-0.01703559048473835,0.0362006276845932
2601396789312,1.48081374168396,-9.759963035583496,1.3503297567367554,-0.013309055007994175,-0.014373779296875,0.0396609827876091
2601398026437,1.5047557353973389,-9.771934509277344,1.315613865852356,-0.015172322280704975,-0.0162370465695858,0.0375315360724926
2601399263600,1.5251065492630005,-9.764751434326172,1.2773066759109497,-0.01943122036755085,-0.0186326764523983,0.0359344482421875
2601400500737,1.5059528350830078,-9.745597839355469,1.2952631711959839,-0.0181003138422966,-0.0167694091796875,0.0377977155148983
2601401737887,1.5143325328826904,-9.764751434326172,1.2844892740249634,-0.0186326764523983,-0.0157046839594841,0.0412580706179142
2601402975037,1.5191209316253662,-9.743204116821289,1.3060370683670044,-0.0228915736079216,-0.01783413253724575,0.0364668108522892
2601404212175,1.4736311435699463,-9.727641105651855,1.334767460823059,-0.01943122036755085,-0.0186326764523983,0.0388624407351017
2601405449325,1.4856021404266357,-9.749189376831055,1.3395558595657349,-0.02022976242005825,-0.0157046839594841,0.0399271659553051
2601406686475,1.5131354331970215,-9.739612579345703,1.2629413604736328,-0.0204959437251091,-0.01224433071911335,0.0409918874502182
2601407923625,1.5059528350830078,-9.696516990661621,1.3072341680526733,-0.0223592109978199,-0.0173017717897892,0.0377977155148983
2601409160787,1.4939818382263184,-9.731232643127441,1.2761094570159912,-0.0247548408806324,-0.02022976242005825,0.0356682650744915
2601410397937,1.460463047027588,-9.7420072555542,1.3024457693099976,-0.0210283063352108,-0.02369011752307415,0.0407257080078125
2601411635087,1.478419542312622,-9.68694019317627,1.3335703611373901,-0.02422248013317585,-0.0119781494140625,0.0399271659553051
2601412872212,1.4484920501708984,-9.68574333190918,1.2964602708816528,-0.0181003138422966,-0.0181003138422966,0.0452507846057415
2601414109375,1.5107412338256836,-9.690531730651855,1.2952631711959839,-0.01756795309484005,-0.0196974016726017,0.0444522425532341
2601415346512,1.4437036514282227,-9.733627319335938,1.3048399686813354,-0.02315775491297245,-0.01703559048473835,0.0409918874502182
2601416583662,1.460463047027588,-9.692925453186035,1.3084312677383423,-0.0228915736079216,-0.01463996060192585,0.0415242500603199
2601417820775,1.4867992401123047,-9.692925453186035,1.2773066759109497,-0.01836649514734745,-0.01171196810901165,0.0412580706179142
2601419057962,1.5275007486343384,-9.725247383117676,1.3012486696243286,-0.02502102218568325,-0.015438503585755825,0.0412580706179142
2601420295112,1.482010841369629,-9.678560256958008,1.3299790620803833,-0.02422248013317585,-0.02022976242005825,0.0367329902946949
2601421532262,1.5071499347686768,-9.672574996948242,1.3024457693099976,-0.0223592109978199,-0.01756795309484005,0.038063894957304
2601422769387,1.4939818382263184,-9.684545516967773,1.3120225667953491,-0.02422248013317585,-0.0186326764523983,0.0388624407351017
2601424006525,1.4688427448272705,-9.697713851928711,1.2797008752822876,-0.02369011752307415,-0.0173017717897892,0.0417904332280159
2601425243700,1.4520833492279053,-9.682151794433594,1.2785037755966187,-0.0252872034907341,-0.012510511092841625,0.0396609827876091
2601426480837,1.4736311435699463,-9.677363395690918,1.3000515699386597,-0.023956298828125,-0.01943122036755085,0.038330078125
2601427718000,1.4867992401123047,-9.684545516967773,1.3072341680526733,-0.02129448764026165,-0.01703559048473835,0.0348697230219841
2601428955125,1.4867992401123047,-9.641449928283691,1.294066071510315,-0.02262539230287075,-0.01756795309484005,0.0404595248401165
2601430192275,1.4963760375976562,-9.684545516967773,1.259350061416626,-0.0234239362180233,-0.01836649514734745,0.0425889752805233
2601431429437,1.4927847385406494,-9.68933391571045,1.3239935636520386,-0.015172322280704975,-0.0228915736079216,0.0385962575674057
2601432666562,1.45806884765625,-9.651026725769043,1.3060370683670044,-0.02422248013317585,-0.01650322787463665,0.0322079136967659
2601433903725,1.5095441341400146,-9.672574996948242,1.259350061416626,-0.0220930315554142,-0.0162370465695858,0.0372653529047966
2601435140862,1.5047557353973389,-9.68694019317627,1.294066071510315,-0.02182685025036335,-0.014373779296875,0.0346035435795784
2601436378012,1.4772224426269531,-9.66539192199707,1.3108254671096802,-0.0196974016726017,-0.01836649514734745,0.0391286201775074
2601437615162,1.4508862495422363,-9.697713851928711,1.3323732614517212,-0.0215606689453125,-0.0181003138422966,0.0372653529047966
2601438852312,1.4951789379119873,-9.666589736938477,1.3012486696243286,-0.0220930315554142,-0.01756795309484005,0.0356682650744915
2601440089450,1.4963760375976562,-9.678560256958008,1.3215993642807007,-0.0167694091796875,-0.01650322787463665,0.0346035435795784
2601441326612,1.4484920501708984,-9.6618013381958,1.3108254671096802,-0.01703559048473835,-0.0157046839594841,0.0385962575674057
2601442563762,1.4688427448272705,-9.670180320739746,1.2976573705673218,-0.01783413253724575,-0.0119781494140625,0.0359344482421875
2601443800900,1.50355863571167,-9.643844604492188,1.3215993642807007,-0.01943122036755085,-0.015172322280704975,0.03087700717151165
2601445038062,1.48081374168396,-9.658209800720215,1.2797008752822876,-0.0167694091796875,-0.01650322787463665,0.0316755510866642
2601446275200,1.502361536026001,-9.647436141967773,1.2653355598449707,-0.01650322787463665,-0.01836649514734745,0.0324740931391716
2601447512362,1.4832079410552979,-9.62828254699707,1.334767460823059,-0.01943122036755085,-0.012510511092841625,0.0300784632563591
2601448749500,1.482010841369629,-9.636661529541016,1.314416766166687,-0.012776692397892475,-0.00958251953125,0.033538818359375
2601449986650,1.4616601467132568,-9.637859344482422,1.3096283674240112,-0.00931633822619915,-0.008517795242369175,0.0343373604118824
2601451223800,1.4844050407409668,-9.642647743225098,1.2952631711959839,-0.0196974016726017,-0.010647243820130825,0.0327402763068676
2601452460962,1.4700398445129395,-9.63067626953125,1.2665326595306396,-0.014906140975654125,-0.014906140975654125,0.0314093679189682
2601453698100,1.5059528350830078,-9.658209800720215,1.2725181579589844,-0.0138414166867733,-0.01597086526453495,0.0311431884765625
2601454935250,1.4987702369689941,-9.63067626953125,1.3239935636520386,-0.014906140975654125,-0.010647243820130825,0.03034464456140995
2601456172375,1.4927847385406494,-9.653421401977539,1.2952631711959839,-0.0114457868039608,-0.0114457868039608,0.033272635191679
2601457409537,1.4951789379119873,-9.651026725769043,1.2952631711959839,-0.015172322280704975,-0.012510511092841625,0.0314093679189682
2601458646687,1.4484920501708984,-9.633070945739746,1.3000515699386597,-0.00984870083630085,-0.01597086526453495,0.02661811001598835
2601459883825,1.4736311435699463,-9.609128952026367,1.3084312677383423,-0.005855984054505825,-0.01996358297765255,0.03087700717151165
2601461120987,1.4413094520568848,-9.6618013381958,1.3000515699386597,-0.010913425125181675,-0.01783413253724575,0.0311431884765625
2601462358125,1.4640543460845947,-9.671378135681152,1.3060370683670044,-0.014906140975654125,-0.01224433071911335,0.02555338479578495
2601463595275,1.4748282432556152,-9.678560256958008,1.3239935636520386,-0.007985432632267475,-0.01597086526453495,0.0268842913210392
2601464832425,1.4712369441986084,-9.646238327026367,1.2844892740249634,-0.0071868896484375,-0.014373779296875,0.0314093679189682
2601466069575,1.456871747970581,-9.642647743225098,1.2797008752822876,-0.00931633822619915,-0.014906140975654125,0.02661811001598835
2601467306700,1.4772224426269531,-9.641449928283691,1.2952631711959839,-0.0114457868039608,-0.010913425125181675,0.02182685025036335
2601468543875,1.4676456451416016,-9.666589736938477,1.3299790620803833,-0.0066545275039970875,-0.01410759799182415,0.02502102218568325
2601469781000,1.4425065517425537,-9.66299819946289,1.2964602708816528,-0.0039927163161337376,-0.012510511092841625,0.02262539230287075
2601471018175,1.4508862495422363,-9.666589736938477,1.2617442607879639,-0.008783976547420025,-0.005589802749454975,0.02555338479578495
2601472255312,1.4712369441986084,-9.649829864501953,1.2844892740249634,-0.00452507846057415,-0.0119781494140625,0.02608574740588665
2601473492450,1.48081374168396,-9.667786598205566,1.2844892740249634,-0.0015970865497365594,-0.02022976242005825,0.02182685025036335
2601474729600,1.4867992401123047,-9.690531730651855,1.2665326595306396,-0.003460354171693325,-0.01410759799182415,0.0210283063352108
2601475966737,1.4688427448272705,-9.68933391571045,1.260547161102295,0.0005323622026480734,-0.0119781494140625,0.0244886614382267
2601477203912,1.4772224426269531,-9.676166534423828,1.260547161102295,-0.0013309054775163531,-0.01171196810901165,0.02555338479578495
2601478441037,1.4760253429412842,-9.694122314453125,1.256955862045288,-0.005057440605014563,-0.005057440605014563,0.023956298828125
2601479678212,1.501164436340332,-9.6989107131958,1.313219666481018,-0.0018632676219567657,-0.0066545275039970875,0.02315775491297245
2601480915337,1.4891934394836426,-9.716867446899414,1.291671872138977,-0.003460354171693325,-0.008783976547420025,0.02502102218568325
2601482152487,1.4700398445129395,-9.683348655700684,1.2533645629882812,0.004791259765625,-0.0090501569211483,0.0271504707634449
2601483389650,1.4460978507995605,-9.694122314453125,1.2545616626739502,0.0023956298828125,-0.01171196810901165,0.03087700717151165
