timestamp_ns,accel_x,accel_y,accel_z,gyro_x,gyro_y,gyro_z
2716340591987,0.9241618514060974,-9.768342971801758,0.7697358727455139,0.0042588976211845875,0.0005323622026480734,0.0023956298828125
2716341829262,0.9085995554924011,-9.829395294189453,0.7386112213134766,-0.004791259765625,-0.0013309054775163531,0.0013309054775163531
2716343066562,0.9217676520347595,-9.822212219238281,0.7146692276000977,-0.0002661811013240367,0.006122165359556675,0.0039927163161337376
2716344303850,0.9145850539207458,-9.821015357971191,0.727837324142456,0.0010647244052961469,-0.0002661811013240367,0.0026618109550327063
2716345541137,0.9469068050384521,-9.84376049041748,0.729034423828125,-0.0002661811013240367,-0.003460354171693325,0.0077192517928779125
2716346778425,0.9409212470054626,-9.825803756713867,0.7565677165985107,0.0002661811013240367,0.0031941730994731188,0.005589802749454975
2716348015712,0.950498104095459,-9.799468040466309,0.7338228225708008,0.005057440605014563,0.0039927163161337376,0.0071868896484375
2716349252987,0.9540894031524658,-9.855731010437012,0.7122750282287598,0.005855984054505825,0.0042588976211845875,0.010647243820130825
2716350490275,0.9361328482627869,-9.829395294189453,0.7553706169128418,-0.0026618109550327063,0.0018632676219567657,0.0063883461989462376
2716351727587,0.970848798751831,-9.81263542175293,0.7697358727455139,0.0005323622026480734,0.0,0.00692070834338665
2716352964862,0.9265560507774353,-9.853337287902832,0.7398083209991455,0.0007985432748682797,0.0021294488105922937,0.004791259765625
2716354202162,0.9050082564353943,-9.904812812805176,0.7481880187988281,-0.0015970865497365594,0.0026618109550327063,0.0090501569211483
2716355439450,0.9636662006378174,-9.891644477844238,0.768538773059845,0.0007985432748682797,-0.0013309054775163531,0.005057440605014563
2716356676725,0.9588778018951416,-9.870096206665039,0.8032546639442444,0.0005323622026480734,-0.0026618109550327063,0.008517795242369175
2716357914012,0.9888052940368652,-9.883264541625977,0.7457938194274902,-0.0023956298828125,0.0023956298828125,0.0071868896484375
2716359151312,0.9528923034667969,-9.895236015319824,0.7182605266571045,-0.0007985432748682797,0.003460354171693325,0.007453070487827063
2716360388587,0.933738648891449,-9.874884605407715,0.727837324142456,-0.0018632676219567657,-0.0021294488105922937,0.0039927163161337376
2716361625875,0.9469068050384521,-9.897629737854004,0.730231523513794,-0.0010647244052961469,0.0053236219100654125,0.0026618109550327063
2716362863175,0.93254154920578,-9.889249801635742,0.7445967197418213,-0.0005323622026480734,0.0013309054775163531,0.007985432632267475
2716364100462,0.9457097053527832,-9.896432876586914,0.7529764175415039,-0.0007985432748682797,-0.0007985432748682797,0.007985432632267475
2716365337737,0.9552865028381348,-9.86770248413086,0.7661445736885071,-0.0066545275039970875,0.005057440605014563,0.007453070487827063
2716366575037,0.9636662006378174,-9.916783332824707,0.7565677165985107,-0.003460354171693325,0.0005323622026480734,0.0063883461989462376
2716367812325,0.9014169573783875,-9.907206535339355,0.7350199222564697,-0.0066545275039970875,0.0005323622026480734,0.0042588976211845875
2716369049587,0.912190854549408,-9.871294021606445,0.689530074596405,-0.008251613937318325,0.005855984054505825,0.0037265352439135313
2716370286900,0.8990227580070496,-9.8784761428833,0.730231523513794,-0.006122165359556675,0.007985432632267475,0.0010647244052961469
2716371524212,0.9349357485771179,-9.849745750427246,0.7422025203704834,-0.0029279920272529125,0.0026618109550327063,0.0031941730994731188
2716372761475,0.93254154920578,-9.827000617980957,0.751779317855835,-0.0031941730994731188,-0.0010647244052961469,0.005589802749454975
2716373998750,0.9576807022094727,-9.806650161743164,0.751779317855835,-0.005855984054505825,0.00692070834338665,0.005589802749454975
2716375236062,0.94930100440979,-9.856928825378418,0.767341673374176,-0.005855984054505825,0.0090501569211483,0.0042588976211845875
2716376473337,0.9241618514060974,-9.860519409179688,0.7493851184844971,-0.0037265352439135313,0.004791259765625,0.004791259765625
2716377710625,0.8954314589500427,-9.874884605407715,0.7457938194274902,-0.005057440605014563,0.0031941730994731188,0.0018632676219567657
2716378947912,0.9002198576927185,-9.849745750427246,0.6883329749107361,-0.007985432632267475,0.007985432632267475,0.0
2716380185200,0.9540894031524658,-9.821015357971191,0.7194576263427734,-0.007453070487827063,0.007985432632267475,-0.0026618109550327063
2716381422475,0.9469068050384521,-9.853337287902832,0.7422025203704834,-0.0071868896484375,0.00692070834338665,0.0029279920272529125
2716382659775,0.9169792532920837,-9.830592155456543,0.7529764175415039,-0.007453070487827063,0.0031941730994731188,0.0071868896484375
2716383897062,0.8906430602073669,-9.830592155456543,0.7553706169128418,-0.01171196810901165,0.010913425125181675,0.004791259765625
2716385134362,0.9516952037811279,-9.860519409179688,0.7122750282287598,-0.007985432632267475,0.008517795242369175,0.008517795242369175
2716386371650,0.9253589510917664,-9.830592155456543,0.7529764175415039,-0.0063883461989462376,0.007453070487827063,0.0018632676219567657
2716387608937,0.9217676520347595,-9.848548889160156,0.750582218170166,-0.005057440605014563,0.0053236219100654125,-0.0005323622026480734
2716388846200,0.9648633003234863,-9.81263542175293,0.7182605266571045,-0.00984870083630085,0.005589802749454975,0.0053236219100654125
2716390083512,0.9385270476341248,-9.840168952941895,0.729034423828125,-0.00958251953125,0.0031941730994731188,0.007453070487827063
2716391320787,0.9349357485771179,-9.84615421295166,0.751779317855835,-0.01117960549890995,0.0037265352439135313,-0.0018632676219567657
2716392558087,0.9349357485771179,-9.84376049041748,0.750582218170166,-0.0063883461989462376,0.005057440605014563,0.0
2716393795375,0.9612720012664795,-9.854534149169922,0.727837324142456,-0.008783976547420025,0.0063883461989462376,0.0
2716395032675,0.94930100440979,-9.865307807922363,0.7110779285430908,-0.01171196810901165,0.0077192517928779125,-0.0021294488105922937
2716396269975,0.9457097053527832,-9.86650562286377,0.7374141216278076,-0.008517795242369175,0.008251613937318325,0.0042588976211845875
2716397507250,0.9481039047241211,-9.865307807922363,0.7457938194274902,-0.012510511092841625,0.010647243820130825,-0.0026618109550327063
2716398744537,0.94930100440979,-9.920374870300293,0.7422025203704834,-0.014373779296875,0.010913425125181675,-0.0018632676219567657
2716399981812,0.9313444495201111,-9.889249801635742,0.7852981686592102,-0.013309055007994175,0.010114881210029125,0.0010647244052961469
2716401219100,0.912190854549408,-9.858125686645508,0.7182605266571045,-0.012510511092841625,0.0071868896484375,0.0
2716402456400,0.9816226959228516,-9.825803756713867,0.7110779285430908,-0.0119781494140625,0.014906140975654125,-0.0018632676219567657
2716403693687,0.8966285586357117,-9.815030097961426,0.7170634269714355,-0.008517795242369175,0.01463996060192585,0.0018632676219567657
2716404930987,0.9588778018951416,-9.824606895446777,0.7577648162841797,-0.007985432632267475,0.010647243820130825,-0.0063883461989462376
2716406168262,0.9481039047241211,-9.78869342803955,0.727837324142456,-0.01224433071911335,0.0066545275039970875,-0.0042588976211845875
2716407405575,0.9780313968658447,-9.785102844238281,0.729034423828125,-0.013042873702943325,0.0071868896484375,0.0042588976211845875
2716408642837,0.9828197956085205,-9.853337287902832,0.7230489253997803,-0.0119781494140625,0.00958251953125,0.0018632676219567657
2716409880137,0.94930100440979,-9.87967300415039,0.7433996200561523,-0.00984870083630085,0.010381062515079975,0.0026618109550327063
2716411117425,0.9385270476341248,-9.803058624267578,0.7493851184844971,-0.00984870083630085,0.00984870083630085,0.0026618109550327063
2716412354725,0.9481039047241211,-9.818621635437012,0.690727174282074,-0.00958251953125,0.0018632676219567657,-0.005855984054505825
2716413592000,0.9900023937225342,-9.799468040466309,0.730231523513794,-0.010114881210029125,0.007453070487827063,-0.0023956298828125
2716414829287,0.9816226959228516,-9.75158405303955,0.7350199222564697,-0.010114881210029125,0.0090501569211483,0.00452507846057415
2716416066587,0.950498104095459,-9.800664901733398,0.7122750282287598,-0.01117960549890995,0.01117960549890995,0.004791259765625
2716417303862,0.9540894031524658,-9.75517463684082,0.7374141216278076,-0.01117960549890995,0.008251613937318325,0.0
2716418541162,1.01753568649292,-9.827000617980957,0.7565677165985107,-0.008251613937318325,0.0077192517928779125,0.0010647244052961469
2716419778450,1.0031704902648926,-9.7791166305542,0.7721300721168518,-0.00931633822619915,0.0090501569211483,0.0042588976211845875
2716421015725,0.9876081943511963,-9.806650161743164,0.7314286231994629,-0.0066545275039970875,0.007453070487827063,-0.0010647244052961469
2716422253037,0.9588778018951416,-9.793481826782227,0.7386112213134766,-0.010647243820130825,0.008783976547420025,-0.0005323622026480734
2716423490287,0.950498104095459,-9.874884605407715,0.7350199222564697,-0.013309055007994175,0.01463996060192585,0.0007985432748682797
2716424727600,0.9792284965515137,-9.841365814208984,0.7410054206848145,-0.0071868896484375,0.010913425125181675,0.0013309054775163531
2716425964900,0.9481039047241211,-9.805453300476074,0.7553706169128418,-0.0071868896484375,0.010381062515079975,0.003460354171693325
2716427202187,1.0019733905792236,-9.803058624267578,0.7170634269714355,-0.0021294488105922937,0.007453070487827063,0.00452507846057415
2716428439475,0.9588778018951416,-9.78869342803955,0.7529764175415039,-0.0029279920272529125,0.003460354171693325,0.0023956298828125
2716429676737,0.9648633003234863,-9.805453300476074,0.7422025203704834,-0.005855984054505825,0.0063883461989462376,0.0010647244052961469
2716430914050,0.9313444495201111,-9.794679641723633,0.7493851184844971,-0.0037265352439135313,0.008251613937318325,0.003460354171693325
2716432151325,0.9852139949798584,-9.800664901733398,0.7433996200561523,-0.0042588976211845875,0.007985432632267475,0.005057440605014563
2716433388600,0.99479079246521,-9.81143856048584,0.706289529800415,-0.0031941730994731188,0.007453070487827063,0.0031941730994731188
2716434625887,0.99479079246521,-9.825803756713867,0.7481880187988281,-0.005589802749454975,0.0053236219100654125,0.0037265352439135313
2716435863200,0.9780313968658447,-9.825803756713867,0.7553706169128418,-0.004791259765625,0.0090501569211483,0.005589802749454975
2716437100500,0.9588778018951416,-9.817423820495605,0.7457938194274902,-0.0029279920272529125,0.005589802749454975,0.004791259765625
2716438337775,0.9876081943511963,-9.77791976928711,0.7398083209991455,-0.0042588976211845875,0.008783976547420025,0.0037265352439135313
2716439575062,0.9888052940368652,-9.795876502990723,0.7326257228851318,0.0010647244052961469,0.0077192517928779125,0.0066545275039970875
2716440812362,0.9684545993804932,-9.835380554199219,0.7146692276000977,0.0013309054775163531,0.0042588976211845875,0.004791259765625
2716442049637,0.9528923034667969,-9.813833236694336,0.7350199222564697,-0.0010647244052961469,0.0023956298828125,0.0063883461989462376
2716443286925,0.912190854549408,-9.81143856048584,0.7469909191131592,-0.0023956298828125,0.010381062515079975,0.0077192517928779125
2716444524225,0.9852139949798584,-9.823410034179688,0.7589619159698486,-0.004791259765625,0.012776692397892475,0.010114881210029125
2716445761525,0.9672574996948242,-9.81143856048584,0.7841010689735413,-0.0015970865497365594,0.00958251953125,0.00984870083630085
2716446998812,0.9600749015808105,-9.81024169921875,0.729034423828125,-0.0007985432748682797,0.00692070834338665,0.0119781494140625
2716448236087,0.9923965930938721,-9.816226959228516,0.7410054206848145,0.0005323622026480734,0.005589802749454975,0.00452507846057415
2716449473375,0.970848798751831,-9.84615421295166,0.7745242714881897,0.0039927163161337376,0.0066545275039970875,0.0039927163161337376
2716450710675,0.9564836025238037,-9.84495735168457,0.7326257228851318,0.0013309054775163531,0.008517795242369175,0.0042588976211845875
2716451947975,0.993593692779541,-9.84615421295166,0.7613561749458313,0.0018632676219567657,0.007985432632267475,0.0090501569211483
2716453185225,0.9445126056671143,-9.815030097961426,0.7649474740028381,0.0013309054775163531,0.0039927163161337376,0.007985432632267475
2716454422525,0.9780313968658447,-9.816226959228516,0.7362170219421387,-0.0015970865497365594,0.007453070487827063,0.007985432632267475
2716455659812,0.973242998123169,-9.84256362915039,0.7326257228851318,0.005057440605014563,0.01357523538172245,-0.0010647244052961469
2716456897100,1.016338586807251,-9.821015357971191,0.7266402244567871,0.003460354171693325,0.00931633822619915,0.0039927163161337376
2716458134400,0.9840168952941895,-9.837775230407715,0.6931213736534119,0.0013309054775163531,0.00984870083630085,0.01171196810901165
2716459371687,0.9828197956085205,-9.807847023010254,0.7433996200561523,-0.0021294488105922937,0.01171196810901165,0.00931633822619915
2716460608987,0.9540894031524658,-9.848548889160156,0.7601590752601624,-0.0023956298828125,0.010913425125181675,0.0114457868039608
2716461846262,0.9385270476341248,-9.816226959228516,0.7386112213134766,0.0,0.0090501569211483,0.01224433071911335
2716463083562,0.9864110946655273,-9.86770248413086,0.730231523513794,-0.0023956298828125,0.0063883461989462376,0.010913425125181675
2716464320862,0.9888052940368652,-9.824606895446777,0.7326257228851318,-0.0002661811013240367,0.005589802749454975,0.004791259765625
2716465558125,0.9900023937225342,-9.78869342803955,0.729034423828125,0.0031941730994731188,0.004791259765625,0.005057440605014563
2716466795425,0.9564836025238037,-9.872490882873535,0.7553706169128418,0.0029279920272529125,0.0042588976211845875,0.008251613937318325
2716468032700,0.9888052940368652,-9.816226959228516,0.7242460250854492,0.0018632676219567657,0.00452507846057415,0.010381062515079975
2716469269987,0.9864110946655273,-9.81263542175293,0.7553706169128418,-0.0042588976211845875,0.005589802749454975,0.00958251953125
2716470507275,0.9636662006378174,-9.828198432922363,0.7146692276000977,-0.0010647244052961469,0.0063883461989462376,0.00692070834338665
2716471744575,0.9469068050384521,-9.834183692932129,0.7134721279144287,0.0013309054775163531,0.0031941730994731188,0.007453070487827063
2716472981862,0.9840168952941895,-9.853337287902832,0.7194576263427734,0.0021294488105922937,0.00692070834338665,0.005855984054505825
2716474219137,0.9720458984375,-9.84256362915039,0.7038953304290771,0.0021294488105922937,0.005589802749454975,0.005057440605014563
2716475456437,0.9756371974945068,-9.825803756713867,0.7242460250854492,0.0023956298828125,0.005855984054505825,0.005855984054505825
2716476693725,0.9828197956085205,-9.831789016723633,0.7481880187988281,-0.0007985432748682797,0.00931633822619915,0.00984870083630085
2716477931012,0.9911994934082031,-9.835380554199219,0.7326257228851318,0.0018632676219567657,0.0023956298828125,0.007453070487827063
2716479168300,0.9672574996948242,-9.832986831665039,0.729034423828125,0.0015970865497365594,0.0018632676219567657,0.00452507846057415
2716480405600,0.9995791912078857,-9.858125686645508,0.7338228225708008,-0.0013309054775163531,0.008783976547420025,0.0063883461989462376
2716481642862,0.970848798751831,-9.832986831665039,0.730231523513794,0.0026618109550327063,0.005057440605014563,0.0042588976211845875
2716482880175,0.9612720012664795,-9.873687744140625,0.6811503767967224,0.0005323622026480734,0.005057440605014563,0.0063883461989462376
2716484117475,0.9133879542350769,-9.815030097961426,0.707486629486084,-0.0018632676219567657,0.003460354171693325,0.004791259765625
2716485354750,0.9971849918365479,-9.798270225524902,0.730231523513794,-0.0010647244052961469,0.0021294488105922937,0.0077192517928779125
2716486592037,0.9959878921508789,-9.860519409179688,0.7194576263427734,-0.0026618109550327063,0.0021294488105922937,0.007453070487827063
2716487829337,0.9816226959228516,-9.832986831665039,0.7326257228851318,-0.0002661811013240367,0.006122165359556675,0.006122165359556675
2716489066625,1.01753568649292,-9.870096206665039,0.7182605266571045,-0.004791259765625,0.0010647244052961469,0.0071868896484375
2716490303900,0.9888052940368652,-9.840168952941895,0.7338228225708008,-0.0007985432748682797,0.0029279920272529125,0.006122165359556675
2716491541187,0.9540894031524658,-9.813833236694336,0.727837324142456,-0.0013309054775163531,0.0042588976211845875,0.0071868896484375
2716492778475,0.9720458984375,-9.84615421295166,0.7134721279144287,0.0002661811013240367,0.0031941730994731188,0.0071868896484375
2716494015787,0.9696516990661621,-9.81263542175293,0.7266402244567871,-0.0002661811013240367,0.0013309054775163531,0.0031941730994731188
2716495253062,0.9911994934082031,-9.7791166305542,0.7733271718025208,-0.0026618109550327063,0.0015970865497365594,0.010647243820130825
2716496490350,0.970848798751831,-9.86770248413086,0.7589619159698486,-0.003460354171693325,0.005855984054505825,0.008783976547420025
2716497727650,0.9971849918365479,-9.847352027893066,0.6775590777397156,-0.005855984054505825,0.0077192517928779125,0.0063883461989462376
2716498964912,0.9828197956085205,-9.871294021606445,0.6931213736534119,-0.0018632676219567657,0.0037265352439135313,0.004791259765625
2716500202225,0.9205705523490906,-9.858125686645508,0.706289529800415,-0.0053236219100654125,0.0077192517928779125,0.005057440605014563
2716501439500,1.0019733905792236,-9.828198432922363,0.7350199222564697,-0.0090501569211483,0.008517795242369175,0.005057440605014563
2716502676787,0.9792284965515137,-9.821015357971191,0.7433996200561523,-0.0063883461989462376,0.0053236219100654125,0.007453070487827063
2716503914087,0.9720458984375,-9.797073364257812,0.7050924301147461,-0.0023956298828125,-0.0013309054775163531,0.010381062515079975
2716505151350,0.94930100440979,-9.837775230407715,0.7433996200561523,-0.00452507846057415,0.0018632676219567657,0.005057440605014563
2716506388662,0.9696516990661621,-9.817423820495605,0.729034423828125,-0.0031941730994731188,0.005855984054505825,0.008517795242369175
2716507625950,0.9576807022094727,-9.816226959228516,0.7050924301147461,-0.00692070834338665,0.0031941730994731188,0.01357523538172245
2716508863237,0.970848798751831,-9.823410034179688,0.7350199222564697,-0.005589802749454975,0.0023956298828125,0.01410759799182415
2716510100537,0.9756371974945068,-9.800664901733398,0.7661445736885071,-0.005589802749454975,-0.0018632676219567657,0.00958251953125
2716511337812,0.9780313968658447,-9.774328231811523,0.767341673374176,-0.005057440605014563,0.0021294488105922937,0.0090501569211483
2716512575100,0.9648633003234863,-9.817423820495605,0.7529764175415039,-0.00452507846057415,0.003460354171693325,0.00931633822619915
2716513812387,0.9744400978088379,-9.815030097961426,0.7326257228851318,-0.0018632676219567657,0.0,0.010381062515079975
2716515049662,0.9672574996948242,-9.789891242980957,0.7386112213134766,-0.005589802749454975,-0.0013309054775163531,0.010381062515079975
2716516286950,1.015141487121582,-9.798270225524902,0.7469909191131592,-0.0090501569211483,0.0010647244052961469,0.010913425125181675
2716517524262,0.9684545993804932,-9.7791166305542,0.7445967197418213,-0.0029279920272529125,-0.0021294488105922937,0.01996358297765255
2716518761537,0.9612720012664795,-9.837775230407715,0.7266402244567871,-0.003460354171693325,-0.0039927163161337376,0.010381062515079975
2716519998825,1.0127472877502441,-9.836577415466309,0.7326257228851318,-0.0026618109550327063,0.0013309054775163531,0.0077192517928779125
2716521236112,0.9911994934082031,-9.791088104248047,0.727837324142456,-0.0010647244052961469,-0.0013309054775163531,0.012510511092841625
2716522473425,0.993593692779541,-9.81143856048584,0.7529764175415039,-0.0042588976211845875,0.0015970865497365594,0.007985432632267475
2716523710700,0.99479079246521,-9.821015357971191,0.7565677165985107,-0.008251613937318325,0.0021294488105922937,0.00692070834338665
2716524948000,0.9289502501487732,-9.81263542175293,0.7146692276000977,-0.0031941730994731188,-0.0013309054775163531,0.00931633822619915
2716526185287,0.93254154920578,-9.773131370544434,0.7350199222564697,-0.0021294488105922937,0.0031941730994731188,0.01117960549890995
2716527422562,0.9612720012664795,-9.822212219238281,0.6979097723960876,-0.0063883461989462376,0.0013309054775163531,0.014373779296875
2716528659862,0.9792284965515137,-9.757569313049316,0.7242460250854492,-0.0031941730994731188,-0.0005323622026480734,0.010647243820130825
2716529897150,0.9744400978088379,-9.803058624267578,0.7218518257141113,-0.0029279920272529125,0.0023956298828125,0.0077192517928779125
2716531134425,0.9672574996948242,-9.803058624267578,0.7386112213134766,-0.006122165359556675,0.0063883461989462376,0.00958251953125
2716532371712,0.99479079246521,-9.786299705505371,0.730231523513794,-0.003460354171693325,0.0071868896484375,0.008517795242369175
2716533609025,0.9648633003234863,-9.813833236694336,0.7493851184844971,-0.005589802749454975,0.006122165359556675,0.01117960549890995
2716534846300,0.9361328482627869,-9.86650562286377,0.7613561749458313,-0.0037265352439135313,0.0029279920272529125,0.013309055007994175
2716536083600,0.9552865028381348,-9.834183692932129,0.7410054206848145,-0.005589802749454975,-0.0023956298828125,0.010381062515079975
2716537320875,0.9457097053527832,-9.798270225524902,0.7182605266571045,-0.003460354171693325,-0.0023956298828125,0.013309055007994175
2716538558162,0.9277531504631042,-9.822212219238281,0.730231523513794,-0.0042588976211845875,-0.0023956298828125,0.01463996060192585
2716539795462,0.9720458984375,-9.789891242980957,0.7242460250854492,-0.005057440605014563,0.0018632676219567657,0.013042873702943325
2716541032762,0.9720458984375,-9.828198432922363,0.7134721279144287,-0.0031941730994731188,0.0010647244052961469,0.00692070834338665
2716542270037,0.9552865028381348,-9.855731010437012,0.7374141216278076,-0.0029279920272529125,0.0,0.0090501569211483
2716543507325,0.9516952037811279,-9.854534149169922,0.7565677165985107,-0.0023956298828125,0.0053236219100654125,0.01357523538172245
2716544744625,0.9217676520347595,-9.847352027893066,0.7254431247711182,-0.006122165359556675,-0.0010647244052961469,0.0071868896484375
2716545981912,0.9421183466911316,-9.803058624267578,0.7050924301147461,-0.00931633822619915,0.005057440605014563,0.012510511092841625
2716547219187,0.9804255962371826,-9.849745750427246,0.6871358752250671,-0.008517795242369175,0.0013309054775163531,0.010114881210029125
2716548456487,0.9217676520347595,-9.81024169921875,0.7003040313720703,-0.004791259765625,0.0010647244052961469,0.012776692397892475
2716549693775,0.9516952037811279,-9.840168952941895,0.727837324142456,-0.0053236219100654125,0.0053236219100654125,0.00692070834338665
2716550931062,0.9409212470054626,-9.84376049041748,0.7194576263427734,-0.0039927163161337376,0.0007985432748682797,0.010114881210029125
2716552168337,0.9588778018951416,-9.799468040466309,0.6739677786827087,-0.01171196810901165,0.007453070487827063,0.0066545275039970875
2716553405637,0.9373299479484558,-9.794679641723633,0.7122750282287598,-0.0138414166867733,0.0018632676219567657,0.0063883461989462376
2716554642925,0.9648633003234863,-9.840168952941895,0.7398083209991455,-0.007453070487827063,0.0013309054775163531,0.006122165359556675
2716555880212,0.9923965930938721,-9.835380554199219,0.7182605266571045,-0.0090501569211483,0.005057440605014563,0.00452507846057415
2716557117512,0.9564836025238037,-9.84615421295166,0.7218518257141113,-0.0066545275039970875,0.005589802749454975,0.005589802749454975
2716558354800,0.94930100440979,-9.840168952941895,0.6919242739677429,-0.007985432632267475,0.0066545275039970875,0.00984870083630085
2716559592087,0.9469068050384521,-9.850942611694336,0.7374141216278076,-0.010913425125181675,0.0066545275039970875,0.004791259765625
2716560829387,0.970848798751831,-9.84376049041748,0.750582218170166,-0.010381062515079975,0.0018632676219567657,0.0026618109550327063
2716562066662,0.9600749015808105,-9.818621635437012,0.7134721279144287,-0.008251613937318325,0.006122165359556675,0.0077192517928779125
2716563303950,0.9241618514060974,-9.834183692932129,0.7170634269714355,-0.00984870083630085,0.0063883461989462376,0.0119781494140625
2716564541237,0.9516952037811279,-9.791088104248047,0.7433996200561523,-0.0077192517928779125,0.0023956298828125,0.008251613937318325
2716565778512,0.9528923034667969,-9.848548889160156,0.7194576263427734,-0.0090501569211483,0.0026618109550327063,0.005855984054505825
2716567015812,0.9720458984375,-9.807847023010254,0.7230489253997803,-0.0042588976211845875,0.0042588976211845875,0.00452507846057415
2716568253100,0.9217676520347595,-9.837775230407715,0.7194576263427734,-0.008783976547420025,0.0018632676219567657,0.0053236219100654125
2716569490387,1.0043675899505615,-9.80904483795166,0.7410054206848145,-0.010647243820130825,0.005057440605014563,-0.0026618109550327063
2716570727675,0.9696516990661621,-9.81263542175293,0.6835445761680603,-0.0071868896484375,0.008251613937318325,0.0021294488105922937
2716571964975,0.9564836025238037,-9.828198432922363,0.6955155730247498,-0.008517795242369175,0.00692070834338665,0.007985432632267475
2716573202275,0.9696516990661621,-9.835380554199219,0.7194576263427734,-0.0077192517928779125,0.004791259765625,0.0010647244052961469
2716574439550,0.9313444495201111,-9.86650562286377,0.7122750282287598,-0.0071868896484375,-0.0018632676219567657,-0.0002661811013240367
2716575676837,0.9361328482627869,-9.888052940368652,0.7122750282287598,-0.00931633822619915,0.0007985432748682797,0.0031941730994731188
2716576914137,0.9421183466911316,-9.873687744140625,0.7038953304290771,-0.0053236219100654125,0.006122165359556675,0.0023956298828125
2716578151412,0.9792284965515137,-9.828198432922363,0.7445967197418213,-0.00931633822619915,0.0013309054775163531,0.0013309054775163531
2716579388712,0.9385270476341248,-9.834183692932129,0.6967126727104187,-0.00931633822619915,0.003460354171693325,0.0063883461989462376
2716580626000,0.9361328482627869,-9.832986831665039,0.7362170219421387,-0.008783976547420025,0.0026618109550327063,0.00692070834338665
2716581863300,0.9612720012664795,-9.872490882873535,0.7254431247711182,-0.0077192517928779125,0.0039927163161337376,0.0053236219100654125
2716583100587,0.9768342971801758,-9.818621635437012,0.7469909191131592,-0.0042588976211845875,0.0037265352439135313,0.0007985432748682797
2716584337862,0.9481039047241211,-9.828198432922363,0.7098808288574219,-0.006122165359556675,0.0031941730994731188,0.0002661811013240367
2716585575150,0.9528923034667969,-9.861717224121094,0.6991068720817566,-0.00931633822619915,0.0063883461989462376,0.0015970865497365594
2716586812437,0.9864110946655273,-9.818621635437012,0.7338228225708008,-0.0066545275039970875,0.0037265352439135313,0.0021294488105922937
2716588049750,0.9540894031524658,-9.837775230407715,0.7230489253997803,-0.006122165359556675,0.0071868896484375,0.0029279920272529125
2716589287025,1.0079588890075684,-9.848548889160156,0.707486629486084,-0.005855984054505825,0.010114881210029125,0.0042588976211845875
2716590524312,0.9840168952941895,-9.838972091674805,0.7110779285430908,-0.005855984054505825,0.007985432632267475,0.004791259765625
2716591761587,0.9983820915222168,-9.80904483795166,0.6979097723960876,-0.005589802749454975,-0.0002661811013240367,0.0018632676219567657
2716592998900,0.973242998123169,-9.830592155456543,0.7038953304290771,-0.0005323622026480734,0.0013309054775163531,0.0039927163161337376
2716594236175,1.0103530883789062,-9.789891242980957,0.7457938194274902,-0.0039927163161337376,0.00452507846057415,0.0023956298828125
2716595473487,0.9720458984375,-9.785102844238281,0.7206547260284424,-0.00931633822619915,0.0031941730994731188,0.0018632676219567657
2716596710762,0.9792284965515137,-9.81024169921875,0.7314286231994629,-0.006122165359556675,0.00958251953125,0.0018632676219567657
2716597948050,0.9792284965515137,-9.77791976928711,0.750582218170166,-0.006122165359556675,0.013309055007994175,0.0031941730994731188
2716599185337,0.9660604000091553,-9.77791976928711,0.7254431247711182,-0.0010647244052961469,0.00452507846057415,0.0063883461989462376
2716600422612,0.9768342971801758,-9.797073364257812,0.690727174282074,-0.004791259765625,0.005057440605014563,0.0026618109550327063
2716601659900,0.9648633003234863,-9.835380554199219,0.730231523513794,-0.005855984054505825,0.008517795242369175,-0.0013309054775163531
2716602897212,0.950498104095459,-9.75397777557373,0.6847416758537292,-0.0071868896484375,0.00984870083630085,0.0023956298828125
2716604134500,0.9816226959228516,-9.805453300476074,0.7086837291717529,-0.0119781494140625,0.00958251953125,0.0031941730994731188
2716605371775,1.0127472877502441,-9.806650161743164,0.7050924301147461,-0.0039927163161337376,0.006122165359556675,-0.0015970865497365594
2716606609062,0.9840168952941895,-9.77672290802002,0.7553706169128418,-0.0021294488105922937,0.005589802749454975,-0.0015970865497365594
2716607846362,0.9923965930938721,-9.786299705505371,0.7350199222564697,-0.0007985432748682797,0.0029279920272529125,0.0010647244052961469
2716609083650,0.9277531504631042,-9.840168952941895,0.730231523513794,-0.0010647244052961469,0.0007985432748682797,0.0
2716610320912,0.9576807022094727,-9.787496566772461,0.7398083209991455,-0.0010647244052961469,0.00984870083630085,-0.0005323622026480734
2716611558225,0.9624691009521484,-9.803058624267578,0.730231523513794,-0.0015970865497365594,0.0005323622026480734,-0.0002661811013240367
2716612795512,0.9768342971801758,-9.822212219238281,0.6560112833976746,-0.0037265352439135313,0.0018632676219567657,0.0039927163161337376
2716614032800,0.9672574996948242,-9.822212219238281,0.6859387755393982,-0.0002661811013240367,0.005057440605014563,0.0042588976211845875
2716615270100,0.9840168952941895,-9.816226959228516,0.729034423828125,0.0,0.0031941730994731188,-0.0018632676219567657
2716616507387,0.970848798751831,-9.786299705505371,0.706289529800415,-0.0037265352439135313,0.004791259765625,0.0013309054775163531
2716617744675,0.9971849918365479,-9.803058624267578,0.7362170219421387,0.0,0.007453070487827063,0.0023956298828125
2716618981962,0.9804255962371826,-9.823410034179688,0.729034423828125,-0.0023956298828125,0.0063883461989462376,0.0013309054775163531
2716620219250,0.9792284965515137,-9.787496566772461,0.7050924301147461,-0.0007985432748682797,0.0023956298828125,0.0005323622026480734
2716621456550,0.9624691009521484,-9.81263542175293,0.7230489253997803,0.0,0.0029279920272529125,-0.0005323622026480734
2716622693837,0.9983820915222168,-9.822212219238281,0.7110779285430908,-0.0029279920272529125,0.00931633822619915,0.0018632676219567657
2716623931125,0.9768342971801758,-9.838972091674805,0.7529764175415039,0.0031941730994731188,0.008783976547420025,0.0002661811013240367
2716625168400,0.9840168952941895,-9.800664901733398,0.7433996200561523,0.0005323622026480734,0.004791259765625,0.0023956298828125
2716626405712,1.016338586807251,-9.797073364257812,0.7338228225708008,0.0005323622026480734,0.0039927163161337376,-0.0002661811013240367
2716627643000,0.9971849918365479,-9.834183692932129,0.7469909191131592,0.0005323622026480734,0.0031941730994731188,0.0005323622026480734
2716628880275,0.9648633003234863,-9.823410034179688,0.7086837291717529,-0.0010647244052961469,0.0090501569211483,0.0015970865497365594
2716630117575,0.9433155059814453,-9.816226959228516,0.6739677786827087,0.0029279920272529125,0.004791259765625,-0.0037265352439135313
2716631354875,0.9481039047241211,-9.81024169921875,0.7230489253997803,0.0,0.0039927163161337376,-0.0031941730994731188
2716632592150,0.950498104095459,-9.795876502990723,0.7038953304290771,0.0026618109550327063,0.0077192517928779125,0.0015970865497365594
2716633829425,0.9516952037811279,-9.803058624267578,0.6979097723960876,0.003460354171693325,0.005589802749454975,0.0023956298828125
2716635066725,0.9840168952941895,-9.817423820495605,0.6883329749107361,0.0010647244052961469,0.0031941730994731188,0.0013309054775163531
2716636304012,0.99479079246521,-9.801861763000488,0.7386112213134766,0.003460354171693325,0.00452507846057415,0.0010647244052961469
2716637541312,0.9636662006378174,-9.795876502990723,0.7266402244567871,0.003460354171693325,0.007453070487827063,0.0007985432748682797
2716638778600,0.9540894031524658,-9.81143856048584,0.7338228225708008,-0.0018632676219567657,0.005057440605014563,0.0007985432748682797
2716640015887,1.0055646896362305,-9.813833236694336,0.669179379940033,-0.0002661811013240367,0.0026618109550327063,0.003460354171693325
2716641253175,1.016338586807251,-9.84376049041748,0.7146692276000977,0.005057440605014563,0.005855984054505825,0.0018632676219567657
2716642490462,0.9888052940368652,-9.818621635437012,0.7242460250854492,0.008251613937318325,0.004791259765625,0.0031941730994731188
2716643727762,0.9923965930938721,-9.782708168029785,0.7098808288574219,0.003460354171693325,-0.0015970865497365594,0.0013309054775163531
2716644965037,0.9660604000091553,-9.797073364257812,0.690727174282074,0.0042588976211845875,0.0013309054775163531,-0.0015970865497365594
2716646202350,0.933738648891449,-9.813833236694336,0.7266402244567871,0.0077192517928779125,-0.0013309054775163531,0.0002661811013240367
2716647439612,0.9481039047241211,-9.797073364257812,0.7266402244567871,0.003460354171693325,0.0026618109550327063,0.0018632676219567657
2716648676912,0.9528923034667969,-9.77672290802002,0.7529764175415039,0.0042588976211845875,0.003460354171693325,0.0023956298828125
2716649914200,0.9876081943511963,-9.799468040466309,0.7254431247711182,0.0042588976211845875,0.00931633822619915,0.0015970865497365594
2716651151475,0.9588778018951416,-9.78869342803955,0.7410054206848145,0.0007985432748682797,0.0042588976211845875,-0.0026618109550327063
2716652388762,0.9624691009521484,-9.798270225524902,0.6931213736534119,0.0002661811013240367,0.003460354171693325,-0.0007985432748682797
2716653626050,0.9876081943511963,-9.819818496704102,0.706289529800415,0.005589802749454975,0.00452507846057415,0.0010647244052961469
2716654863337,0.9923965930938721,-9.795876502990723,0.7050924301147461,0.00692070834338665,-0.0026618109550327063,0.0031941730994731188
2716656100637,1.0127472877502441,-9.816226959228516,0.750582218170166,0.006122165359556675,0.005855984054505825,0.003460354171693325
2716657337950,0.9792284965515137,-9.794679641723633,0.7086837291717529,0.005057440605014563,0.005057440605014563,0.0007985432748682797
2716658575212,0.970848798751831,-9.841365814208984,0.6847416758537292,0.0031941730994731188,0.00452507846057415,0.0002661811013240367
2716659812500,0.9672574996948242,-9.864110946655273,0.7457938194274902,0.007453070487827063,0.004791259765625,0.0029279920272529125
2716661049787,1.0127472877502441,-9.828198432922363,0.730231523513794,0.0071868896484375,0.005589802749454975,-0.0010647244052961469
2716662287087,0.9564836025238037,-9.86650562286377,0.7350199222564697,0.0029279920272529125,0.005855984054505825,-0.0015970865497365594
2716663524375,0.9648633003234863,-9.849745750427246,0.6871358752250671,0.0042588976211845875,0.004791259765625,0.0026618109550327063
2716664761675,0.9780313968658447,-9.86770248413086,0.7158663272857666,0.003460354171693325,0.00452507846057415,0.006122165359556675
2716665998950,1.0091559886932373,-9.885659217834473,0.7362170219421387,0.006122165359556675,0.0018632676219567657,0.0053236219100654125
2716667236237,0.9720458984375,-9.849745750427246,0.7170634269714355,0.005855984054505825,0.0,0.0042588976211845875
2716668473550,0.9780313968658447,-9.84615421295166,0.7410054206848145,0.00692070834338665,-0.0010647244052961469,0.003460354171693325
2716669710825,0.973242998123169,-9.84256362915039,0.727837324142456,0.005057440605014563,0.0026618109550327063,0.0021294488105922937
2716670948100,0.9828197956085205,-9.829395294189453,0.7134721279144287,0.0031941730994731188,0.0026618109550327063,0.0026618109550327063
2716672185400,0.9756371974945068,-9.824606895446777,0.689530074596405,0.0063883461989462376,0.003460354171693325,0.0029279920272529125
2716673422687,1.0307037830352783,-9.81143856048584,0.7266402244567871,0.00931633822619915,0.0021294488105922937,0.00692070834338665
2716674660000,0.9696516990661621,-9.858125686645508,0.6967126727104187,0.0021294488105922937,0.006122165359556675,0.007453070487827063
2716675897262,0.9840168952941895,-9.849745750427246,0.7050924301147461,0.0015970865497365594,0.0015970865497365594,0.0039927163161337376
2716677134562,0.9397241473197937,-9.831789016723633,0.6943184733390808,0.006122165359556675,0.0026618109550327063,0.0090501569211483
2716678371862,0.973242998123169,-9.840168952941895,0.7410054206848145,-0.0002661811013240367,0.0063883461989462376,0.003460354171693325
2716679609125,0.9864110946655273,-9.837775230407715,0.6979097723960876,0.0066545275039970875,-0.0010647244052961469,0.00452507846057415
2716680846437,0.9971849918365479,-9.861717224121094,0.7266402244567871,0.0071868896484375,0.00452507846057415,0.006122165359556675
2716682083700,0.9816226959228516,-9.832986831665039,0.7158663272857666,0.005589802749454975,0.0039927163161337376,0.00958251953125
2716683321025,0.9672574996948242,-9.836577415466309,0.727837324142456,0.0026618109550327063,0.00452507846057415,0.00692070834338665
2716684558300,1.0199298858642578,-9.84495735168457,0.750582218170166,0.0042588976211845875,0.007453070487827063,0.005855984054505825
2716685795575,0.9564836025238037,-9.871294021606445,0.7038953304290771,0.004791259765625,0.008251613937318325,0.0042588976211845875
2716687032887,0.9864110946655273,-9.830592155456543,0.6991068720817566,0.004791259765625,0.0,0.005057440605014563
2716688270162,1.0187327861785889,-9.84615421295166,0.750582218170166,0.0039927163161337376,0.0015970865497365594,0.0053236219100654125
2716689507450,0.9744400978088379,-9.763554573059082,0.7254431247711182,0.0013309054775163531,0.005057440605014563,0.0021294488105922937
2716690744725,1.0031704902648926,-9.825803756713867,0.7242460250854492,0.00692070834338665,0.0013309054775163531,0.005589802749454975
2716691982037,1.0055646896362305,-9.86770248413086,0.7493851184844971,0.007985432632267475,-0.0005323622026480734,0.006122165359556675
2716693219325,0.9624691009521484,-9.807847023010254,0.7038953304290771,0.0031941730994731188,0.0023956298828125,0.0021294488105922937
2716694456612,0.9995791912078857,-9.817423820495605,0.7170634269714355,0.0005323622026480734,0.003460354171693325,0.0053236219100654125
2716695693925,0.9564836025238037,-9.77552604675293,0.7445967197418213,0.0026618109550327063,0.005057440605014563,0.01117960549890995
2716696931175,0.9983820915222168,-9.81143856048584,0.7003040313720703,0.0042588976211845875,-0.0007985432748682797,0.010381062515079975
2716698168475,0.9600749015808105,-9.837775230407715,0.7338228225708008,0.00452507846057415,0.0026618109550327063,0.00692070834338665
2716699405762,0.9720458984375,-9.813833236694336,0.7398083209991455,0.0162370465695858,0.005057440605014563,0.00692070834338665
2716700643062,0.9959878921508789,-9.81143856048584,0.730231523513794,0.013309055007994175,0.004791259765625,0.007985432632267475
2716701880337,0.9911994934082031,-9.81263542175293,0.7254431247711182,0.0063883461989462376,0.0015970865497365594,0.0066545275039970875
2716703117650,1.0259153842926025,-9.793481826782227,0.729034423828125,0.005589802749454975,0.0021294488105922937,0.0066545275039970875
2716704354925,0.9624691009521484,-9.795876502990723,0.6955155730247498,-0.0015970865497365594,0.0023956298828125,0.0023956298828125
2716705592225,0.9804255962371826,-9.781511306762695,0.7158663272857666,0.0039927163161337376,0.0013309054775163531,0.0066545275039970875
2716706829500,0.9612720012664795,-9.84495735168457,0.7493851184844971,0.008783976547420025,0.0026618109550327063,0.010647243820130825
2716708066800,0.9516952037811279,-9.805453300476074,0.7398083209991455,0.010114881210029125,0.0005323622026480734,0.008251613937318325
2716709304087,0.9911994934082031,-9.807847023010254,0.7410054206848145,0.00692070834338665,-0.0010647244052961469,0.006122165359556675
2716710541387,1.0043675899505615,-9.797073364257812,0.7194576263427734,0.007985432632267475,-0.0021294488105922937,0.013309055007994175
2716711778662,0.9540894031524658,-9.78869342803955,0.7445967197418213,0.0063883461989462376,0.0007985432748682797,0.007453070487827063
2716713015962,0.9660604000091553,-9.807847023010254,0.7457938194274902,0.0039927163161337376,0.0023956298828125,0.004791259765625
2716714253237,0.9564836025238037,-9.81024169921875,0.7422025203704834,0.007453070487827063,0.0005323622026480734,0.0077192517928779125
2716715490537,1.0007762908935547,-9.780314445495605,0.729034423828125,0.0071868896484375,0.0007985432748682797,0.0090501569211483
2716716727825,0.9756371974945068,-9.793481826782227,0.7493851184844971,0.005589802749454975,0.0002661811013240367,0.00452507846057415
2716717965125,1.013944387435913,-9.758766174316406,0.7194576263427734,0.010381062515079975,-0.0026618109550327063,0.0071868896484375
2716719202400,1.0079588890075684,-9.832986831665039,0.7445967197418213,0.008783976547420025,0.0018632676219567657,0.00931633822619915
2716720439687,1.0307037830352783,-9.791088104248047,0.7553706169128418,0.008783976547420025,0.0037265352439135313,0.010381062515079975
2716721676975,0.9995791912078857,-9.818621635437012,0.7194576263427734,0.0063883461989462376,-0.0002661811013240367,0.010381062515079975
2716722914275,0.9684545993804932,-9.81263542175293,0.7410054206848145,0.0066545275039970875,-0.003460354171693325,0.013309055007994175
2716724151550,0.9744400978088379,-9.7791166305542,0.7410054206848145,0.00692070834338665,-0.0002661811013240367,0.01171196810901165
2716725388837,1.0115501880645752,-9.77672290802002,0.729034423828125,0.0053236219100654125,0.004791259765625,0.00958251953125
2716726626150,0.9481039047241211,-9.807847023010254,0.7134721279144287,0.0066545275039970875,-0.0031941730994731188,0.00452507846057415
2716727863425,1.0031704902648926,-9.792284965515137,0.7386112213134766,0.0066545275039970875,-0.0029279920272529125,0.0066545275039970875
2716729100725,0.9911994934082031,-9.787496566772461,0.7398083209991455,0.008251613937318325,-0.005057440605014563,0.0114457868039608
2716730338012,0.9636662006378174,-9.805453300476074,0.7637503743171692,0.0063883461989462376,-0.0010647244052961469,0.0090501569211483
2716731575287,0.9624691009521484,-9.807847023010254,0.7469909191131592,0.0031941730994731188,0.0026618109550327063,0.010381062515079975
2716732812600,0.9923965930938721,-9.834183692932129,0.7218518257141113,0.00692070834338665,-0.0015970865497365594,0.01117960549890995
2716734049862,0.9780313968658447,-9.781511306762695,0.7266402244567871,0.006122165359556675,-0.0042588976211845875,0.008783976547420025
2716735287162,0.9971849918365479,-9.792284965515137,0.730231523513794,0.007453070487827063,0.0005323622026480734,0.008783976547420025
2716736524462,0.9852139949798584,-9.825803756713867,0.7422025203704834,0.003460354171693325,0.005855984054505825,0.007985432632267475
2716737761750,0.9900023937225342,-9.838972091674805,0.730231523513794,0.0063883461989462376,0.006122165359556675,0.0119781494140625
2716738999050,0.9780313968658447,-9.835380554199219,0.750582218170166,0.007453070487827063,0.0007985432748682797,0.008517795242369175
2716740236325,0.9660604000091553,-9.836577415466309,0.7182605266571045,0.00931633822619915,-0.003460354171693325,0.00984870083630085
2716741473637,0.9385270476341248,-9.829395294189453,0.751779317855835,0.005057440605014563,-0.0023956298828125,0.012510511092841625
2716742710912,0.9552865028381348,-9.84615421295166,0.7433996200561523,0.008251613937318325,-0.0042588976211845875,0.015438503585755825
2716743948187,0.9744400978088379,-9.854534149169922,0.7326257228851318,0.0114457868039608,-0.0002661811013240367,0.014906140975654125
2716745185487,0.9636662006378174,-9.838972091674805,0.729034423828125,0.008251613937318325,0.0005323622026480734,0.0173017717897892
2716746422787,0.9588778018951416,-9.864110946655273,0.7098808288574219,0.00452507846057415,-0.0037265352439135313,0.0167694091796875
2716747660062,0.9864110946655273,-9.858125686645508,0.706289529800415,0.004791259765625,-0.0015970865497365594,0.0138414166867733
2716748897350,0.970848798751831,-9.84376049041748,0.7398083209991455,0.005855984054505825,-0.0018632676219567657,0.01410759799182415
2716750134637,0.9816226959228516,-9.862914085388184,0.768538773059845,0.004791259765625,-0.0039927163161337376,0.013042873702943325
2716751371912,0.9672574996948242,-9.847352027893066,0.7206547260284424,0.003460354171693325,-0.0023956298828125,0.010913425125181675
2716752609225,0.9277531504631042,-9.849745750427246,0.727837324142456,0.0010647244052961469,0.0005323622026480734,0.01117960549890995
2716753846512,0.9792284965515137,-9.840168952941895,0.7338228225708008,0.0039927163161337376,-0.0013309054775163531,0.01357523538172245
2716755083825,1.0067617893218994,-9.840168952941895,0.7170634269714355,0.0013309054775163531,0.0002661811013240367,0.01463996060192585
2716756321075,0.9660604000091553,-9.880870819091797,0.727837324142456,0.004791259765625,-0.010114881210029125,0.0162370465695858
2716757558387,0.9648633003234863,-9.856928825378418,0.7110779285430908,0.005589802749454975,-0.0031941730994731188,0.013309055007994175
2716758795675,0.9612720012664795,-9.880870819091797,0.7338228225708008,0.0042588976211845875,-0.0039927163161337376,0.0223592109978199
2716760032975,0.9576807022094727,-9.829395294189453,0.7314286231994629,0.003460354171693325,-0.0039927163161337376,0.01650322787463665
2716761270262,0.9481039047241211,-9.858125686645508,0.7026982307434082,0.0005323622026480734,0.0005323622026480734,0.015438503585755825
2716762507550,0.9600749015808105,-9.856928825378418,0.7110779285430908,0.00452507846057415,-0.0018632676219567657,0.014906140975654125
2716763744850,0.9768342971801758,-9.855731010437012,0.7386112213134766,0.0015970865497365594,0.0,0.01597086526453495
2716764982112,0.9624691009521484,-9.841365814208984,0.7206547260284424,0.0018632676219567657,-0.0018632676219567657,0.01943122036755085
2716766219425,0.9540894031524658,-9.882067680358887,0.7481880187988281,0.0053236219100654125,-0.008517795242369175,0.015438503585755825
2716767456700,1.0019733905792236,-9.858125686645508,0.7314286231994629,0.0010647244052961469,-0.0023956298828125,0.02182685025036335
2716768694000,0.9528923034667969,-9.861717224121094,0.7254431247711182,-0.0007985432748682797,-0.0042588976211845875,0.0167694091796875
2716769931287,0.9780313968658447,-9.840168952941895,0.6955155730247498,0.0021294488105922937,-0.0042588976211845875,0.012776692397892475
2716771168575,0.9816226959228516,-9.864110946655273,0.7254431247711182,0.0007985432748682797,-0.0015970865497365594,0.0181003138422966
2716772405862,0.9792284965515137,-9.858125686645508,0.7481880187988281,-0.0029279920272529125,-0.0021294488105922937,0.01889885775744915
2716773643137,1.015141487121582,-9.840168952941895,0.6943184733390808,-0.0018632676219567657,-0.004791259765625,0.01703559048473835
2716774880425,0.9923965930938721,-9.841365814208984,0.7565677165985107,0.0037265352439135313,-0.0023956298828125,0.01357523538172245
2716776117737,0.9540894031524658,-9.84376049041748,0.7134721279144287,0.005589802749454975,0.0039927163161337376,0.014373779296875
2716777355025,0.9816226959228516,-9.827000617980957,0.7194576263427734,-0.0013309054775163531,-0.00452507846057415,0.0162370465695858
2716778592300,0.9840168952941895,-9.84256362915039,0.7541735172271729,-0.0031941730994731188,-0.006122165359556675,0.0157046839594841
2716779829600,0.9923965930938721,-9.864110946655273,0.7613561749458313,-0.0026618109550327063,-0.0021294488105922937,0.0173017717897892
2716781066887,0.9816226959228516,-9.861717224121094,0.7218518257141113,-0.005589802749454975,-0.0031941730994731188,0.0186326764523983
2716782304175,0.9672574996948242,-9.90122127532959,0.7386112213134766,-0.0021294488105922937,0.0005323622026480734,0.01889885775744915
2716783541475,0.9792284965515137,-9.894038200378418,0.7529764175415039,-0.0029279920272529125,-0.0029279920272529125,0.01756795309484005
2716784778750,0.9744400978088379,-9.836577415466309,0.7266402244567871,-0.0010647244052961469,-0.0063883461989462376,0.0181003138422966
2716786016037,0.9648633003234863,-9.870096206665039,0.7218518257141113,0.0013309054775163531,-0.0071868896484375,0.01463996060192585
2716787253325,0.9301473498344421,-9.871294021606445,0.7098808288574219,-0.0029279920272529125,-0.0090501569211483,0.0162370465695858
2716788490637,0.9277531504631042,-9.864110946655273,0.7541735172271729,-0.0010647244052961469,-0.007453070487827063,0.0186326764523983
2716789727912,0.94930100440979,-9.880870819091797,0.7362170219421387,-0.0026618109550327063,-0.0053236219100654125,0.0181003138422966
2716790965212,0.9612720012664795,-9.838972091674805,0.727837324142456,-0.0037265352439135313,-0.0066545275039970875,0.01171196810901165
2716792202500,0.9636662006378174,-9.86889934539795,0.7398083209991455,-0.0037265352439135313,-0.0023956298828125,0.0167694091796875
2716793439787,0.950498104095459,-9.852140426635742,0.7864952683448792,-0.004791259765625,-0.0042588976211845875,0.01783413253724575
2716794677062,0.9481039047241211,-9.824606895446777,0.7481880187988281,-0.0066545275039970875,-0.0063883461989462376,0.015172322280704975
2716795914362,0.9588778018951416,-9.847352027893066,0.727837324142456,-0.005855984054505825,-0.003460354171693325,0.0138414166867733
2716797151650,1.0019733905792236,-9.834183692932129,0.7493851184844971,-0.004791259765625,-0.00452507846057415,0.013042873702943325
2716798388950,0.9852139949798584,-9.824606895446777,0.7864952683448792,-0.0021294488105922937,-0.0066545275039970875,0.01224433071911335
2716799626225,0.9516952037811279,-9.852140426635742,0.7637503743171692,-0.0015970865497365594,-0.00984870083630085,0.0167694091796875
2716800863500,0.9696516990661621,-9.817423820495605,0.7266402244567871,-0.0010647244052961469,-0.0063883461989462376,0.0138414166867733
2716802100825,0.9864110946655273,-9.791088104248047,0.7182605266571045,-0.0005323622026480734,-0.0071868896484375,0.01171196810901165
2716803338112,0.9588778018951416,-9.81024169921875,0.729034423828125,-0.0005323622026480734,-0.0023956298828125,0.0167694091796875
2716804575387,0.9552865028381348,-9.829395294189453,0.7613561749458313,-0.0018632676219567657,-0.00452507846057415,0.0167694091796875
2716805812675,0.9133879542350769,-9.81263542175293,0.7733271718025208,0.0013309054775163531,-0.0053236219100654125,0.01171196810901165
2716807049975,0.9540894031524658,-9.783905029296875,0.7457938194274902,0.0021294488105922937,-0.00452507846057415,0.01117960549890995
2716808287275,0.9660604000091553,-9.821015357971191,0.7541735172271729,0.0010647244052961469,-0.0071868896484375,0.01410759799182415
2716809524550,0.9959878921508789,-9.828198432922363,0.7637503743171692,-0.0005323622026480734,-0.010381062515079975,0.012776692397892475
2716810761850,0.9576807022094727,-9.789891242980957,0.7122750282287598,0.0007985432748682797,-0.010381062515079975,0.012776692397892475
2716811999112,0.993593692779541,-9.761160850524902,0.7122750282287598,-0.0005323622026480734,-0.008251613937318325,0.0157046839594841
2716813236425,0.9971849918365479,-9.78869342803955,0.7254431247711182,-0.0021294488105922937,-0.00958251953125,0.0138414166867733
2716814473712,1.0079588890075684,-9.780314445495605,0.7457938194274902,-0.0002661811013240367,-0.005589802749454975,0.0138414166867733
2716815710987,0.9816226959228516,-9.791088104248047,0.7457938194274902,0.0005323622026480734,-0.00692070834338665,0.01224433071911335
2716816948287,0.9888052940368652,-9.800664901733398,0.7433996200561523,0.0007985432748682797,-0.008517795242369175,0.0162370465695858
2716818185587,0.973242998123169,-9.783905029296875,0.7457938194274902,0.0023956298828125,-0.00692070834338665,0.0157046839594841
2716819422875,0.9995791912078857,-9.816226959228516,0.7601590752601624,0.0015970865497365594,-0.003460354171693325,0.01171196810901165
2716820660162,0.950498104095459,-9.78869342803955,0.7422025203704834,0.0005323622026480734,-0.00692070834338665,0.01463996060192585
2716821897462,0.9876081943511963,-9.77791976928711,0.7433996200561523,0.0013309054775163531,-0.0015970865497365594,0.015438503585755825
2716823134725,0.9696516990661621,-9.822212219238281,0.7469909191131592,-0.0010647244052961469,-0.008517795242369175,0.014906140975654125
2716824372025,0.9840168952941895,-9.801861763000488,0.7230489253997803,-0.0007985432748682797,-0.012776692397892475,0.01224433071911335
2716825609325,0.9576807022094727,-9.801861763000488,0.7134721279144287,-0.003460354171693325,-0.007985432632267475,0.01117960549890995
2716826846600,0.9409212470054626,-9.807847023010254,0.730231523513794,0.0029279920272529125,-0.0077192517928779125,0.007453070487827063
2716828083900,0.9648633003234863,-9.834183692932129,0.7469909191131592,0.0039927163161337376,-0.008251613937318325,0.008251613937318325
2716829321187,0.950498104095459,-9.824606895446777,0.7398083209991455,0.0026618109550327063,-0.008251613937318325,0.0114457868039608
2716830558475,0.9756371974945068,-9.829395294189453,0.7433996200561523,0.0042588976211845875,-0.010381062515079975,0.0114457868039608
2716831795775,0.9983820915222168,-9.824606895446777,0.7529764175415039,0.0077192517928779125,-0.0114457868039608,0.012776692397892475
2716833033075,0.9445126056671143,-9.850942611694336,0.7350199222564697,0.0007985432748682797,-0.0114457868039608,0.010114881210029125
2716834270337,0.973242998123169,-9.834183692932129,0.6919242739677429,-0.0013309054775163531,-0.008251613937318325,0.010381062515079975
2716835507637,0.9828197956085205,-9.819818496704102,0.7254431247711182,0.0029279920272529125,-0.0063883461989462376,0.010381062515079975
2716836744925,0.9588778018951416,-9.819818496704102,0.7362170219421387,0.0039927163161337376,-0.0066545275039970875,0.01117960549890995
2716837982225,0.9780313968658447,-9.804256439208984,0.768538773059845,0.0031941730994731188,-0.0090501569211483,0.00958251953125
2716839219512,0.9876081943511963,-9.831789016723633,0.727837324142456,0.00452507846057415,-0.010647243820130825,0.015438503585755825
2716840456787,0.9648633003234863,-9.80904483795166,0.7374141216278076,0.003460354171693325,-0.00931633822619915,0.01410759799182415
2716841694087,0.9876081943511963,-9.819818496704102,0.706289529800415,0.0023956298828125,-0.0037265352439135313,0.010381062515079975
2716842931362,0.9600749015808105,-9.834183692932129,0.7110779285430908,0.00692070834338665,-0.00452507846057415,0.01171196810901165
2716844168675,0.9421183466911316,-9.792284965515137,0.7410054206848145,0.0031941730994731188,-0.0066545275039970875,0.008783976547420025
2716845405950,0.973242998123169,-9.81143856048584,0.7218518257141113,0.0039927163161337376,-0.010647243820130825,0.0063883461989462376
2716846643250,0.9528923034667969,-9.825803756713867,0.727837324142456,0.0026618109550327063,-0.0042588976211845875,0.0063883461989462376
2716847880525,0.9289502501487732,-9.849745750427246,0.7422025203704834,0.005057440605014563,-0.0023956298828125,0.014373779296875
2716849117825,0.9193734526634216,-9.813833236694336,0.7481880187988281,0.0021294488105922937,-0.0063883461989462376,0.014373779296875
2716850355112,0.9624691009521484,-9.813833236694336,0.7613561749458313,0.004791259765625,-0.007453070487827063,0.007985432632267475
2716851592425,0.9409212470054626,-9.794679641723633,0.7098808288574219,0.0031941730994731188,-0.0114457868039608,0.01171196810901165
2716852829687,0.9145850539207458,-9.781511306762695,0.7254431247711182,0.0023956298828125,-0.0090501569211483,0.00958251953125
2716854066975,0.9253589510917664,-9.859322547912598,0.7254431247711182,-0.0010647244052961469,-0.00452507846057415,0.0077192517928779125
2716855304287,0.94930100440979,-9.800664901733398,0.7398083209991455,-0.0002661811013240367,-0.0071868896484375,0.0138414166867733
2716856541575,0.9445126056671143,-9.850942611694336,0.7625532746315002,0.0010647244052961469,-0.007453070487827063,0.012510511092841625
2716857778850,0.9457097053527832,-9.827000617980957,0.7326257228851318,0.0010647244052961469,-0.0071868896484375,0.0138414166867733
2716859016150,0.9672574996948242,-9.860519409179688,0.7469909191131592,0.0007985432748682797,-0.008783976547420025,0.015172322280704975
2716860253437,0.933738648891449,-9.800664901733398,0.7589619159698486,-0.0005323622026480734,-0.0063883461989462376,0.01171196810901165
2716861490725,0.910993754863739,-9.821015357971191,0.7577648162841797,-0.0023956298828125,-0.005589802749454975,0.0173017717897892
2716862728025,0.9074024558067322,-9.792284965515137,0.7362170219421387,-0.0010647244052961469,-0.0077192517928779125,0.010647243820130825
2716863965300,0.94930100440979,-9.823410034179688,0.707486629486084,-0.0021294488105922937,-0.0066545275039970875,0.01224433071911335
2716865202600,0.950498104095459,-9.840168952941895,0.7158663272857666,0.0002661811013240367,-0.0037265352439135313,0.01171196810901165
2716866439887,0.9361328482627869,-9.818621635437012,0.7374141216278076,0.003460354171693325,-0.003460354171693325,0.010913425125181675
2716867677175,0.9385270476341248,-9.86889934539795,0.750582218170166,-0.0026618109550327063,-0.0015970865497365594,0.01117960549890995
2716868914475,0.9253589510917664,-9.84256362915039,0.707486629486084,-0.0010647244052961469,-0.0077192517928779125,0.010647243820130825
2716870151750,0.9433155059814453,-9.837775230407715,0.6991068720817566,0.0015970865497365594,-0.00958251953125,0.010647243820130825
2716871389037,0.9528923034667969,-9.840168952941895,0.7314286231994629,0.0037265352439135313,-0.0071868896484375,0.010913425125181675
2716872626337,0.9445126056671143,-9.855731010437012,0.7122750282287598,-0.0010647244052961469,-0.0039927163161337376,0.00931633822619915
2716873863637,0.9145850539207458,-9.835380554199219,0.7194576263427734,-0.0037265352439135313,-0.0063883461989462376,0.010114881210029125
2716875100925,0.9062053561210632,-9.854534149169922,0.7254431247711182,-0.0002661811013240367,-0.0042588976211845875,0.0090501569211483
2716876338200,0.8918401598930359,-9.86770248413086,0.7410054206848145,0.0042588976211845875,-0.0021294488105922937,0.008783976547420025
2716877575487,0.9672574996948242,-9.862914085388184,0.7410054206848145,0.0,-0.008251613937318325,0.00931633822619915
2716878812800,0.9361328482627869,-9.847352027893066,0.7553706169128418,-0.0029279920272529125,-0.0063883461989462376,0.00958251953125
2716880050075,0.9648633003234863,-9.831789016723633,0.6943184733390808,0.0,-0.0015970865497365594,0.0037265352439135313
2716881287362,0.9648633003234863,-9.835380554199219,0.7182605266571045,0.0010647244052961469,-0.0031941730994731188,0.0114457868039608
2716882524662,0.9265560507774353,-9.838972091674805,0.7194576263427734,-0.0018632676219567657,-0.008251613937318325,0.0119781494140625
2716883761962,0.9600749015808105,-9.815030097961426,0.7170634269714355,-0.0010647244052961469,-0.00692070834338665,0.01117960549890995
2716884999237,0.94930100440979,-9.819818496704102,0.7026982307434082,-0.0013309054775163531,-0.0018632676219567657,0.008251613937318325
2716886236537,0.9361328482627869,-9.824606895446777,0.729034423828125,-0.0010647244052961469,-0.0005323622026480734,0.0063883461989462376
2716887473825,0.9301473498344421,-9.841365814208984,0.7410054206848145,-0.0015970865497365594,-0.0018632676219567657,0.0063883461989462376
2716888711112,0.933738648891449,-9.799468040466309,0.6931213736534119,-0.0005323622026480734,-0.0013309054775163531,0.010114881210029125
2716889948412,0.9373299479484558,-9.829395294189453,0.7398083209991455,0.0018632676219567657,-0.0037265352439135313,0.00692070834338665
2716891185700,0.9289502501487732,-9.805453300476074,0.7110779285430908,-0.0010647244052961469,-0.0029279920272529125,0.008251613937318325
2716892422987,0.8978256583213806,-9.815030097961426,0.7314286231994629,-0.0023956298828125,0.0002661811013240367,0.00984870083630085
2716893660275,0.9169792532920837,-9.853337287902832,0.7350199222564697,0.0021294488105922937,-0.0042588976211845875,0.007453070487827063
2716894897550,0.9397241473197937,-9.783905029296875,0.7410054206848145,0.003460354171693325,-0.007453070487827063,0.0090501569211483
2716896134862,0.910993754863739,-9.792284965515137,0.7410054206848145,0.0,-0.0002661811013240367,0.0037265352439135313
2716897372137,0.9289502501487732,-9.822212219238281,0.7541735172271729,0.0026618109550327063,0.0015970865497365594,0.00984870083630085
2716898609437,0.910993754863739,-9.81024169921875,0.730231523513794,0.0005323622026480734,-0.0007985432748682797,0.005589802749454975
2716899846737,0.9409212470054626,-9.805453300476074,0.7086837291717529,-0.0031941730994731188,-0.0005323622026480734,0.008517795242369175
2716901084012,0.950498104095459,-9.803058624267578,0.7230489253997803,-0.0066545275039970875,-0.003460354171693325,0.007453070487827063
2716902321300,0.9277531504631042,-9.807847023010254,0.7254431247711182,-0.0002661811013240367,-0.0031941730994731188,0.00452507846057415
2716903558600,0.9193734526634216,-9.807847023010254,0.6763619780540466,-0.0018632676219567657,0.0021294488105922937,0.00692070834338665
2716904795887,0.9600749015808105,-9.782708168029785,0.751779317855835,-0.0029279920272529125,-0.0018632676219567657,0.008517795242369175
2716906033175,0.912190854549408,-9.783905029296875,0.7601590752601624,-0.0029279920272529125,-0.0023956298828125,0.0039927163161337376
2716907270462,0.8990227580070496,-9.789891242980957,0.7529764175415039,-0.0026618109550327063,0.0015970865497365594,-0.0013309054775163531
2716908507762,0.910993754863739,-9.822212219238281,0.7457938194274902,-0.0005323622026480734,-0.0013309054775163531,0.005057440605014563
2716909745037,0.9385270476341248,-9.818621635437012,0.7601590752601624,0.0002661811013240367,0.0007985432748682797,0.00452507846057415
2716910982325,0.933738648891449,-9.771934509277344,0.7637503743171692,0.0063883461989462376,0.0029279920272529125,0.00692070834338665
2716912219612,0.9528923034667969,-9.834183692932129,0.7433996200561523,0.0,-0.0002661811013240367,0.0013309054775163531
2716913456912,0.9481039047241211,-9.832986831665039,0.7469909191131592,-0.0018632676219567657,0.0,0.0002661811013240367
2716914694200,0.9576807022094727,-9.77791976928711,0.7410054206848145,-0.0010647244052961469,0.0,-0.0002661811013240367
2716915931512,0.9612720012664795,-9.797073364257812,0.7230489253997803,-0.0010647244052961469,0.0007985432748682797,0.0037265352439135313
2716917168787,0.9744400978088379,-9.819818496704102,0.7433996200561523,0.003460354171693325,0.0005323622026480734,0.0021294488105922937
2716918406075,0.9516952037811279,-9.837775230407715,0.7829039692878723,0.00452507846057415,0.0002661811013240367,0.003460354171693325
2716919643362,0.9397241473197937,-9.787496566772461,0.7362170219421387,0.0026618109550327063,-0.0005323622026480734,0.0013309054775163531
2716920880650,0.9205705523490906,-9.805453300476074,0.7541735172271729,0.0031941730994731188,0.0015970865497365594,-0.0029279920272529125
2716922117950,0.9576807022094727,-9.800664901733398,0.7529764175415039,-0.0010647244052961469,0.004791259765625,0.003460354171693325
2716923355237,0.9205705523490906,-9.828198432922363,0.7745242714881897,-0.0013309054775163531,0.00931633822619915,0.0037265352439135313
2716924592525,0.9193734526634216,-9.797073364257812,0.7625532746315002,0.0042588976211845875,0.0053236219100654125,0.0005323622026480734
2716925829800,0.933738648891449,-9.787496566772461,0.7529764175415039,0.0053236219100654125,0.00452507846057415,0.0005323622026480734
2716927067112,0.9995791912078857,-9.77791976928711,0.751779317855835,0.00452507846057415,0.0013309054775163531,0.0007985432748682797
2716928304387,0.9277531504631042,-9.805453300476074,0.7541735172271729,0.0,0.0037265352439135313,-0.0023956298828125
2716929541675,0.9768342971801758,-9.797073364257812,0.7757213711738586,0.0021294488105922937,0.0010647244052961469,0.0021294488105922937
2716930778975,0.9612720012664795,-9.81143856048584,0.6871358752250671,0.0015970865497365594,0.0031941730994731188,0.0029279920272529125
2716932016275,0.9373299479484558,-9.831789016723633,0.7326257228851318,0.0039927163161337376,0.0002661811013240367,0.0039927163161337376
2716933253537,0.9756371974945068,-9.853337287902832,0.7577648162841797,0.00452507846057415,0.003460354171693325,-0.0018632676219567657
2716934490850,0.9457097053527832,-9.78869342803955,0.7553706169128418,0.00452507846057415,0.005589802749454975,0.0015970865497365594
2716935728137,0.9588778018951416,-9.798270225524902,0.7026982307434082,0.0042588976211845875,0.003460354171693325,-0.0037265352439135313
2716936965437,0.9612720012664795,-9.80904483795166,0.7553706169128418,0.0042588976211845875,0.0063883461989462376,-0.0002661811013240367
2716938202712,0.9720458984375,-9.807847023010254,0.7661445736885071,0.0029279920272529125,0.0042588976211845875,0.0031941730994731188
2716939440000,0.9301473498344421,-9.795876502990723,0.7745242714881897,-0.0042588976211845875,0.0026618109550327063,-0.0026618109550327063
2716940677287,0.9612720012664795,-9.819818496704102,0.7924807667732239,0.0023956298828125,0.0039927163161337376,0.0002661811013240367
2716941914587,0.9469068050384521,-9.81024169921875,0.7445967197418213,0.0053236219100654125,0.00692070834338665,-0.0005323622026480734
2716943151875,0.9672574996948242,-9.822212219238281,0.7374141216278076,0.0029279920272529125,0.007453070487827063,-0.0029279920272529125
2716944389162,0.973242998123169,-9.795876502990723,0.7182605266571045,0.0063883461989462376,0.006122165359556675,0.0031941730994731188
2716945626450,0.9564836025238037,-9.837775230407715,0.7266402244567871,0.003460354171693325,0.005057440605014563,-0.0002661811013240367
2716946863750,1.0031704902648926,-9.804256439208984,0.7469909191131592,0.0010647244052961469,0.0018632676219567657,-0.0005323622026480734
2716948101050,0.9756371974945068,-9.81024169921875,0.7314286231994629,0.0037265352439135313,0.00692070834338665,-0.003460354171693325
2716949338312,0.9876081943511963,-9.828198432922363,0.7206547260284424,0.005855984054505825,0.0090501569211483,-0.0042588976211845875
2716950575637,0.9397241473197937,-9.803058624267578,0.7218518257141113,0.004791259765625,0.007453070487827063,-0.004791259765625
2716951812900,0.910993754863739,-9.818621635437012,0.7433996200561523,0.0007985432748682797,0.0039927163161337376,-0.0021294488105922937
2716953050200,0.9241618514060974,-9.797073364257812,0.7398083209991455,0.0015970865497365594,0.0042588976211845875,-0.0018632676219567657
2716954287500,0.9313444495201111,-9.859322547912598,0.7314286231994629,0.005855984054505825,0.005589802749454975,-0.005057440605014563
2716955524787,0.9277531504631042,-9.825803756713867,0.7410054206848145,0.007985432632267475,0.005589802749454975,-0.0023956298828125
2716956762062,0.9660604000091553,-9.834183692932129,0.7469909191131592,0.004791259765625,0.0077192517928779125,-0.0026618109550327063
2716957999375,0.9062053561210632,-9.813833236694336,0.7110779285430908,0.0002661811013240367,0.0031941730994731188,-0.0010647244052961469
2716959236650,0.8930372595787048,-9.828198432922363,0.706289529800415,0.0018632676219567657,0.0023956298828125,0.0005323622026480734
2716960473925,0.9157821536064148,-9.793481826782227,0.729034423828125,0.0,0.0026618109550327063,0.0002661811013240367
2716961711237,0.9457097053527832,-9.848548889160156,0.6991068720817566,0.0021294488105922937,0.0039927163161337376,-0.0005323622026480734
2716962948525,0.9385270476341248,-9.883264541625977,0.7577648162841797,0.0077192517928779125,0.0021294488105922937,-0.0021294488105922937
2716964185812,0.9756371974945068,-9.862914085388184,0.7110779285430908,0.00984870083630085,0.0039927163161337376,-0.0010647244052961469
2716965423100,0.9564836025238037,-9.822212219238281,0.7481880187988281,0.0029279920272529125,0.0053236219100654125,-0.0013309054775163531
2716966660400,0.9876081943511963,-9.841365814208984,0.7254431247711182,0.005589802749454975,0.008251613937318325,-0.005855984054505825
2716967897675,0.9277531504631042,-9.870096206665039,0.7398083209991455,0.0053236219100654125,0.010913425125181675,-0.0042588976211845875
2716969134975,0.9157821536064148,-9.829395294189453,0.7146692276000977,0.0023956298828125,0.0037265352439135313,-0.0018632676219567657
2716970372262,0.9576807022094727,-9.859322547912598,0.7398083209991455,0.0053236219100654125,0.0015970865497365594,-0.007453070487827063
2716971609575,0.9756371974945068,-9.815030097961426,0.7433996200561523,0.007985432632267475,0.0,-0.004791259765625
2716972846850,0.9816226959228516,-9.84256362915039,0.727837324142456,0.00692070834338665,0.0015970865497365594,-0.0021294488105922937
2716974084137,0.9672574996948242,-9.793481826782227,0.7038953304290771,0.0031941730994731188,0.0013309054775163531,-0.0005323622026480734
2716975321437,0.9660604000091553,-9.821015357971191,0.7242460250854492,-0.0005323622026480734,0.0021294488105922937,-0.0023956298828125
2716976558725,0.9540894031524658,-9.834183692932129,0.7374141216278076,0.0029279920272529125,0.005855984054505825,0.0002661811013240367
2716977796025,0.9361328482627869,-9.874884605407715,0.7158663272857666,0.0037265352439135313,0.0015970865497365594,-0.0015970865497365594
2716979033300,0.9540894031524658,-9.859322547912598,0.7386112213134766,0.0007985432748682797,0.0013309054775163531,-0.0039927163161337376
2716980270600,0.9564836025238037,-9.850942611694336,0.7314286231994629,0.0015970865497365594,0.0002661811013240367,0.0029279920272529125
2716981507862,0.950498104095459,-9.819818496704102,0.7146692276000977,0.0053236219100654125,0.0010647244052961469,-0.005057440605014563
2716982745187,1.0007762908935547,-9.848548889160156,0.7841010689735413,0.008251613937318325,0.004791259765625,-0.0029279920272529125
2716983982475,0.99479079246521,-9.834183692932129,0.7338228225708008,0.008251613937318325,0.005855984054505825,-0.0029279920272529125
2716985219750,0.9816226959228516,-9.84256362915039,0.7194576263427734,0.0026618109550327063,0.0031941730994731188,0.0005323622026480734
2716986457050,0.9840168952941895,-9.850942611694336,0.7374141216278076,-0.0005323622026480734,0.0026618109550327063,0.0002661811013240367
2716987694337,0.9600749015808105,-9.831789016723633,0.7529764175415039,0.004791259765625,0.0007985432748682797,-0.0005323622026480734
2716988931625,0.9576807022094727,-9.805453300476074,0.7745242714881897,0.0066545275039970875,0.0026618109550327063,-0.006122165359556675
2716990168912,0.9648633003234863,-9.816226959228516,0.750582218170166,0.00692070834338665,0.007453070487827063,-0.0026618109550327063
2716991406212,0.9959878921508789,-9.847352027893066,0.7493851184844971,0.005855984054505825,0.0042588976211845875,0.0005323622026480734
2716992643487,0.9660604000091553,-9.805453300476074,0.7326257228851318,0.0042588976211845875,0.0039927163161337376,0.0013309054775163531
2716993880787,0.9744400978088379,-9.840168952941895,0.7493851184844971,0.00452507846057415,0.0007985432748682797,-0.0018632676219567657
2716995118087,0.9660604000091553,-9.804256439208984,0.750582218170166,0.005855984054505825,-0.0007985432748682797,-0.003460354171693325
2716996355375,0.9768342971801758,-9.841365814208984,0.7469909191131592,0.005855984054505825,-0.0007985432748682797,-0.0018632676219567657
2716997592662,0.9852139949798584,-9.859322547912598,0.750582218170166,0.003460354171693325,0.0039927163161337376,-0.0026618109550327063
2716998829962,0.9792284965515137,-9.84256362915039,0.727837324142456,0.003460354171693325,0.0037265352439135313,-0.005589802749454975
2717000067225,0.9696516990661621,-9.81143856048584,0.7721300721168518,0.0037265352439135313,0.0029279920272529125,-0.0023956298828125
2717001304537,0.9313444495201111,-9.853337287902832,0.7350199222564697,0.0,0.003460354171693325,-0.0066545275039970875
2717002541812,0.9481039047241211,-9.806650161743164,0.7326257228851318,0.0010647244052961469,0.0018632676219567657,-0.005057440605014563
2717003779100,0.9421183466911316,-9.858125686645508,0.7433996200561523,0.0031941730994731188,0.0013309054775163531,-0.0023956298828125
2717005016400,0.950498104095459,-9.829395294189453,0.7015011310577393,0.0013309054775163531,0.0063883461989462376,-0.0031941730994731188
2717006253687,0.9516952037811279,-9.805453300476074,0.7314286231994629,0.0039927163161337376,0.008251613937318325,-0.0066545275039970875
2717007490975,0.9624691009521484,-9.835380554199219,0.6835445761680603,0.0031941730994731188,0.0021294488105922937,0.0007985432748682797
2717008728275,0.973242998123169,-9.840168952941895,0.7433996200561523,0.0018632676219567657,0.0005323622026480734,-0.0039927163161337376
2717009965562,0.9624691009521484,-9.830592155456543,0.7422025203704834,0.008251613937318325,0.0023956298828125,-0.0021294488105922937
2717011202862,0.9313444495201111,-9.86650562286377,0.7565677165985107,0.004791259765625,0.0077192517928779125,0.0
2717012440137,0.9469068050384521,-9.832986831665039,0.7613561749458313,0.006122165359556675,0.00931633822619915,-0.005057440605014563
2717013677437,0.99479079246521,-9.836577415466309,0.7565677165985107,0.006122165359556675,0.003460354171693325,-0.005589802749454975
2717014914712,0.9540894031524658,-9.783905029296875,0.7422025203704834,0.0002661811013240367,0.0039927163161337376,0.0010647244052961469
2717016152025,0.9636662006378174,-9.852140426635742,0.7410054206848145,0.0002661811013240367,0.005057440605014563,0.0
2717017389325,0.9923965930938721,-9.825803756713867,0.7912836670875549,0.00452507846057415,0.0018632676219567657,-0.003460354171693325
2717018626587,0.9696516990661621,-9.834183692932129,0.7637503743171692,0.0010647244052961469,0.0018632676219567657,-0.005855984054505825
2717019863887,0.9612720012664795,-9.86889934539795,0.7589619159698486,0.0002661811013240367,0.003460354171693325,-0.0037265352439135313
2717021101175,0.9756371974945068,-9.834183692932129,0.7733271718025208,-0.0013309054775163531,0.0031941730994731188,-0.0031941730994731188
2717022338487,0.973242998123169,-9.805453300476074,0.7613561749458313,0.003460354171693325,-0.003460354171693325,-0.005589802749454975
2717023575750,0.9576807022094727,-9.807847023010254,0.7422025203704834,0.005057440605014563,-0.0029279920272529125,-0.0037265352439135313
2717024813037,0.9612720012664795,-9.827000617980957,0.730231523513794,0.0029279920272529125,0.0029279920272529125,-0.004791259765625
2717026050350,0.9612720012664795,-9.763554573059082,0.7422025203704834,0.0037265352439135313,0.0039927163161337376,0.0007985432748682797
2717027287612,0.9672574996948242,-9.77791976928711,0.729034423828125,0.0037265352439135313,-0.0002661811013240367,-0.0026618109550327063
2717028524925,0.9852139949798584,-9.836577415466309,0.7410054206848145,0.00452507846057415,-0.0029279920272529125,-0.005855984054505825
2717029762200,0.9792284965515137,-9.829395294189453,0.7577648162841797,0.0023956298828125,-0.0007985432748682797,-0.007985432632267475
2717030999500,0.9804255962371826,-9.806650161743164,0.7326257228851318,0.0023956298828125,0.004791259765625,-0.0066545275039970875
2717032236812,0.9995791912078857,-9.825803756713867,0.7410054206848145,0.003460354171693325,0.005855984054505825,-0.005589802749454975
2717033474100,0.99479079246521,-9.750386238098145,0.7493851184844971,0.00452507846057415,0.0031941730994731188,-0.003460354171693325
2717034711362,0.9660604000091553,-9.822212219238281,0.7493851184844971,0.0023956298828125,0.0042588976211845875,-0.0039927163161337376
2717035948662,0.9840168952941895,-9.791088104248047,0.7242460250854492,0.007985432632267475,0.0002661811013240367,-0.005057440605014563
2717037185950,0.9780313968658447,-9.828198432922363,0.7697358727455139,0.005855984054505825,0.0021294488105922937,-0.005057440605014563
2717038423237,0.9900023937225342,-9.81024169921875,0.7721300721168518,0.0037265352439135313,0.006122165359556675,-0.005855984054505825
2717039660537,0.9469068050384521,-9.795876502990723,0.7206547260284424,0.0031941730994731188,0.005855984054505825,-0.008517795242369175
2717040897812,0.9636662006378174,-9.834183692932129,0.7637503743171692,0.005855984054505825,0.0013309054775163531,-0.007453070487827063
2717042135125,0.9397241473197937,-9.835380554199219,0.7793126702308655,0.008517795242369175,0.0015970865497365594,-0.0039927163161337376
2717043372412,1.0019733905792236,-9.836577415466309,0.7469909191131592,0.008251613937318325,0.0053236219100654125,-0.005057440605014563
2717044609687,0.993593692779541,-9.832986831665039,0.750582218170166,0.006122165359556675,-0.0023956298828125,-0.0010647244052961469
2717045846975,0.9624691009521484,-9.883264541625977,0.7661445736885071,0.0,0.0015970865497365594,-0.00692070834338665
2717047084275,0.9876081943511963,-9.914389610290527,0.7529764175415039,0.0037265352439135313,0.003460354171693325,-0.006122165359556675
2717048321562,0.9624691009521484,-9.84615421295166,0.7086837291717529,0.0031941730994731188,0.0015970865497365594,-0.0013309054775163531
2717049558875,0.9900023937225342,-9.859322547912598,0.727837324142456,0.0066545275039970875,-0.0005323622026480734,-0.0053236219100654125
2717050796137,0.993593692779541,-9.891644477844238,0.7469909191131592,0.007985432632267475,0.0005323622026480734,-0.0071868896484375
2717052033425,0.9828197956085205,-9.885659217834473,0.8140285611152649,0.0071868896484375,-0.0013309054775163531,-0.0029279920272529125
2717053270737,0.973242998123169,-9.870096206665039,0.750582218170166,0.0031941730994731188,-0.0018632676219567657,-0.0018632676219567657
2717054508012,0.933738648891449,-9.888052940368652,0.7374141216278076,0.00452507846057415,0.0010647244052961469,-0.0029279920272529125
2717055745300,0.9636662006378174,-9.855731010437012,0.7469909191131592,0.0015970865497365594,-0.0042588976211845875,-0.006122165359556675
2717056982600,0.9696516990661621,-9.871294021606445,0.7529764175415039,0.0021294488105922937,-0.004791259765625,-0.0042588976211845875
2717058219875,0.9804255962371826,-9.889249801635742,0.751779317855835,0.0023956298828125,0.0010647244052961469,-0.0018632676219567657
2717059457175,0.9911994934082031,-9.894038200378418,0.7469909191131592,0.0066545275039970875,0.0007985432748682797,0.0018632676219567657
2717060694475,0.9804255962371826,-9.873687744140625,0.707486629486084,0.0039927163161337376,0.0015970865497365594,-0.0077192517928779125
2717061931775,0.9816226959228516,-9.861717224121094,0.7577648162841797,-0.0007985432748682797,0.0002661811013240367,-0.0037265352439135313
2717063169050,0.9804255962371826,-9.862914085388184,0.7553706169128418,-0.0010647244052961469,0.0015970865497365594,-0.0002661811013240367
2717064406350,1.0079588890075684,-9.862914085388184,0.7625532746315002,-0.0013309054775163531,0.0071868896484375,-0.010114881210029125
2717065643637,1.0031704902648926,-9.822212219238281,0.7577648162841797,-0.0029279920272529125,0.0007985432748682797,-0.005589802749454975
2717066880912,0.9971849918365479,-9.850942611694336,0.7529764175415039,-0.008783976547420025,0.0007985432748682797,-0.005855984054505825
2717068118212,0.9792284965515137,-9.837775230407715,0.7338228225708008,-0.0029279920272529125,0.0005323622026480734,-0.0066545275039970875
2717069355500,0.9995791912078857,-9.84615421295166,0.7230489253997803,0.0005323622026480734,0.004791259765625,-0.0007985432748682797
2717070592787,0.9995791912078857,-9.831789016723633,0.7086837291717529,0.0010647244052961469,0.0037265352439135313,-0.004791259765625
2717071830087,0.9971849918365479,-9.804256439208984,0.727837324142456,-0.0013309054775163531,-0.0023956298828125,-0.0037265352439135313
2717073067375,1.0127472877502441,-9.785102844238281,0.7577648162841797,-0.0005323622026480734,-0.0015970865497365594,-0.0023956298828125
2717074304675,0.9792284965515137,-9.793481826782227,0.7374141216278076,-0.0018632676219567657,0.0010647244052961469,-0.005855984054505825
2717075541950,0.9684545993804932,-9.806650161743164,0.7493851184844971,-0.003460354171693325,0.00452507846057415,-0.007985432632267475
2717076779237,0.9804255962371826,-9.771934509277344,0.7374141216278076,-0.0015970865497365594,0.0,-0.0039927163161337376
2717078016550,0.9792284965515137,-9.77791976928711,0.750582218170166,-0.0026618109550327063,-0.0007985432748682797,0.0007985432748682797
2717079253837,0.9864110946655273,-9.822212219238281,0.7134721279144287,0.0007985432748682797,-0.0042588976211845875,-0.0039927163161337376
2717080491112,1.0031704902648926,-9.84495735168457,0.7422025203704834,-0.004791259765625,-0.0005323622026480734,-0.0071868896484375
2717081728425,0.9588778018951416,-9.794679641723633,0.7410054206848145,-0.0063883461989462376,0.0007985432748682797,-0.0018632676219567657
2717082965700,0.9923965930938721,-9.816226959228516,0.7386112213134766,0.0063883461989462376,-0.005855984054505825,0.0023956298828125
2717084203000,1.01753568649292,-9.77552604675293,0.7230489253997803,0.0010647244052961469,-0.0042588976211845875,-0.00984870083630085
2717085440262,0.9959878921508789,-9.806650161743164,0.7218518257141113,0.0018632676219567657,-0.0010647244052961469,-0.00452507846057415
2717086677575,0.9564836025238037,-9.792284965515137,0.750582218170166,0.0042588976211845875,0.005855984054505825,-0.0039927163161337376
2717087914850,1.013944387435913,-9.817423820495605,0.7457938194274902,-0.0005323622026480734,0.0018632676219567657,-0.0077192517928779125
2717089152150,0.9744400978088379,-9.838972091674805,0.7362170219421387,-0.0013309054775163531,-0.0002661811013240367,-0.008517795242369175
2717090389425,0.9612720012664795,-9.821015357971191,0.730231523513794,0.003460354171693325,0.0,-0.0023956298828125
2717091626712,0.973242998123169,-9.794679641723633,0.706289529800415,-0.0015970865497365594,0.0005323622026480734,-0.0037265352439135313
2717092864012,0.9792284965515137,-9.828198432922363,0.7350199222564697,-0.0007985432748682797,-0.0026618109550327063,-0.0053236219100654125
2717094101325,1.0127472877502441,-9.838972091674805,0.7445967197418213,0.0007985432748682797,-0.005855984054505825,-0.0031941730994731188
2717095338612,1.0115501880645752,-9.822212219238281,0.7026982307434082,0.0013309054775163531,0.0013309054775163531,-0.0066545275039970875
2717096575887,0.9792284965515137,-9.889249801635742,0.7350199222564697,0.00452507846057415,0.0018632676219567657,0.0002661811013240367
2717097813187,0.9923965930938721,-9.816226959228516,0.7182605266571045,0.0002661811013240367,0.0007985432748682797,-0.0005323622026480734
2717099050487,1.0223240852355957,-9.850942611694336,0.7122750282287598,0.0029279920272529125,-0.0005323622026480734,-0.0005323622026480734
2717100287775,1.0007762908935547,-9.825803756713867,0.7026982307434082,0.005589802749454975,0.0002661811013240367,-0.0037265352439135313
2717101525037,1.0271124839782715,-9.841365814208984,0.7314286231994629,0.0029279920272529125,0.0039927163161337376,-0.0042588976211845875
2717102762362,1.0055646896362305,-9.858125686645508,0.706289529800415,0.003460354171693325,0.0002661811013240367,0.0002661811013240367
2717103999650,0.9971849918365479,-9.86889934539795,0.7206547260284424,0.0023956298828125,0.0037265352439135313,-0.0023956298828125
2717105236937,1.0079588890075684,-9.84495735168457,0.7386112213134766,-0.0010647244052961469,0.0010647244052961469,-0.0053236219100654125
2717106474225,0.9983820915222168,-9.817423820495605,0.7374141216278076,0.0002661811013240367,0.0005323622026480734,-0.0005323622026480734
2717107711525,0.9672574996948242,-9.854534149169922,0.7230489253997803,0.0002661811013240367,-0.0002661811013240367,-0.0023956298828125
2717108948800,1.01753568649292,-9.797073364257812,0.7242460250854492,0.0013309054775163531,-0.0018632676219567657,-0.0013309054775163531
2717110186087,1.0007762908935547,-9.831789016723633,0.7410054206848145,0.0018632676219567657,-0.0005323622026480734,-0.0021294488105922937
2717111423387,0.9768342971801758,-9.861717224121094,0.7314286231994629,-0.0026618109550327063,-0.0005323622026480734,-0.0037265352439135313
2717112660662,0.950498104095459,-9.854534149169922,0.7398083209991455,0.0010647244052961469,0.0023956298828125,0.0
2717113897975,0.9588778018951416,-9.858125686645508,0.7038953304290771,0.0031941730994731188,0.0023956298828125,-0.0007985432748682797
2717115135262,1.0007762908935547,-9.852140426635742,0.768538773059845,0.0007985432748682797,-0.0018632676219567657,0.0007985432748682797
2717116372537,0.9911994934082031,-9.870096206665039,0.7026982307434082,-0.0015970865497365594,0.0021294488105922937,0.0018632676219567657
2717117609837,0.9792284965515137,-9.9000244140625,0.6715735793113708,0.0002661811013240367,0.0042588976211845875,-0.0013309054775163531
2717118847125,0.9696516990661621,-9.877279281616211,0.727837324142456,-0.003460354171693325,0.0037265352439135313,-0.0066545275039970875
2717120084425,0.9900023937225342,-9.825803756713867,0.7661445736885071,-0.0005323622026480734,-0.0005323622026480734,0.0013309054775163531
2717121321712,1.0235211849212646,-9.838972091674805,0.727837324142456,-0.0005323622026480734,0.0002661811013240367,0.0005323622026480734
2717122559012,0.9840168952941895,-9.84256362915039,0.7661445736885071,-0.003460354171693325,0.0,0.0023956298828125
2717123796300,1.015141487121582,-9.835380554199219,0.7422025203704834,-0.007985432632267475,-0.0013309054775163531,-0.0002661811013240367
2717125033587,1.0307037830352783,-9.849745750427246,0.7529764175415039,-0.005057440605014563,-0.0018632676219567657,-0.005057440605014563
2717126270862,1.0319008827209473,-9.823410034179688,0.7445967197418213,-0.0037265352439135313,-0.0002661811013240367,-0.0053236219100654125
2717127508162,0.9804255962371826,-9.825803756713867,0.7769184708595276,-0.0005323622026480734,0.0002661811013240367,-0.0002661811013240367
2717128745450,0.9876081943511963,-9.77791976928711,0.7553706169128418,-0.0021294488105922937,-0.0005323622026480734,0.0026618109550327063
2717129982737,1.0414777994155884,-9.827000617980957,0.7254431247711182,-0.0063883461989462376,-0.0010647244052961469,-0.0021294488105922937
2717131220037,0.9876081943511963,-9.799468040466309,0.7398083209991455,-0.0029279920272529125,-0.0023956298828125,-0.0005323622026480734
2717132457325,1.0115501880645752,-9.773131370544434,0.7410054206848145,0.0010647244052961469,0.0,0.0002661811013240367
2717133694612,0.9959878921508789,-9.81024169921875,0.7661445736885071,-0.0002661811013240367,0.0007985432748682797,-0.005589802749454975
2717134931912,1.0019733905792236,-9.797073364257812,0.7398083209991455,0.0026618109550327063,-0.0026618109550327063,-0.0013309054775163531
2717136169187,1.0223240852355957,-9.770737648010254,0.7398083209991455,-0.0023956298828125,-0.0037265352439135313,0.0029279920272529125
2717137406475,1.0342952013015747,-9.795876502990723,0.730231523513794,0.0013309054775163531,-0.006122165359556675,0.0090501569211483
2717138643775,0.9864110946655273,-9.786299705505371,0.7266402244567871,0.0021294488105922937,-0.0039927163161337376,-0.0002661811013240367
2717139881062,1.0247182846069336,-9.769539833068848,0.7386112213134766,0.003460354171693325,0.0005323622026480734,-0.0023956298828125
2717141118362,0.9995791912078857,-9.75278091430664,0.7481880187988281,0.0018632676219567657,-0.0002661811013240367,0.0018632676219567657
2717142355637,1.0007762908935547,-9.718064308166504,0.7422025203704834,0.0018632676219567657,-0.005057440605014563,0.0013309054775163531
2717143592937,0.9983820915222168,-9.773131370544434,0.7350199222564697,0.0053236219100654125,-0.005589802749454975,0.0
2717144830225,0.9816226959228516,-9.75278091430664,0.7697358727455139,0.0010647244052961469,-0.0053236219100654125,-0.0002661811013240367
2717146067525,0.973242998123169,-9.747992515563965,0.7445967197418213,0.0026618109550327063,-0.0039927163161337376,0.0037265352439135313
2717147304800,1.0259153842926025,-9.756372451782227,0.7110779285430908,0.007453070487827063,-0.00692070834338665,0.0015970865497365594
2717148542087,0.99479079246521,-9.771934509277344,0.751779317855835,0.0077192517928779125,-0.00958251953125,-0.0007985432748682797
2717149779400,1.0043675899505615,-9.726444244384766,0.7374141216278076,0.0039927163161337376,-0.0090501569211483,0.00452507846057415
2717151016650,1.0259153842926025,-9.758766174316406,0.6823474764823914,0.0090501569211483,-0.004791259765625,0.0023956298828125
2717152253975,0.9792284965515137,-9.765949249267578,0.7338228225708008,0.0090501569211483,-0.0029279920272529125,0.0018632676219567657
2717153491250,0.993593692779541,-9.768342971801758,0.7410054206848145,0.008251613937318325,-0.00692070834338665,-0.0007985432748682797
2717154728537,0.9983820915222168,-9.793481826782227,0.7625532746315002,0.008517795242369175,-0.0042588976211845875,0.0037265352439135313
2717155965850,0.9923965930938721,-9.749189376831055,0.7433996200561523,0.0077192517928779125,-0.008517795242369175,0.0071868896484375
2717157203137,0.99479079246521,-9.77791976928711,0.7422025203704834,0.007985432632267475,-0.007453070487827063,0.007453070487827063
2717158440425,0.9576807022094727,-9.783905029296875,0.7445967197418213,0.00931633822619915,-0.0021294488105922937,0.0071868896484375
2717159677712,0.9923965930938721,-9.762357711791992,0.7553706169128418,0.005855984054505825,-0.0031941730994731188,0.00692070834338665
2717160915012,1.0019733905792236,-9.806650161743164,0.7469909191131592,0.0114457868039608,-0.0031941730994731188,0.0066545275039970875
2717162152287,0.9457097053527832,-9.758766174316406,0.7110779285430908,0.01117960549890995,-0.0042588976211845875,0.0010647244052961469
2717163389587,1.0043675899505615,-9.815030097961426,0.7481880187988281,0.007453070487827063,-0.0053236219100654125,0.0063883461989462376
2717164626900,0.9983820915222168,-9.780314445495605,0.7266402244567871,0.008517795242369175,-0.005855984054505825,0.004791259765625
2717165864162,0.9852139949798584,-9.787496566772461,0.7445967197418213,0.00984870083630085,-0.0042588976211845875,0.00452507846057415
2717167101462,1.0031704902648926,-9.793481826782227,0.7254431247711182,0.010114881210029125,-0.004791259765625,0.0021294488105922937
2717168338762,1.0390836000442505,-9.801861763000488,0.7469909191131592,0.01117960549890995,0.0,0.0
2717169576062,0.9684545993804932,-9.81143856048584,0.7326257228851318,0.012510511092841625,0.0005323622026480734,0.0018632676219567657
2717170813325,0.973242998123169,-9.792284965515137,0.6955155730247498,0.008251613937318325,0.0015970865497365594,0.007985432632267475
2717172050612,0.9744400978088379,-9.829395294189453,0.6883329749107361,0.005057440605014563,-0.0039927163161337376,0.008783976547420025
2717173287887,1.0342952013015747,-9.828198432922363,0.7374141216278076,0.00692070834338665,-0.003460354171693325,0.0037265352439135313
2717174525200,1.0031704902648926,-9.789891242980957,0.768538773059845,0.0063883461989462376,-0.00452507846057415,0.0018632676219567657
2717175762487,0.9756371974945068,-9.822212219238281,0.7457938194274902,0.00931633822619915,-0.0029279920272529125,0.0026618109550327063
2717176999775,1.0007762908935547,-9.841365814208984,0.7026982307434082,0.0090501569211483,-0.0026618109550327063,0.006122165359556675
2717178237087,0.9792284965515137,-9.821015357971191,0.7122750282287598,0.008517795242369175,-0.003460354171693325,0.007453070487827063
2717179474375,1.0043675899505615,-9.817423820495605,0.751779317855835,0.007453070487827063,-0.0042588976211845875,0.004791259765625
2717180711662,0.9995791912078857,-9.80904483795166,0.7110779285430908,0.00984870083630085,-0.0007985432748682797,0.0010647244052961469
2717181948950,0.9959878921508789,-9.81143856048584,0.6979097723960876,0.00692070834338665,-0.0066545275039970875,0.0
2717183186250,0.9876081943511963,-9.840168952941895,0.727837324142456,0.005855984054505825,-0.0029279920272529125,0.0007985432748682797
2717184423537,0.9576807022094727,-9.801861763000488,0.7493851184844971,0.0090501569211483,-0.003460354171693325,-0.0002661811013240367
2717185660837,1.0067617893218994,-9.797073364257812,0.7134721279144287,0.00984870083630085,-0.005589802749454975,0.0026618109550327063
2717186898112,0.9696516990661621,-9.824606895446777,0.7433996200561523,0.0063883461989462376,-0.0063883461989462376,0.0010647244052961469
2717188135400,0.9756371974945068,-9.765949249267578,0.7350199222564697,0.010647243820130825,-0.008517795242369175,0.0039927163161337376
2717189372687,0.99479079246521,-9.850942611694336,0.7326257228851318,0.0053236219100654125,-0.0026618109550327063,0.0037265352439135313
2717190609987,0.9624691009521484,-9.821015357971191,0.7577648162841797,0.008783976547420025,-0.0021294488105922937,0.0021294488105922937
2717191847275,0.9313444495201111,-9.835380554199219,0.727837324142456,0.0071868896484375,-0.0026618109550327063,-0.0007985432748682797
2717193084562,0.9349357485771179,-9.800664901733398,0.7242460250854492,0.0037265352439135313,-0.0063883461989462376,0.0021294488105922937
2717194321850,0.9552865028381348,-9.824606895446777,0.7314286231994629,0.003460354171693325,-0.00452507846057415,0.0005323622026480734
2717195559150,0.9816226959228516,-9.841365814208984,0.7553706169128418,0.00958251953125,-0.0026618109550327063,0.003460354171693325
2717196796437,0.9481039047241211,-9.815030097961426,0.7541735172271729,0.00931633822619915,-0.0026618109550327063,0.0037265352439135313
2717198033725,0.9852139949798584,-9.770737648010254,0.7350199222564697,0.0090501569211483,-0.0037265352439135313,0.0026618109550327063
2717199271025,0.950498104095459,-9.792284965515137,0.7158663272857666,0.010114881210029125,-0.00452507846057415,0.0053236219100654125
2717200508312,0.9469068050384521,-9.823410034179688,0.7194576263427734,0.0053236219100654125,-0.0010647244052961469,0.005589802749454975
2717201745600,0.9469068050384521,-9.823410034179688,0.7398083209991455,0.00931633822619915,0.0,0.004791259765625
2717202982887,0.9672574996948242,-9.86770248413086,0.7445967197418213,0.008251613937318325,-0.00452507846057415,0.0023956298828125
2717204220175,0.9469068050384521,-9.855731010437012,0.7565677165985107,0.007985432632267475,-0.005855984054505825,0.0029279920272529125
2717205457450,0.9421183466911316,-9.856928825378418,0.6979097723960876,0.007985432632267475,-0.0007985432748682797,0.0018632676219567657
2717206694750,0.9684545993804932,-9.84495735168457,0.7733271718025208,0.008251613937318325,-0.0023956298828125,0.0010647244052961469
2717207932050,0.9564836025238037,-9.892841339111328,0.6931213736534119,0.0066545275039970875,0.0,0.0013309054775163531
2717209169337,0.9397241473197937,-9.8784761428833,0.6931213736534119,0.0066545275039970875,-0.0005323622026480734,-0.0002661811013240367
2717210406637,0.9636662006378174,-9.874884605407715,0.7326257228851318,0.0119781494140625,-0.0023956298828125,0.0005323622026480734
2717211643937,0.9756371974945068,-9.890447616577148,0.7146692276000977,0.0039927163161337376,-0.0013309054775163531,0.0013309054775163531
2717212881200,1.0019733905792236,-9.895236015319824,0.7098808288574219,0.003460354171693325,0.0077192517928779125,0.0013309054775163531
2717214118500,0.9397241473197937,-9.891644477844238,0.7386112213134766,0.006122165359556675,0.0039927163161337376,0.0015970865497365594
2717215355800,0.9421183466911316,-9.894038200378418,0.727837324142456,0.00452507846057415,-0.0005323622026480734,0.0015970865497365594
2717216593087,0.93254154920578,-9.939528465270996,0.7206547260284424,0.0015970865497365594,0.0002661811013240367,-0.004791259765625
2717217830375,0.9900023937225342,-9.906009674072266,0.7577648162841797,0.0031941730994731188,0.0007985432748682797,0.0
2717219067687,0.9624691009521484,-9.880870819091797,0.7326257228851318,-0.0023956298828125,0.0005323622026480734,-0.0021294488105922937
2717220304962,1.0067617893218994,-9.883264541625977,0.7015011310577393,-0.0007985432748682797,0.005855984054505825,-0.004791259765625
2717221542250,0.9528923034667969,-9.926360130310059,0.667982280254364,-0.0021294488105922937,0.007453070487827063,-0.0021294488105922937
2717222779537,0.9624691009521484,-9.932345390319824,0.6943184733390808,-0.0013309054775163531,0.0039927163161337376,-0.004791259765625
2717224016837,0.9900023937225342,-9.9000244140625,0.7170634269714355,-0.004791259765625,-0.0007985432748682797,-0.008783976547420025
2717225254112,0.9385270476341248,-9.882067680358887,0.7098808288574219,0.0002661811013240367,0.003460354171693325,-0.0071868896484375
2717226491425,0.9756371974945068,-9.8784761428833,0.7218518257141113,0.0013309054775163531,0.007453070487827063,-0.005589802749454975
2717227728712,0.9576807022094727,-9.892841339111328,0.7206547260284424,-0.00452507846057415,0.005057440605014563,-0.0010647244052961469
2717228966000,0.9612720012664795,-9.895236015319824,0.6751648783683777,-0.0013309054775163531,0.003460354171693325,-0.0005323622026480734
2717230203287,0.9516952037811279,-9.858125686645508,0.7146692276000977,-0.0029279920272529125,0.0039927163161337376,-0.010114881210029125
2717231440575,0.9852139949798584,-9.84615421295166,0.689530074596405,-0.004791259765625,0.005057440605014563,-0.01117960549890995
2717232677875,0.9828197956085205,-9.827000617980957,0.7003040313720703,-0.00452507846057415,0.010913425125181675,-0.0090501569211483
2717233915137,0.9624691009521484,-9.835380554199219,0.7086837291717529,-0.005855984054505825,0.01410759799182415,-0.008517795242369175
2717235152462,0.9612720012664795,-9.850942611694336,0.7110779285430908,-0.005589802749454975,0.0071868896484375,-0.00931633822619915
2717236389750,0.9636662006378174,-9.849745750427246,0.730231523513794,-0.0063883461989462376,0.007985432632267475,-0.007985432632267475
2717237627037,0.9588778018951416,-9.852140426635742,0.7362170219421387,-0.004791259765625,0.010647243820130825,-0.003460354171693325
2717238864312,0.9624691009521484,-9.84615421295166,0.7182605266571045,-0.005589802749454975,0.010647243820130825,-0.0077192517928779125
2717240101625,0.993593692779541,-9.84615421295166,0.7625532746315002,-0.004791259765625,0.007985432632267475,-0.00692070834338665
2717241338912,0.9457097053527832,-9.840168952941895,0.7553706169128418,-0.0066545275039970875,0.0077192517928779125,-0.008251613937318325
2717242576200,0.9828197956085205,-9.807847023010254,0.7326257228851318,-0.0053236219100654125,0.010913425125181675,-0.01171196810901165
2717243813487,0.9828197956085205,-9.830592155456543,0.7038953304290771,0.0010647244052961469,0.00692070834338665,-0.014373779296875
2717245050775,1.0307037830352783,-9.797073364257812,0.6859387755393982,0.0005323622026480734,0.007985432632267475,-0.00958251953125
2717246288062,1.0079588890075684,-9.823410034179688,0.7577648162841797,-0.007453070487827063,0.01224433071911335,-0.0063883461989462376
2717247525387,0.9756371974945068,-9.818621635437012,0.7218518257141113,-0.0037265352439135313,0.01357523538172245,-0.005589802749454975
2717248762650,0.9911994934082031,-9.834183692932129,0.7194576263427734,0.0007985432748682797,0.00958251953125,-0.010381062515079975
2717249999937,1.0031704902648926,-9.819818496704102,0.7230489253997803,-0.0005323622026480734,0.010913425125181675,-0.007453070487827063
2717251237225,1.0235211849212646,-9.799468040466309,0.7206547260284424,-0.0005323622026480734,0.014373779296875,-0.01117960549890995
2717252474525,0.9397241473197937,-9.818621635437012,0.7182605266571045,0.0021294488105922937,0.005855984054505825,-0.013042873702943325
2717253711812,0.9696516990661621,-9.780314445495605,0.7146692276000977,0.005589802749454975,0.0071868896484375,-0.0042588976211845875
2717254949112,1.0330979824066162,-9.774328231811523,0.7398083209991455,0.0026618109550327063,0.01463996060192585,-0.0018632676219567657
2717256186387,1.0235211849212646,-9.80904483795166,0.750582218170166,-0.0005323622026480734,0.0138414166867733,-0.0077192517928779125
2717257423700,1.015141487121582,-9.828198432922363,0.7110779285430908,0.0026618109550327063,0.0167694091796875,-0.010381062515079975
2717258660975,1.0055646896362305,-9.797073364257812,0.7134721279144287,0.0042588976211845875,0.01463996060192585,-0.005855984054505825
2717259898275,1.047463297843933,-9.780314445495605,0.7206547260284424,0.0010647244052961469,0.01357523538172245,-0.0077192517928779125
2717261135562,1.0115501880645752,-9.771934509277344,0.7218518257141113,0.0029279920272529125,0.00984870083630085,-0.00958251953125
2717262372875,0.9900023937225342,-9.816226959228516,0.7122750282287598,0.005589802749454975,0.007985432632267475,-0.010381062515079975
2717263610150,0.993593692779541,-9.823410034179688,0.7350199222564697,0.00452507846057415,0.004791259765625,-0.0053236219100654125
2717264847437,1.0127472877502441,-9.781511306762695,0.7122750282287598,0.0031941730994731188,0.005589802749454975,-0.0114457868039608
2717266084737,1.0366894006729126,-9.774328231811523,0.7697358727455139,0.005057440605014563,0.0077192517928779125,-0.008783976547420025
2717267322025,1.0211269855499268,-9.764751434326172,0.729034423828125,0.007985432632267475,0.012776692397892475,-0.010381062515079975
2717268559300,1.016338586807251,-9.77791976928711,0.7098808288574219,0.008517795242369175,0.010381062515079975,-0.005589802749454975
2717269796587,1.0354923009872437,-9.769539833068848,0.6991068720817566,0.005057440605014563,0.014906140975654125,-0.0053236219100654125
2717271033900,1.0366894006729126,-9.81263542175293,0.7194576263427734,0.00984870083630085,0.0162370465695858,-0.007985432632267475
2717272271187,0.9888052940368652,-9.764751434326172,0.7182605266571045,0.00984870083630085,0.010647243820130825,-0.010114881210029125
2717273508475,1.0307037830352783,-9.757569313049316,0.7577648162841797,0.0063883461989462376,0.0029279920272529125,-0.0090501569211483
2717274745787,1.0235211849212646,-9.783905029296875,0.7374141216278076,0.0090501569211483,0.0071868896484375,-0.005589802749454975
2717275983062,1.0247182846069336,-9.750386238098145,0.7170634269714355,0.01357523538172245,0.0077192517928779125,-0.0029279920272529125
2717277220337,1.0031704902648926,-9.780314445495605,0.7254431247711182,0.013042873702943325,0.0114457868039608,-0.0066545275039970875
2717278457637,1.0103530883789062,-9.81024169921875,0.7242460250854492,0.01836649514734745,0.0066545275039970875,-0.008517795242369175
2717279694937,1.0642226934432983,-9.757569313049316,0.7230489253997803,0.0167694091796875,0.004791259765625,-0.0077192517928779125
2717280932237,1.015141487121582,-9.799468040466309,0.7170634269714355,0.0119781494140625,0.008251613937318325,-0.0077192517928779125
2717282169512,1.0271124839782715,-9.787496566772461,0.751779317855835,0.01597086526453495,0.0071868896484375,-0.0039927163161337376
2717283406800,1.0354923009872437,-9.763554573059082,0.7362170219421387,0.01597086526453495,0.0053236219100654125,-0.00692070834338665
2717284644062,1.0247182846069336,-9.773131370544434,0.7565677165985107,0.014906140975654125,0.00452507846057415,-0.007453070487827063
2717285881387,1.0618284940719604,-9.782708168029785,0.7709329724311829,0.0173017717897892,0.003460354171693325,-0.00958251953125
2717287118675,1.071405291557312,-9.800664901733398,0.7374141216278076,0.02076212503015995,0.0071868896484375,-0.008517795242369175
2717288355975,1.0390836000442505,-9.762357711791992,0.7326257228851318,0.01756795309484005,0.0053236219100654125,-0.007453070487827063
2717289593262,1.0319008827209473,-9.773131370544434,0.7242460250854492,0.0210283063352108,0.004791259765625,-0.00692070834338665
2717290830537,1.049857497215271,-9.77672290802002,0.7422025203704834,0.0210283063352108,0.0039927163161337376,-0.005855984054505825
2717292067837,1.0295066833496094,-9.783905029296875,0.730231523513794,0.015172322280704975,0.0023956298828125,-0.0039927163161337376
2717293305125,1.0546458959579468,-9.815030097961426,0.7350199222564697,0.01650322787463665,0.0077192517928779125,-0.0031941730994731188
2717294542425,1.0103530883789062,-9.798270225524902,0.7098808288574219,0.01836649514734745,0.00452507846057415,-0.00452507846057415
2717295779712,1.0342952013015747,-9.806650161743164,0.729034423828125,0.01996358297765255,0.0007985432748682797,-0.004791259765625
2717297017000,1.047463297843933,-9.828198432922363,0.7386112213134766,0.0204959437251091,0.0077192517928779125,-0.0026618109550327063
2717298254287,1.0211269855499268,-9.792284965515137,0.7553706169128418,0.01889885775744915,0.0053236219100654125,-0.0066545275039970875
2717299491575,1.0773907899856567,-9.825803756713867,0.729034423828125,0.0186326764523983,0.0031941730994731188,-0.005057440605014563
2717300728875,1.0414777994155884,-9.807847023010254,0.706289529800415,0.01996358297765255,0.00452507846057415,-0.0053236219100654125
2717301966162,1.0666168928146362,-9.825803756713867,0.7493851184844971,0.0186326764523983,0.0002661811013240367,-0.004791259765625
2717303203450,1.0390836000442505,-9.870096206665039,0.7374141216278076,0.02262539230287075,-0.0005323622026480734,-0.0026618109550327063
2717304440725,1.0366894006729126,-9.805453300476074,0.7410054206848145,0.02422248013317585,0.0039927163161337376,-0.0039927163161337376
2717305678025,1.0354923009872437,-9.81263542175293,0.7386112213134766,0.01703559048473835,0.003460354171693325,-0.00452507846057415
2717306915337,1.0271124839782715,-9.847352027893066,0.706289529800415,0.013309055007994175,0.0023956298828125,-0.0066545275039970875
2717308152612,1.0438719987869263,-9.81024169921875,0.7553706169128418,0.01889885775744915,-0.0037265352439135313,-0.003460354171693325
2717309389912,1.0450690984725952,-9.834183692932129,0.729034423828125,0.0162370465695858,-0.006122165359556675,-0.0037265352439135313
2717310627200,1.0546458959579468,-9.800664901733398,0.7362170219421387,0.0162370465695858,0.0023956298828125,-0.0026618109550327063
2717311864500,1.0019733905792236,-9.825803756713867,0.7158663272857666,0.0138414166867733,0.0023956298828125,-0.005589802749454975
2717313101787,1.0211269855499268,-9.793481826782227,0.7266402244567871,0.01410759799182415,-0.0005323622026480734,-0.0042588976211845875
2717314339087,1.0247182846069336,-9.861717224121094,0.7326257228851318,0.01463996060192585,0.0021294488105922937,-0.0026618109550327063
2717315576362,1.0618284940719604,-9.84615421295166,0.7206547260284424,0.01463996060192585,-0.0015970865497365594,-0.0007985432748682797
2717316813675,1.0414777994155884,-9.787496566772461,0.767341673374176,0.014906140975654125,-0.005589802749454975,-0.007985432632267475
2717318050950,1.0007762908935547,-9.84256362915039,0.6991068720817566,0.0119781494140625,-0.0018632676219567657,-0.007985432632267475
2717319288237,1.0067617893218994,-9.84376049041748,0.7194576263427734,0.01410759799182415,0.0005323622026480734,-0.00452507846057415
2717320525537,1.0211269855499268,-9.841365814208984,0.7242460250854492,0.01117960549890995,0.0,-0.008517795242369175
2717321762825,1.0115501880645752,-9.830592155456543,0.7218518257141113,0.012776692397892475,-0.0018632676219567657,-0.006122165359556675
2717323000112,1.0007762908935547,-9.829395294189453,0.7841010689735413,0.01410759799182415,-0.0013309054775163531,-0.0042588976211845875
2717324237387,1.0319008827209473,-9.803058624267578,0.751779317855835,0.01463996060192585,0.003460354171693325,-0.007985432632267475
2717325474700,1.0079588890075684,-9.831789016723633,0.7410054206848145,0.00931633822619915,-0.0031941730994731188,-0.0071868896484375
2717326712000,1.0271124839782715,-9.81024169921875,0.7398083209991455,0.0114457868039608,-0.00692070834338665,-0.007453070487827063
2717327949287,1.0618284940719604,-9.81263542175293,0.7577648162841797,0.01171196810901165,-0.0066545275039970875,-0.0021294488105922937
2717329186562,1.0390836000442505,-9.798270225524902,0.7769184708595276,0.0162370465695858,-0.0077192517928779125,-0.0037265352439135313
2717330423837,1.0414777994155884,-9.805453300476074,0.7481880187988281,0.0138414166867733,-0.0071868896484375,-0.0007985432748682797
2717331661137,1.05105459690094,-9.804256439208984,0.7469909191131592,0.01224433071911335,-0.004791259765625,-0.0029279920272529125
2717332898450,1.013944387435913,-9.77791976928711,0.751779317855835,0.00984870083630085,-0.00692070834338665,-0.0066545275039970875
2717334135712,1.0354923009872437,-9.819818496704102,0.6943184733390808,0.00958251953125,-0.0066545275039970875,-0.0018632676219567657
2717335373025,1.05105459690094,-9.801861763000488,0.7254431247711182,0.0138414166867733,-0.008251613937318325,0.0013309054775163531
2717336610312,1.0330979824066162,-9.816226959228516,0.7374141216278076,0.00452507846057415,-0.008517795242369175,-0.005589802749454975
2717337847600,0.9888052940368652,-9.786299705505371,0.7326257228851318,0.0066545275039970875,-0.007453070487827063,-0.0053236219100654125
2717339084900,1.0319008827209473,-9.813833236694336,0.7469909191131592,0.00958251953125,-0.00692070834338665,-0.0021294488105922937
2717340322187,1.0019733905792236,-9.821015357971191,0.7350199222564697,0.00931633822619915,-0.01171196810901165,-0.0013309054775163531
2717341559487,0.973242998123169,-9.817423820495605,0.7422025203704834,0.008517795242369175,-0.0191650390625,-0.0071868896484375
2717342796775,1.0055646896362305,-9.770737648010254,0.6943184733390808,0.0119781494140625,-0.010647243820130825,-0.0063883461989462376
2717344034062,1.0366894006729126,-9.749189376831055,0.6931213736534119,0.008251613937318325,-0.008783976547420025,-0.005057440605014563
2717345271350,1.072602391242981,-9.782708168029785,0.7637503743171692,0.008783976547420025,-0.013309055007994175,-0.0005323622026480734
2717346508637,1.0390836000442505,-9.80904483795166,0.7960720658302307,0.010381062515079975,-0.01463996060192585,-0.0005323622026480734
2717347745937,1.0402806997299194,-9.800664901733398,0.7386112213134766,0.008783976547420025,-0.006122165359556675,-0.0021294488105922937
2717348983237,0.9816226959228516,-9.759963035583496,0.8104372620582581,0.01224433071911335,-0.010913425125181675,0.0015970865497365594
2717350220525,1.0546458959579468,-9.786299705505371,0.7841010689735413,0.00958251953125,-0.0138414166867733,-0.004791259765625
2717351457800,1.0414777994155884,-9.84495735168457,0.750582218170166,0.0071868896484375,-0.00984870083630085,-0.003460354171693325
2717352695100,1.0259153842926025,-9.827000617980957,0.750582218170166,0.003460354171693325,-0.010114881210029125,0.0007985432748682797
2717353932400,1.01753568649292,-9.819818496704102,0.7601590752601624,0.007985432632267475,-0.010913425125181675,0.0039927163161337376
2717355169675,1.0187327861785889,-9.834183692932129,0.7541735172271729,0.0071868896484375,-0.0119781494140625,0.0018632676219567657
2717356406975,1.016338586807251,-9.823410034179688,0.7410054206848145,0.004791259765625,-0.01463996060192585,-0.005589802749454975
2717357644250,1.0235211849212646,-9.817423820495605,0.7541735172271729,0.008517795242369175,-0.0114457868039608,-0.0042588976211845875
2717358881550,0.9971849918365479,-9.837775230407715,0.7493851184844971,0.003460354171693325,-0.008517795242369175,-0.0010647244052961469
2717360118862,1.0199298858642578,-9.864110946655273,0.768538773059845,0.0077192517928779125,-0.01117960549890995,-0.0023956298828125
2717361356137,0.9900023937225342,-9.84256362915039,0.7577648162841797,0.0114457868039608,-0.0119781494140625,0.0
2717362593437,0.9911994934082031,-9.829395294189453,0.7374141216278076,0.008517795242369175,-0.012776692397892475,0.0010647244052961469
2717363830725,1.0319008827209473,-9.838972091674805,0.7709329724311829,0.0039927163161337376,-0.0119781494140625,0.0002661811013240367
2717365068000,1.01753568649292,-9.872490882873535,0.751779317855835,0.0015970865497365594,-0.01650322787463665,0.0002661811013240367
2717366305312,1.0259153842926025,-9.84495735168457,0.727837324142456,0.006122165359556675,-0.01171196810901165,-0.0026618109550327063
2717367542600,1.016338586807251,-9.817423820495605,0.7601590752601624,0.0023956298828125,-0.010114881210029125,0.0
2717368779875,1.0295066833496094,-9.792284965515137,0.7625532746315002,0.003460354171693325,-0.013042873702943325,0.006122165359556675
2717370017175,1.0247182846069336,-9.816226959228516,0.7817068696022034,0.0037265352439135313,-0.01171196810901165,0.005855984054505825
2717371254487,1.0019733905792236,-9.791088104248047,0.7817068696022034,0.00452507846057415,-0.0138414166867733,0.0039927163161337376
2717372491750,0.9876081943511963,-9.824606895446777,0.7589619159698486,0.004791259765625,-0.012510511092841625,0.0015970865497365594
2717373729050,1.0223240852355957,-9.822212219238281,0.7637503743171692,0.0063883461989462376,-0.01171196810901165,0.0026618109550327063
2717374966337,0.9900023937225342,-9.827000617980957,0.8008604645729065,0.010114881210029125,-0.015438503585755825,0.007985432632267475
2717376203625,0.9983820915222168,-9.816226959228516,0.7601590752601624,0.0039927163161337376,-0.014906140975654125,0.0010647244052961469
2717377440912,0.9983820915222168,-9.822212219238281,0.7841010689735413,0.0063883461989462376,-0.0167694091796875,0.00692070834338665
2717378678225,1.0091559886932373,-9.832986831665039,0.7469909191131592,0.00452507846057415,-0.01224433071911335,0.0037265352439135313
2717379915500,1.0067617893218994,-9.821015357971191,0.7936778664588928,0.006122165359556675,-0.01117960549890995,0.0018632676219567657
2717381152812,0.9828197956085205,-9.800664901733398,0.7422025203704834,0.0077192517928779125,-0.0167694091796875,0.00452507846057415
2717382390075,0.9792284965515137,-9.80904483795166,0.7601590752601624,0.007985432632267475,-0.015172322280704975,0.0037265352439135313
2717383627375,0.9995791912078857,-9.81263542175293,0.7445967197418213,0.008517795242369175,-0.01224433071911335,0.003460354171693325
2717384864662,0.9696516990661621,-9.789891242980957,0.7589619159698486,0.00692070834338665,-0.0157046839594841,0.0010647244052961469
2717386101950,0.9792284965515137,-9.81024169921875,0.7805097699165344,0.006122165359556675,-0.01463996060192585,-0.0002661811013240367
2717387339262,1.01753568649292,-9.824606895446777,0.7697358727455139,0.0090501569211483,-0.008517795242369175,0.003460354171693325
2717388576550,0.9624691009521484,-9.834183692932129,0.788889467716217,0.0138414166867733,-0.0077192517928779125,0.008517795242369175
2717389813837,0.9672574996948242,-9.831789016723633,0.7362170219421387,0.012776692397892475,-0.01357523538172245,0.005855984054505825
2717391051112,0.9696516990661621,-9.81263542175293,0.7805097699165344,0.01171196810901165,-0.01117960549890995,0.0053236219100654125
2717392288437,1.0031704902648926,-9.805453300476074,0.8475474119186401,0.0119781494140625,-0.01171196810901165,0.0026618109550327063
2717393525712,0.9840168952941895,-9.823410034179688,0.7338228225708008,0.007453070487827063,-0.013042873702943325,0.005589802749454975
2717394762975,0.9612720012664795,-9.821015357971191,0.7649474740028381,0.00452507846057415,-0.01171196810901165,0.006122165359556675
2717396000287,0.9828197956085205,-9.830592155456543,0.768538773059845,0.0119781494140625,-0.005057440605014563,0.0021294488105922937
2717397237587,0.9696516990661621,-9.819818496704102,0.7565677165985107,0.00984870083630085,-0.010647243820130825,-0.0005323622026480734
2717398474887,0.9840168952941895,-9.823410034179688,0.7972691655158997,0.0063883461989462376,-0.0119781494140625,0.0029279920272529125
2717399712175,0.9864110946655273,-9.818621635437012,0.7374141216278076,0.005589802749454975,-0.010381062515079975,0.0039927163161337376
2717400949462,0.970848798751831,-9.821015357971191,0.7661445736885071,0.0066545275039970875,-0.01410759799182415,0.005589802749454975
2717402186737,1.0211269855499268,-9.828198432922363,0.7589619159698486,0.010114881210029125,-0.010913425125181675,0.0029279920272529125
2717403424050,0.9265560507774353,-9.829395294189453,0.7589619159698486,0.00984870083630085,-0.00692070834338665,0.0018632676219567657
2717404661337,0.970848798751831,-9.859322547912598,0.7637503743171692,0.00958251953125,-0.007985432632267475,0.0077192517928779125
2717405898625,0.9804255962371826,-9.828198432922363,0.768538773059845,0.005057440605014563,-0.008251613937318325,0.0021294488105922937
2717407135925,0.9588778018951416,-9.836577415466309,0.8092401623725891,0.008517795242369175,-0.010913425125181675,-0.0005323622026480734
2717408373200,0.99479079246521,-9.858125686645508,0.7829039692878723,0.0077192517928779125,-0.0039927163161337376,0.0021294488105922937
2717409610487,0.9780313968658447,-9.817423820495605,0.7829039692878723,0.008251613937318325,-0.007453070487827063,0.005057440605014563
2717410847800,0.993593692779541,-9.834183692932129,0.7649474740028381,0.0071868896484375,-0.008517795242369175,0.00692070834338665
2717412085075,0.9876081943511963,-9.858125686645508,0.7565677165985107,0.005057440605014563,-0.0042588976211845875,-0.0053236219100654125
2717413322375,0.9516952037811279,-9.84615421295166,0.7721300721168518,0.006122165359556675,-0.0039927163161337376,0.0015970865497365594
2717414559662,0.9576807022094727,-9.822212219238281,0.7829039692878723,0.0114457868039608,-0.0042588976211845875,0.008783976547420025
2717415796950,0.9397241473197937,-9.827000617980957,0.7841010689735413,0.015438503585755825,-0.006122165359556675,0.0053236219100654125
2717417034262,0.9780313968658447,-9.84615421295166,0.7829039692878723,0.010381062515079975,-0.0037265352439135313,0.005589802749454975
2717418271537,1.0019733905792236,-9.848548889160156,0.7709329724311829,0.005855984054505825,-0.0010647244052961469,0.0007985432748682797
2717419508812,0.9852139949798584,-9.835380554199219,0.7697358727455139,0.013042873702943325,-0.0063883461989462376,-0.0013309054775163531
2717420746125,0.9684545993804932,-9.859322547912598,0.7529764175415039,0.01224433071911335,-0.0029279920272529125,0.0015970865497365594
2717421983412,0.9756371974945068,-9.795876502990723,0.7266402244567871,0.0138414166867733,-0.0026618109550327063,0.00931633822619915
2717423220700,0.950498104095459,-9.838972091674805,0.790086567401886,0.012776692397892475,-0.008251613937318325,0.005057440605014563
2717424458000,0.970848798751831,-9.850942611694336,0.7529764175415039,0.007985432632267475,-0.00692070834338665,0.0018632676219567657
2717425695287,0.9588778018951416,-9.832986831665039,0.7565677165985107,0.00958251953125,-0.006122165359556675,0.004791259765625
2717426932575,0.9612720012664795,-9.873687744140625,0.7709329724311829,0.0119781494140625,-0.0005323622026480734,0.005057440605014563
2717428169875,0.9780313968658447,-9.827000617980957,0.7433996200561523,0.0077192517928779125,-0.0007985432748682797,0.0037265352439135313
2717429407162,0.9864110946655273,-9.861717224121094,0.7733271718025208,0.00984870083630085,-0.0005323622026480734,-0.0007985432748682797
2717430644462,1.0019733905792236,-9.84615421295166,0.7996633648872375,0.00984870083630085,0.0013309054775163531,0.00452507846057415
2717431881750,0.9528923034667969,-9.87967300415039,0.7422025203704834,0.0114457868039608,0.006122165359556675,0.0031941730994731188
2717433119037,0.9684545993804932,-9.827000617980957,0.7960720658302307,0.013309055007994175,0.0029279920272529125,-0.0002661811013240367
2717434356325,0.9768342971801758,-9.832986831665039,0.7601590752601624,0.0114457868039608,0.0013309054775163531,-0.0002661811013240367
2717435593612,0.9481039047241211,-9.840168952941895,0.7481880187988281,0.00931633822619915,0.0015970865497365594,0.0029279920272529125
2717436830912,0.93254154920578,-9.835380554199219,0.7541735172271729,0.01224433071911335,-0.0013309054775163531,0.0026618109550327063
2717438068200,1.0043675899505615,-9.862914085388184,0.7793126702308655,0.012776692397892475,0.0026618109550327063,0.0010647244052961469
2717439305487,1.01753568649292,-9.874884605407715,0.7721300721168518,0.0157046839594841,0.003460354171693325,0.005589802749454975
