timestamp_ns,accel_x,accel_y,accel_z,gyro_x,gyro_y,gyro_z
17722337758287,3.4727895259857178,-7.626729488372803,5.499481201171875,0.01117960549890995,-0.004791259765625,-0.0077192517928779125
17722338995375,3.4775779247283936,-7.617152690887451,5.462371349334717,0.01117960549890995,-0.0018632676219567657,-0.008517795242369175
17722340232462,3.4368765354156494,-7.648277282714844,5.438429355621338,0.013309055007994175,-0.0063883461989462376,0.0021294488105922937
17722341469537,3.4165258407592773,-7.661445617675781,5.503072738647461,0.0119781494140625,-0.008783976547420025,0.0026618109550327063
17722342706637,3.4356794357299805,-7.668628215789795,5.4659624099731445,0.01224433071911335,-0.0039927163161337376,-0.003460354171693325
17722343943750,3.4608185291290283,-7.688978672027588,5.464765548706055,0.0119781494140625,-0.0071868896484375,-0.0031941730994731188
17722345180837,3.4392707347869873,-7.708132266998291,5.433640956878662,0.0090501569211483,-0.0066545275039970875,-0.0023956298828125
17722346417962,3.405751943588257,-7.7201032638549805,5.468356609344482,0.007985432632267475,-0.0077192517928779125,-0.0053236219100654125
17722347655025,3.426102638244629,-7.702147006988525,5.498284339904785,0.00984870083630085,-0.0037265352439135313,-0.0053236219100654125
17722348892125,3.4368765354156494,-7.733271598815918,5.499481201171875,0.0114457868039608,-0.004791259765625,-0.005057440605014563
17722350129225,3.4404678344726562,-7.7213006019592285,5.467159748077393,0.007453070487827063,-0.005855984054505825,-0.005057440605014563
17722351366337,3.4344823360443115,-7.779958248138428,5.4695539474487305,0.012776692397892475,-0.0015970865497365594,-0.0021294488105922937
17722352603437,3.468001127243042,-7.7428483963012695,5.492298603057861,0.008783976547420025,-0.0021294488105922937,-0.005855984054505825
17722353840537,3.4608185291290283,-7.738059997558594,5.489904403686523,0.0039927163161337376,-0.00931633822619915,0.0007985432748682797
17722355077612,3.4584243297576904,-7.746439456939697,5.503072738647461,0.0013309054775163531,-0.006122165359556675,-0.00958251953125
17722356314725,3.4584243297576904,-7.7213006019592285,5.483919143676758,0.0039927163161337376,-0.006122165359556675,-0.006122165359556675
17722357551825,3.4404678344726562,-7.7416510581970215,5.509057998657227,0.007453070487827063,-0.005057440605014563,0.0007985432748682797
17722358788912,3.4799721240997314,-7.7201032638549805,5.475539207458496,0.005057440605014563,-0.003460354171693325,-0.0026618109550327063
17722360026012,3.5230677127838135,-7.688978672027588,5.529408931732178,0.006122165359556675,-0.005855984054505825,-0.0037265352439135313
17722361263112,3.4955344200134277,-7.728483200073242,5.52701473236084,0.0021294488105922937,-0.00452507846057415,-0.003460354171693325
17722362500212,3.469198226928711,-7.662642478942871,5.547365188598633,0.0037265352439135313,-0.007453070487827063,-0.0015970865497365594
17722363737287,3.468001127243042,-7.68538761138916,5.498284339904785,0.007453070487827063,-0.005855984054505825,0.00452507846057415
17722364974387,3.448847532272339,-7.677007675170898,5.48152494430542,0.0015970865497365594,-0.0042588976211845875,0.0021294488105922937
17722366211487,3.4835634231567383,-7.63989782333374,5.462371349334717,-0.0042588976211845875,-0.00692070834338665,0.005057440605014563
17722367448575,3.5302505493164062,-7.615955829620361,5.500678539276123,0.0005323622026480734,-0.01171196810901165,-0.0005323622026480734
17722368685687,3.507505416870117,-7.629123687744141,5.503072738647461,0.0029279920272529125,-0.00958251953125,0.0002661811013240367
17722369922775,3.494337320327759,-7.6111674308776855,5.51504373550415,0.005589802749454975,-0.005589802749454975,0.0063883461989462376
17722371159862,3.5039141178131104,-7.629123687744141,5.48152494430542,0.0005323622026480734,-0.0037265352439135313,0.00452507846057415
17722372396962,3.4739866256713867,-7.593210697174072,5.473145008087158,-0.0002661811013240367,-0.003460354171693325,0.004791259765625
17722373634075,3.5278563499450684,-7.612364292144775,5.473145008087158,0.0071868896484375,-0.0077192517928779125,0.0071868896484375
17722374871162,3.533841848373413,-7.553706645965576,5.486313343048096,0.0015970865497365594,-0.00692070834338665,0.012510511092841625
17722376108262,3.4835634231567383,-7.576451301574707,5.479130744934082,0.00452507846057415,-0.01224433071911335,0.010913425125181675
17722377345362,3.4955344200134277,-7.629123687744141,5.471948146820068,0.004791259765625,-0.0119781494140625,0.008783976547420025
17722378582450,3.47039532661438,-7.599196434020996,5.506663799285889,0.004791259765625,-0.006122165359556675,0.010913425125181675
17722379819575,3.509899616241455,-7.5896196365356445,5.477933406829834,0.004791259765625,-0.008783976547420025,0.0119781494140625
17722381056662,3.4955344200134277,-7.6075758934021,5.452794551849365,0.005057440605014563,-0.007985432632267475,0.00931633822619915
17722382293737,3.509899616241455,-7.6111674308776855,5.43723201751709,0.0026618109550327063,-0.010647243820130825,0.010913425125181675
17722383530837,3.471592426300049,-7.667430877685547,5.467159748077393,0.0026618109550327063,-0.010381062515079975,0.010647243820130825
17722384767925,3.507505416870117,-7.65186882019043,5.4228668212890625,0.0026618109550327063,-0.01171196810901165,0.00958251953125
17722386005037,3.4811692237854004,-7.668628215789795,5.455188751220703,-0.0026618109550327063,-0.008517795242369175,0.010381062515079975
17722387242125,3.5027170181274414,-7.705738067626953,5.453991413116455,0.0026618109550327063,-0.004791259765625,0.013042873702943325
17722388479225,3.4536359310150146,-7.681796073913574,5.420472621917725,0.0013309054775163531,-0.0090501569211483,0.007985432632267475
17722389716312,3.469198226928711,-7.663839817047119,5.497087001800537,-0.0053236219100654125,-0.0119781494140625,0.0077192517928779125
17722390953425,3.4763808250427246,-7.650671482086182,5.459977149963379,-0.00452507846057415,-0.0114457868039608,0.007453070487827063
17722392190512,3.463212728500366,-7.717709064483643,5.476736545562744,0.0018632676219567657,-0.00984870083630085,0.00958251953125
17722393427625,3.4751837253570557,-7.708132266998291,5.493495941162109,-0.0010647244052961469,-0.00452507846057415,0.010114881210029125
17722394664712,3.464409828186035,-7.704541206359863,5.486313343048096,-0.005057440605014563,-0.00692070834338665,0.01171196810901165
17722395901812,3.4835634231567383,-7.688978672027588,5.492298603057861,-0.0013309054775163531,-0.013042873702943325,0.01117960549890995
17722397138900,3.490746021270752,-7.702147006988525,5.486313343048096,-0.00452507846057415,-0.013309055007994175,0.007985432632267475
17722398376012,3.465606927871704,-7.711723804473877,5.434837818145752,-0.01117960549890995,-0.01224433071911335,0.008783976547420025
17722399613112,3.444059133529663,-7.682993412017822,5.48272180557251,-0.0114457868039608,-0.01224433071911335,0.005589802749454975
17722400850200,3.4967315196990967,-7.690176010131836,5.476736545562744,-0.007453070487827063,-0.010913425125181675,0.003460354171693325
17722402087300,3.44765043258667,-7.6997528076171875,5.499481201171875,-0.006122165359556675,-0.00931633822619915,0.0018632676219567657
17722403324412,3.5158851146698,-7.681796073913574,5.477933406829834,-0.010913425125181675,-0.00984870083630085,0.003460354171693325
17722404561487,3.5051112174987793,-7.682993412017822,5.494692802429199,-0.00931633822619915,-0.007453070487827063,0.0018632676219567657
17722405798587,3.4847605228424072,-7.649474620819092,5.504269599914551,-0.008251613937318325,-0.0066545275039970875,0.0031941730994731188
17722407035687,3.508702516555786,-7.624335289001465,5.4911017417907715,-0.010381062515079975,-0.00958251953125,-0.0007985432748682797
17722408272787,3.5230677127838135,-7.632715225219727,5.5114521980285645,-0.00984870083630085,-0.00931633822619915,0.0015970865497365594
17722409509875,3.494337320327759,-7.608773231506348,5.51624059677124,-0.013042873702943325,-0.00958251953125,0.005855984054505825
17722410746962,3.4512417316436768,-7.600393295288086,5.5126495361328125,-0.013309055007994175,-0.00692070834338665,0.0026618109550327063
17722411984075,3.489548921585083,-7.612364292144775,5.4659624099731445,-0.010381062515079975,-0.01357523538172245,0.0037265352439135313
17722413221187,3.49314022064209,-7.6315178871154785,5.48152494430542,-0.012776692397892475,-0.012510511092841625,0.0037265352439135313
17722414458262,3.5015199184417725,-7.593210697174072,5.489904403686523,-0.0090501569211483,-0.012510511092841625,0.0042588976211845875
17722415695375,3.463212728500366,-7.6075758934021,5.5114521980285645,-0.010114881210029125,-0.008517795242369175,0.0031941730994731188
17722416932450,3.4763808250427246,-7.535749912261963,5.498284339904785,-0.0063883461989462376,-0.007985432632267475,0.0029279920272529125
17722418169562,3.5063083171844482,-7.522581577301025,5.503072738647461,-0.00452507846057415,-0.0167694091796875,0.0037265352439135313
17722419406650,3.4799721240997314,-7.5668745040893555,5.449203014373779,-0.007985432632267475,-0.014906140975654125,0.005855984054505825
17722420643737,3.5027170181274414,-7.559691905975342,5.495890140533447,-0.0066545275039970875,-0.010114881210029125,0.00452507846057415
17722421880850,3.5003228187561035,-7.542932510375977,5.506663799285889,-0.005589802749454975,-0.0090501569211483,0.00452507846057415
17722423117950,3.512293815612793,-7.536946773529053,5.503072738647461,-0.0010647244052961469,-0.0119781494140625,0.005057440605014563
17722424355037,3.5015199184417725,-7.527369976043701,5.434837818145752,0.0,-0.014373779296875,0.0037265352439135313
17722425592137,3.512293815612793,-7.581239700317383,5.446808815002441,-0.005057440605014563,-0.012776692397892475,0.0037265352439135313
17722426829237,3.508702516555786,-7.575254440307617,5.473145008087158,-0.005855984054505825,-0.01357523538172245,0.0010647244052961469
17722428066337,3.5218706130981445,-7.56088924407959,5.4695539474487305,-0.0026618109550327063,-0.010647243820130825,0.0037265352439135313
17722429303437,3.4835634231567383,-7.590816497802734,5.430049419403076,0.0,-0.01463996060192585,0.0026618109550327063
17722430540537,3.49314022064209,-7.5680718421936035,5.433640956878662,-0.0015970865497365594,-0.012510511092841625,0.006122165359556675
17722431777625,3.508702516555786,-7.584831237792969,5.430049419403076,0.0,-0.010381062515079975,0.00931633822619915
17722433014725,3.4368765354156494,-7.587225437164307,5.457582950592041,0.0015970865497365594,-0.014906140975654125,0.007453070487827063
17722434251825,3.4560301303863525,-7.572860240936279,5.458779811859131,-0.0013309054775163531,-0.01224433071911335,0.0077192517928779125
17722435488912,3.5170822143554688,-7.574057102203369,5.446808815002441,-0.0026618109550327063,-0.0077192517928779125,0.00692070834338665
17722436726012,3.507505416870117,-7.584831237792969,5.457582950592041,-0.0039927163161337376,-0.00958251953125,0.0071868896484375
17722437963100,3.47039532661438,-7.648277282714844,5.449203014373779,-0.004791259765625,-0.01171196810901165,0.008783976547420025
17722439200200,3.4727895259857178,-7.638700485229492,5.446808815002441,0.0026618109550327063,-0.01756795309484005,0.0090501569211483
17722440437300,3.507505416870117,-7.637503623962402,5.462371349334717,0.0042588976211845875,-0.0162370465695858,0.00958251953125
17722441674400,3.4799721240997314,-7.621941089630127,5.458779811859131,0.0031941730994731188,-0.012510511092841625,0.0138414166867733
17722442911500,3.5039141178131104,-7.6315178871154785,5.479130744934082,0.0029279920272529125,-0.012510511092841625,0.012510511092841625
17722444148600,3.4955344200134277,-7.613561630249023,5.475539207458496,0.003460354171693325,-0.014906140975654125,0.015438503585755825
17722445385687,3.448847532272339,-7.661445617675781,5.503072738647461,0.0010647244052961469,-0.01463996060192585,0.014906140975654125
17722446622775,3.4751837253570557,-7.649474620819092,5.456385612487793,0.0023956298828125,-0.015438503585755825,0.01889885775744915
17722447859912,3.4979286193847656,-7.667430877685547,5.497087001800537,0.0039927163161337376,-0.0063883461989462376,0.0167694091796875
17722449096987,3.5182793140411377,-7.647080421447754,5.4659624099731445,0.0026618109550327063,-0.007453070487827063,0.01357523538172245
17722450334087,3.4979286193847656,-7.684190273284912,5.474342346191406,0.0015970865497365594,-0.012776692397892475,0.01463996060192585
17722451571175,3.4799721240997314,-7.617152690887451,5.452794551849365,0.0023956298828125,-0.013309055007994175,0.015438503585755825
17722452808275,3.4835634231567383,-7.629123687744141,5.463568210601807,0.0026618109550327063,-0.0138414166867733,0.0247548408806324
17722454045362,3.490746021270752,-7.665036678314209,5.4659624099731445,0.0005323622026480734,-0.00958251953125,0.0173017717897892
17722455282462,3.464409828186035,-7.647080421447754,5.475539207458496,-0.0021294488105922937,-0.00692070834338665,0.02022976242005825
17722456519562,3.49314022064209,-7.659051418304443,5.480327606201172,-0.0005323622026480734,-0.010114881210029125,0.02182685025036335
17722457756675,3.4799721240997314,-7.617152690887451,5.479130744934082,0.0005323622026480734,-0.010381062515079975,0.02555338479578495
17722458993775,3.4608185291290283,-7.644686222076416,5.464765548706055,0.005057440605014563,-0.010381062515079975,0.023956298828125
17722460230862,3.4739866256713867,-7.642292022705078,5.513846397399902,-0.0005323622026480734,-0.006122165359556675,0.02182685025036335
17722461467962,3.4308910369873047,-7.6985554695129395,5.476736545562744,-0.0066545275039970875,-0.0002661811013240367,0.0228915736079216
17722462705037,3.463212728500366,-7.6782050132751465,5.450400352478027,-0.0015970865497365594,-0.0063883461989462376,0.02422248013317585
17722463942150,3.445256233215332,-7.667430877685547,5.434837818145752,-0.0023956298828125,-0.007985432632267475,0.0223592109978199
17722465179225,3.4787750244140625,-7.703343868255615,5.438429355621338,-0.0005323622026480734,-0.006122165359556675,0.0228915736079216
17722466416325,3.450044631958008,-7.690176010131836,5.4695539474487305,-0.005589802749454975,-0.0002661811013240367,0.02262539230287075
17722467653437,3.4763808250427246,-7.722497463226318,5.459977149963379,-0.0026618109550327063,-0.0005323622026480734,0.0322079136967659
17722468890537,3.4751837253570557,-7.687781810760498,5.452794551849365,-0.0031941730994731188,-0.005589802749454975,0.02874755859375
17722470127625,3.490746021270752,-7.73087739944458,5.479130744934082,-0.0063883461989462376,-0.005589802749454975,0.02129448764026165
17722471364712,3.5278563499450684,-7.663839817047119,5.524620532989502,-0.0077192517928779125,-0.003460354171693325,0.0220930315554142
17722472601812,3.4787750244140625,-7.693767070770264,5.483919143676758,-0.0037265352439135313,-0.005057440605014563,0.023956298828125
17722473838900,3.4596214294433594,-7.684190273284912,5.477933406829834,-0.007985432632267475,-0.0053236219100654125,0.0196974016726017
17722475076012,3.485957622528076,-7.682993412017822,5.494692802429199,-0.005589802749454975,-0.00452507846057415,0.0244886614382267
17722476313112,3.487154722213745,-7.705738067626953,5.475539207458496,-0.0071868896484375,-0.00692070834338665,0.02422248013317585
17722477550212,3.4955344200134277,-7.682993412017822,5.473145008087158,-0.0077192517928779125,-0.0031941730994731188,0.0220930315554142
17722478787312,3.463212728500366,-7.704541206359863,5.493495941162109,-0.005057440605014563,-0.0023956298828125,0.0247548408806324
17722480024412,3.469198226928711,-7.69735860824585,5.455188751220703,-0.008517795242369175,-0.0026618109550327063,0.0319417305290699
17722481261500,3.4596214294433594,-7.7213006019592285,5.521028995513916,-0.006122165359556675,0.0,0.02741665206849575
17722482498600,3.4967315196990967,-7.717709064483643,5.457582950592041,-0.00958251953125,-0.0023956298828125,0.02502102218568325
17722483735687,3.4608185291290283,-7.708132266998291,5.476736545562744,-0.01410759799182415,-0.0042588976211845875,0.02502102218568325
17722484972800,3.4727895259857178,-7.710526466369629,5.408501625061035,-0.010913425125181675,-0.005855984054505825,0.0306108258664608
17722486209900,3.464409828186035,-7.690176010131836,5.475539207458496,-0.01597086526453495,-0.0031941730994731188,0.0282151959836483
17722487446987,3.509899616241455,-7.709329605102539,5.426458358764648,-0.01357523538172245,-0.0029279920272529125,0.023956298828125
17722488684100,3.5003228187561035,-7.708132266998291,5.501875400543213,-0.010114881210029125,-0.005589802749454975,0.0271504707634449
17722489921187,3.507505416870117,-7.704541206359863,5.456385612487793,-0.00984870083630085,-0.0029279920272529125,0.02874755859375
17722491158287,3.4823663234710693,-7.693767070770264,5.457582950592041,-0.012776692397892475,-0.0029279920272529125,0.0271504707634449
17722492395387,3.514688014984131,-7.669825077056885,5.457582950592041,-0.013309055007994175,-0.0018632676219567657,0.02129448764026165
17722493632475,3.4739866256713867,-7.645883083343506,5.4695539474487305,-0.012776692397892475,-0.0031941730994731188,0.02661811001598835
17722494869575,3.4847605228424072,-7.696161270141602,5.451597213745117,-0.015438503585755825,-0.003460354171693325,0.0300784632563591
17722496106675,3.507505416870117,-7.636306285858154,5.5114521980285645,-0.0167694091796875,-0.0018632676219567657,0.0324740931391716
17722497343762,3.4332852363586426,-7.6782050132751465,5.475539207458496,-0.01410759799182415,-0.006122165359556675,0.0348697230219841
17722498580850,3.44765043258667,-7.627926826477051,5.48272180557251,-0.015172322280704975,-0.01117960549890995,0.033272635191679
17722499817950,3.4356794357299805,-7.645883083343506,5.4228668212890625,-0.0114457868039608,-0.0039927163161337376,0.02794901467859745
17722501055087,3.4823663234710693,-7.6351094245910645,5.4659624099731445,-0.01171196810901165,-0.0029279920272529125,0.0268842913210392
17722502292150,3.4596214294433594,-7.657854080200195,5.427655220031738,-0.01224433071911335,0.0015970865497365594,0.0292799212038517
17722503529237,3.463212728500366,-7.624335289001465,5.443217754364014,-0.01117960549890995,-0.0066545275039970875,0.0300784632563591
17722504766337,3.4787750244140625,-7.627926826477051,5.456385612487793,-0.014906140975654125,-0.00452507846057415,0.02981228195130825
17722506003437,3.5170822143554688,-7.599196434020996,5.43723201751709,-0.01357523538172245,-0.0026618109550327063,0.0319417305290699
17722507240550,3.4979286193847656,-7.650671482086182,5.43723201751709,-0.010381062515079975,-0.0071868896484375,0.0314093679189682
17722508477637,3.4392707347869873,-7.6315178871154785,5.443217754364014,-0.01410759799182415,-0.00984870083630085,0.02741665206849575
17722509714737,3.4620156288146973,-7.587225437164307,5.43723201751709,-0.01357523538172245,-0.008517795242369175,0.0330064557492733
17722510951825,3.4835634231567383,-7.627926826477051,5.416881561279297,-0.01224433071911335,-0.010913425125181675,0.0316755510866642
17722512188912,3.4392707347869873,-7.659051418304443,5.398924827575684,-0.01703559048473835,-0.004791259765625,0.0276828333735466
17722513426037,3.4823663234710693,-7.657854080200195,5.406107425689697,-0.0173017717897892,-0.0023956298828125,0.0276828333735466
17722514663125,3.4560301303863525,-7.626729488372803,5.452794551849365,-0.0173017717897892,-0.0077192517928779125,0.0327402763068676
17722515900212,3.4787750244140625,-7.655459880828857,5.416881561279297,-0.0162370465695858,-0.005589802749454975,0.0324740931391716
17722517137312,3.464409828186035,-7.668628215789795,5.43603515625,-0.0181003138422966,-0.007453070487827063,0.0311431884765625
17722518374412,3.4332852363586426,-7.65186882019043,5.443217754364014,-0.01889885775744915,-0.0090501569211483,0.0322079136967659
17722519611525,3.4344823360443115,-7.657854080200195,5.419275760650635,-0.01756795309484005,-0.00931633822619915,0.0327402763068676
17722520848612,3.47039532661438,-7.662642478942871,5.416881561279297,-0.01783413253724575,-0.0138414166867733,0.0314093679189682
17722522085712,3.4392707347869873,-7.6746134757995605,5.442020416259766,-0.01836649514734745,-0.014373779296875,0.0324740931391716
17722523322800,3.4620156288146973,-7.667430877685547,5.419275760650635,-0.01889885775744915,-0.0037265352439135313,0.0316755510866642
17722524559900,3.4308910369873047,-7.655459880828857,5.4444146156311035,-0.01756795309484005,-0.0066545275039970875,0.0343373604118824
17722525796987,3.450044631958008,-7.644686222076416,5.414487361907959,-0.0186326764523983,-0.01117960549890995,0.0268842913210392
17722527034100,3.445256233215332,-7.623138427734375,5.413290023803711,-0.0181003138422966,-0.01357523538172245,0.0346035435795784
17722528271175,3.4620156288146973,-7.642292022705078,5.433640956878662,-0.015438503585755825,-0.012510511092841625,0.0322079136967659
17722529508287,3.4308910369873047,-7.684190273284912,5.475539207458496,-0.013042873702943325,-0.010381062515079975,0.0327402763068676
17722530745375,3.464409828186035,-7.6111674308776855,5.3797712326049805,-0.012776692397892475,-0.0138414166867733,0.0364668108522892
17722531982487,3.4368765354156494,-7.623138427734375,5.413290023803711,-0.01117960549890995,-0.014373779296875,0.0346035435795784
17722533219587,3.4847605228424072,-7.638700485229492,5.4252610206604,-0.012776692397892475,-0.010913425125181675,0.0324740931391716
17722534456675,3.490746021270752,-7.608773231506348,5.408501625061035,-0.012510511092841625,-0.01703559048473835,0.0340711809694767
17722535693775,3.4835634231567383,-7.620744228363037,5.461174011230469,-0.0119781494140625,-0.02022976242005825,0.0343373604118824
17722536930875,3.463212728500366,-7.582437038421631,5.43723201751709,-0.01357523538172245,-0.0167694091796875,0.0340711809694767
17722538167962,3.4344823360443115,-7.618350028991699,5.43723201751709,-0.01171196810901165,-0.015172322280704975,0.03087700717151165
17722539405062,3.4596214294433594,-7.586028099060059,5.432443618774414,-0.0119781494140625,-0.01650322787463665,0.03087700717151165
17722540642162,3.4799721240997314,-7.564480304718018,5.420472621917725,-0.01224433071911335,-0.015172322280704975,0.02794901467859745
17722541879262,3.4560301303863525,-7.599196434020996,5.440823554992676,-0.008517795242369175,-0.01943122036755085,0.0338049978017807
17722543116362,3.448847532272339,-7.577648639678955,5.4228668212890625,-0.008517795242369175,-0.0181003138422966,0.0375315360724926
17722544353462,3.446453332901001,-7.603984832763672,5.406107425689697,-0.00931633822619915,-0.02502102218568325,0.02981228195130825
17722545590550,3.450044631958008,-7.6099700927734375,5.445611953735352,-0.003460354171693325,-0.0316755510866642,0.03034464456140995
17722546827662,3.4153287410736084,-7.614758491516113,5.365406036376953,-0.010647243820130825,-0.01783413253724575,0.0327402763068676
17722548064750,3.383007049560547,-7.601590633392334,5.374982833862305,-0.0071868896484375,-0.0186326764523983,0.0276828333735466
17722549301850,3.4081461429595947,-7.612364292144775,5.410895824432373,-0.007453070487827063,-0.0210283063352108,0.0338049978017807
17722550538950,3.4560301303863525,-7.625532627105713,5.385756969451904,-0.008783976547420025,-0.023956298828125,0.02848137728869915
17722551776050,3.4560301303863525,-7.586028099060059,5.367800235748291,-0.0077192517928779125,-0.0263519287109375,0.033272635191679
17722553013150,3.4811692237854004,-7.578845500946045,5.373785972595215,-0.007985432632267475,-0.02129448764026165,0.0343373604118824
17722554250237,3.441664934158325,-7.605181694030762,5.4025163650512695,-0.00692070834338665,-0.02422248013317585,0.0234239362180233
17722555487337,3.442862033843994,-7.612364292144775,5.407304763793945,-0.003460354171693325,-0.0268842913210392,0.02661811001598835
17722556724437,3.420117139816284,-7.6099700927734375,5.364209175109863,-0.007453070487827063,-0.02315775491297245,0.0346035435795784
17722557961537,3.4093432426452637,-7.632715225219727,5.384559631347656,-0.0114457868039608,-0.023956298828125,0.0292799212038517
17722559198625,3.4308910369873047,-7.647080421447754,5.419275760650635,-0.0090501569211483,-0.01943122036755085,0.02901373989880085
17722560435737,3.3865983486175537,-7.643488883972168,5.365406036376953,-0.005589802749454975,-0.0210283063352108,0.02874755859375
17722561672825,3.426102638244629,-7.632715225219727,5.416881561279297,-0.0138414166867733,-0.02502102218568325,0.0268842913210392
17722562909925,3.35667085647583,-7.69735860824585,5.39174222946167,-0.0167694091796875,-0.02502102218568325,0.02794901467859745
17722564147025,3.375824451446533,-7.682993412017822,5.420472621917725,-0.0114457868039608,-0.02794901467859745,0.02315775491297245
17722565384112,3.3423056602478027,-7.660248279571533,5.377377033233643,-0.00931633822619915,-0.02422248013317585,0.02369011752307415
17722566621212,3.3889925479888916,-7.645883083343506,5.409698963165283,-0.008783976547420025,-0.0247548408806324,0.01943122036755085
17722567858312,3.383007049560547,-7.672219276428223,5.419275760650635,-0.013042873702943325,-0.0252872034907341,0.0157046839594841
17722569095412,3.3901896476745605,-7.688978672027588,5.385756969451904,-0.010913425125181675,-0.02315775491297245,0.01836649514734745
17722570332500,3.377021551132202,-7.68538761138916,5.373785972595215,-0.01117960549890995,-0.0204959437251091,0.01703559048473835
17722571569600,3.3734302520751953,-7.682993412017822,5.412093162536621,-0.01889885775744915,-0.0223592109978199,0.012776692397892475
17722572806700,3.3854012489318848,-7.717709064483643,5.368997573852539,-0.0114457868039608,-0.0228915736079216,0.0167694091796875
17722574043787,3.4189200401306152,-7.692570209503174,5.4013190269470215,-0.01357523538172245,-0.0186326764523983,0.013309055007994175
17722575280900,3.37941575050354,-7.726089000701904,5.410895824432373,-0.01650322787463665,-0.01597086526453495,0.013042873702943325
17722576518000,3.3674447536468506,-7.672219276428223,5.388151168823242,-0.0191650390625,-0.0191650390625,0.013042873702943325
17722577755100,3.35667085647583,-7.648277282714844,5.409698963165283,-0.014373779296875,-0.0196974016726017,0.010913425125181675
17722578992187,3.339911460876465,-7.702147006988525,5.377377033233643,-0.0138414166867733,-0.0220930315554142,0.0077192517928779125
17722580229287,3.3925838470458984,-7.675810813903809,5.383362770080566,-0.013309055007994175,-0.0220930315554142,0.00692070834338665
17722581466375,3.381809949874878,-7.59560489654541,5.374982833862305,-0.01650322787463665,-0.01650322787463665,0.00692070834338665
17722582703475,3.4153287410736084,-7.63989782333374,5.386953830718994,-0.0191650390625,-0.02182685025036335,0.005589802749454975
17722583940587,3.3698389530181885,-7.602787494659424,5.396530628204346,-0.01597086526453495,-0.02076212503015995,0.0042588976211845875
17722585177675,3.359065055847168,-7.581239700317383,5.39054536819458,-0.0162370465695858,-0.0167694091796875,0.0037265352439135313
17722586414800,3.3255462646484375,-7.586028099060059,5.39174222946167,-0.01357523538172245,-0.0191650390625,0.0053236219100654125
17722587651887,3.3638534545898438,-7.583633899688721,5.4228668212890625,-0.00984870083630085,-0.014906140975654125,0.008783976547420025
17722588888975,3.3494882583618164,-7.590816497802734,5.392939567565918,-0.00958251953125,-0.01357523538172245,0.00452507846057415
17722590126062,3.3698389530181885,-7.596802234649658,5.377377033233643,-0.015172322280704975,-0.01650322787463665,0.0026618109550327063
17722591363150,3.355473756790161,-7.60637903213501,5.351040840148926,-0.012510511092841625,-0.0138414166867733,0.0042588976211845875
17722592600275,3.3722331523895264,-7.593210697174072,5.378574371337891,-0.013042873702943325,-0.014906140975654125,0.0029279920272529125
17722593837350,3.3889925479888916,-7.56088924407959,5.354632377624512,-0.01357523538172245,-0.0157046839594841,0.0010647244052961469
17722595074437,3.4105403423309326,-7.574057102203369,5.377377033233643,-0.00958251953125,-0.0167694091796875,0.0042588976211845875
17722596311550,3.384204149246216,-7.5668745040893555,5.385756969451904,-0.00452507846057415,-0.013309055007994175,0.0023956298828125
17722597548650,3.3423056602478027,-7.5680718421936035,5.384559631347656,-0.01117960549890995,-0.0119781494140625,-0.0015970865497365594
17722598785737,3.400963544845581,-7.56088924407959,5.3809685707092285,-0.008783976547420025,-0.01224433071911335,0.0063883461989462376
17722600022850,3.4081461429595947,-7.56208610534668,5.351040840148926,-0.005589802749454975,-0.013042873702943325,0.004791259765625
17722601259937,3.361459255218506,-7.55011510848999,5.3582234382629395,-0.0015970865497365594,-0.014906140975654125,0.0053236219100654125
17722602497025,3.3877954483032227,-7.524975776672363,5.416881561279297,-0.0026618109550327063,-0.0066545275039970875,0.0031941730994731188
17722603734137,3.3937809467315674,-7.580042839050293,5.3582234382629395,-0.0029279920272529125,-0.008251613937318325,0.0015970865497365594
17722604971237,3.405751943588257,-7.564480304718018,5.374982833862305,-0.0029279920272529125,-0.01410759799182415,0.005589802749454975
17722606208337,3.3638534545898438,-7.522581577301025,5.414487361907959,-0.0007985432748682797,-0.010381062515079975,0.004791259765625
17722607445437,3.42490553855896,-7.50462532043457,5.34625244140625,0.0042588976211845875,-0.007453070487827063,0.008783976547420025
17722608682525,3.403357744216919,-7.535749912261963,5.384559631347656,0.003460354171693325,-0.0114457868039608,0.0090501569211483
17722609919625,3.4081461429595947,-7.5465240478515625,5.39174222946167,0.0015970865497365594,-0.013309055007994175,0.0031941730994731188
17722611156725,3.384204149246216,-7.539340972900391,5.39054536819458,0.0026618109550327063,-0.01117960549890995,0.0023956298828125
17722612393812,3.400963544845581,-7.571662902832031,5.368997573852539,0.0018632676219567657,-0.007985432632267475,0.0023956298828125
17722613630912,3.4332852363586426,-7.569268703460693,5.352238178253174,0.00452507846057415,-0.007985432632267475,0.00452507846057415
17722614868025,3.4093432426452637,-7.597999095916748,5.386953830718994,0.00692070834338665,-0.007453070487827063,0.005057440605014563
17722616105125,3.3734302520751953,-7.593210697174072,5.4013190269470215,0.007453070487827063,-0.0090501569211483,0.0037265352439135313
17722617342200,3.3494882583618164,-7.56088924407959,5.385756969451904,0.013042873702943325,-0.0071868896484375,0.007985432632267475
17722618579300,3.381809949874878,-7.574057102203369,5.404910564422607,0.012776692397892475,-0.006122165359556675,0.0071868896484375
17722619816412,3.354276657104492,-7.59440803527832,5.433640956878662,0.0090501569211483,-0.0053236219100654125,0.0021294488105922937
17722621053500,3.3710360527038574,-7.633912086486816,5.384559631347656,0.01357523538172245,-0.0002661811013240367,0.0066545275039970875
17722622290600,3.397372245788574,-7.592013835906982,5.383362770080566,0.0138414166867733,-0.0015970865497365594,0.0066545275039970875
17722623527700,3.404554843902588,-7.6099700927734375,5.392939567565918,0.010114881210029125,0.0013309054775163531,0.0037265352439135313
17722624764787,3.4105403423309326,-7.563283443450928,5.407304763793945,0.012510511092841625,-0.0029279920272529125,0.0007985432748682797
17722626001900,3.3518824577331543,-7.580042839050293,5.428852558135986,0.014906140975654125,0.0023956298828125,0.0039927163161337376
17722627238987,3.3925838470458984,-7.608773231506348,5.378574371337891,0.014906140975654125,0.0005323622026480734,0.00692070834338665
17722628476100,3.4081461429595947,-7.600393295288086,5.398924827575684,0.01224433071911335,-0.0002661811013240367,0.006122165359556675
17722629713175,3.4081461429595947,-7.5896196365356445,5.413290023803711,0.0119781494140625,0.0071868896484375,0.007985432632267475
17722630950275,3.35667085647583,-7.608773231506348,5.403713226318359,0.015438503585755825,0.0042588976211845875,0.005057440605014563
17722632187387,3.3949780464172363,-7.600393295288086,5.39054536819458,0.014373779296875,0.0021294488105922937,0.004791259765625
17722633424487,3.4392707347869873,-7.578845500946045,5.400122165679932,0.01597086526453495,0.0005323622026480734,0.0053236219100654125
17722634661562,3.405751943588257,-7.6099700927734375,5.43723201751709,0.0157046839594841,0.0029279920272529125,0.008251613937318325
17722635898662,3.3961751461029053,-7.584831237792969,5.400122165679932,0.01943122036755085,-0.0002661811013240367,0.005589802749454975
17722637135775,3.428496837615967,-7.630321025848389,5.395333766937256,0.0173017717897892,0.004791259765625,0.0026618109550327063
17722638372887,3.427299737930298,-7.619546890258789,5.419275760650635,0.015172322280704975,0.003460354171693325,0.0077192517928779125
17722639609962,3.4356794357299805,-7.626729488372803,5.439626216888428,0.01463996060192585,0.007985432632267475,0.0114457868039608
17722640847062,3.399766445159912,-7.633912086486816,5.443217754364014,0.01783413253724575,0.010647243820130825,0.008251613937318325
17722642084162,3.4368765354156494,-7.60637903213501,5.426458358764648,0.0162370465695858,0.008251613937318325,0.008783976547420025
17722643321262,3.441664934158325,-7.661445617675781,5.47075080871582,0.01703559048473835,0.0066545275039970875,0.0039927163161337376
17722644558350,3.4727895259857178,-7.621941089630127,5.4252610206604,0.02022976242005825,0.010913425125181675,0.008251613937318325
17722645795450,3.4356794357299805,-7.659051418304443,5.461174011230469,0.02129448764026165,0.008517795242369175,0.007453070487827063
17722647032550,3.4081461429595947,-7.684190273284912,5.43723201751709,0.02129448764026165,0.0071868896484375,0.003460354171693325
17722648269650,3.4368765354156494,-7.663839817047119,5.397727966308594,0.02129448764026165,0.007453070487827063,0.0005323622026480734
17722649506750,3.4512417316436768,-7.65186882019043,5.43723201751709,0.0215606689453125,0.010114881210029125,0.00452507846057415
17722650743850,3.4608185291290283,-7.687781810760498,5.458779811859131,0.01756795309484005,0.00958251953125,0.0066545275039970875
17722651980937,3.4512417316436768,-7.687781810760498,5.43603515625,0.01463996060192585,0.01224433071911335,0.0071868896484375
17722653218025,3.4344823360443115,-7.703343868255615,5.400122165679932,0.01889885775744915,0.006122165359556675,0.0042588976211845875
17722654455137,3.4308910369873047,-7.717709064483643,5.426458358764648,0.0196974016726017,0.0066545275039970875,0.0002661811013240367
17722655692250,3.4620156288146973,-7.687781810760498,5.479130744934082,0.01703559048473835,0.0090501569211483,0.008783976547420025
17722656929337,3.4380736351013184,-7.692570209503174,5.498284339904785,0.0228915736079216,0.00958251953125,0.007985432632267475
17722658166437,3.490746021270752,-7.712920665740967,5.459977149963379,0.01943122036755085,0.01117960549890995,0.01224433071911335
17722659403525,3.465606927871704,-7.694964408874512,5.442020416259766,0.015438503585755825,0.007453070487827063,0.010647243820130825
17722660640625,3.444059133529663,-7.717709064483643,5.47075080871582,0.0157046839594841,0.008517795242369175,0.008783976547420025
17722661877712,3.4823663234710693,-7.663839817047119,5.471948146820068,0.01889885775744915,0.01117960549890995,0.01463996060192585
17722663114825,3.5027170181274414,-7.6985554695129395,5.459977149963379,0.014906140975654125,0.012776692397892475,0.01171196810901165
17722664351925,3.508702516555786,-7.687781810760498,5.480327606201172,0.01357523538172245,0.008517795242369175,0.015172322280704975
17722665589025,3.4955344200134277,-7.735665798187256,5.453991413116455,0.01357523538172245,0.005855984054505825,0.014906140975654125
17722666826125,3.487154722213745,-7.734468460083008,5.476736545562744,0.014373779296875,0.010381062515079975,0.010381062515079975
17722668063187,3.4835634231567383,-7.671022415161133,5.493495941162109,0.015172322280704975,0.008783976547420025,0.01224433071911335
17722669300312,3.4799721240997314,-7.700949668884277,5.499481201171875,0.01410759799182415,0.010381062515079975,0.014373779296875
17722670537412,3.5051112174987793,-7.736862659454346,5.4659624099731445,0.0186326764523983,0.007985432632267475,0.01650322787463665
17722671774500,3.4775779247283936,-7.7201032638549805,5.503072738647461,0.01650322787463665,0.0071868896484375,0.01410759799182415
17722673011600,3.4835634231567383,-7.739256858825684,5.4911017417907715,0.01783413253724575,0.005589802749454975,0.0186326764523983
17722674248700,3.509899616241455,-7.704541206359863,5.517437934875488,0.0220930315554142,0.0021294488105922937,0.01783413253724575
17722675485825,3.465606927871704,-7.714118003845215,5.4875102043151855,0.0077192517928779125,0.0090501569211483,0.01703559048473835
17722676722912,3.4847605228424072,-7.73207426071167,5.467159748077393,0.008783976547420025,0.0066545275039970875,0.0157046839594841
17722677960000,3.5218706130981445,-7.744045257568359,5.494692802429199,0.01117960549890995,0.0039927163161337376,0.0167694091796875
17722679197075,3.5051112174987793,-7.714118003845215,5.500678539276123,0.01117960549890995,0.008251613937318325,0.0196974016726017
17722680434187,3.5015199184417725,-7.706935405731201,5.538985729217529,0.012510511092841625,0.003460354171693325,0.01463996060192585
17722681671300,3.4751837253570557,-7.700949668884277,5.5341973304748535,0.012510511092841625,0.0039927163161337376,0.0186326764523983
17722682908387,3.4751837253570557,-7.733271598815918,5.513846397399902,0.00958251953125,0.0042588976211845875,0.01943122036755085
17722684145500,3.5063083171844482,-7.727285861968994,5.495890140533447,0.0063883461989462376,0.0021294488105922937,0.0204959437251091
17722685382575,3.5039141178131104,-7.717709064483643,5.494692802429199,0.008251613937318325,0.005057440605014563,0.0181003138422966
17722686619675,3.463212728500366,-7.739256858825684,5.473145008087158,0.00931633822619915,0.0021294488105922937,0.01889885775744915
17722687856775,3.507505416870117,-7.717709064483643,5.497087001800537,0.0066545275039970875,-0.0029279920272529125,0.0186326764523983
17722689093875,3.531447649002075,-7.748833656311035,5.5126495361328125,0.00452507846057415,0.0007985432748682797,0.01996358297765255
17722690330975,3.468001127243042,-7.735665798187256,5.529408931732178,0.008783976547420025,0.005855984054505825,0.02422248013317585
17722691568062,3.4620156288146973,-7.799112319946289,5.5126495361328125,0.0037265352439135313,0.0031941730994731188,0.0215606689453125
17722692805175,3.491943120956421,-7.726089000701904,5.497087001800537,0.0005323622026480734,0.0013309054775163531,0.0191650390625
17722694042262,3.4847605228424072,-7.727285861968994,5.489904403686523,0.0002661811013240367,-0.0015970865497365594,0.02076212503015995
17722695279375,3.488351821899414,-7.735665798187256,5.524620532989502,0.005057440605014563,0.0013309054775163531,0.01996358297765255
17722696516462,3.488351821899414,-7.735665798187256,5.531803131103516,0.004791259765625,-0.0010647244052961469,0.0191650390625
17722697753562,3.5039141178131104,-7.708132266998291,5.537788391113281,-0.0002661811013240367,-0.0010647244052961469,0.01836649514734745
17722698990650,3.4727895259857178,-7.790732383728027,5.461174011230469,0.0002661811013240367,-0.0042588976211845875,0.01996358297765255
17722700227762,3.4955344200134277,-7.750030994415283,5.543774127960205,-0.0021294488105922937,-0.008251613937318325,0.02422248013317585
17722701464862,3.4584243297576904,-7.7631988525390625,5.553350925445557,0.0,-0.0031941730994731188,0.02315775491297245
17722702701950,3.47039532661438,-7.752425193786621,5.553350925445557,-0.004791259765625,-0.0042588976211845875,0.02315775491297245
17722703939037,3.4512417316436768,-7.754819393157959,5.5126495361328125,-0.00452507846057415,-0.00452507846057415,0.0252872034907341
17722705176162,3.491943120956421,-7.735665798187256,5.56053352355957,0.0002661811013240367,-0.010913425125181675,0.02182685025036335
17722706413225,3.4775779247283936,-7.744045257568359,5.52821159362793,-0.003460354171693325,-0.007985432632267475,0.0234239362180233
17722707650337,3.4512417316436768,-7.802703380584717,5.458779811859131,-0.007453070487827063,-0.0066545275039970875,0.0196974016726017
17722708887425,3.44765043258667,-7.747636795043945,5.494692802429199,-0.0077192517928779125,-0.008517795242369175,0.02129448764026165
17722710124550,3.485957622528076,-7.754819393157959,5.525817394256592,-0.008783976547420025,-0.0090501569211483,0.0228915736079216
17722711361637,3.464409828186035,-7.747636795043945,5.531803131103516,-0.0090501569211483,-0.010913425125181675,0.02661811001598835
17722712598725,3.4584243297576904,-7.785943984985352,5.524620532989502,-0.008517795242369175,-0.008517795242369175,0.02874755859375
17722713835825,3.421314239501953,-7.738059997558594,5.518634796142578,-0.01171196810901165,-0.0077192517928779125,0.02874755859375
17722715072925,3.4380736351013184,-7.7631988525390625,5.477933406829834,-0.0090501569211483,-0.013309055007994175,0.0234239362180233
17722716310012,3.4332852363586426,-7.746439456939697,5.4911017417907715,-0.014906140975654125,-0.013042873702943325,0.02555338479578495
17722717547125,3.4536359310150146,-7.7631988525390625,5.492298603057861,-0.01756795309484005,-0.014373779296875,0.0258195661008358
17722718784225,3.4751837253570557,-7.803900718688965,5.51504373550415,-0.00984870083630085,-0.0119781494140625,0.0295461006462574
17722720021300,3.441664934158325,-7.760804653167725,5.51624059677124,-0.0162370465695858,-0.008783976547420025,0.02874755859375
17722721258412,3.4380736351013184,-7.802703380584717,5.474342346191406,-0.0186326764523983,-0.007453070487827063,0.02502102218568325
17722722495512,3.445256233215332,-7.782352447509766,5.486313343048096,-0.0181003138422966,-0.010913425125181675,0.0271504707634449
17722723732612,3.426102638244629,-7.757213592529297,5.48272180557251,-0.0167694091796875,-0.012510511092841625,0.033272635191679
17722724969700,3.469198226928711,-7.772775650024414,5.479130744934082,-0.02022976242005825,-0.012776692397892475,0.0314093679189682
17722726206800,3.421314239501953,-7.781155586242676,5.5126495361328125,-0.02422248013317585,-0.012510511092841625,0.0258195661008358
17722727443900,3.4153287410736084,-7.766790390014648,5.505466938018799,-0.0316755510866642,-0.008517795242369175,0.0252872034907341
17722728681000,3.4165258407592773,-7.782352447509766,5.461174011230469,-0.0282151959836483,-0.01463996060192585,0.023956298828125
17722729918112,3.397372245788574,-7.785943984985352,5.494692802429199,-0.02022976242005825,-0.01463996060192585,0.0204959437251091
17722731155175,3.3877954483032227,-7.753622055053711,5.48152494430542,-0.0258195661008358,-0.01357523538172245,0.0258195661008358
17722732392275,3.384204149246216,-7.748833656311035,5.550956726074219,-0.0300784632563591,-0.013042873702943325,0.0223592109978199
17722733629400,3.354276657104492,-7.754819393157959,5.467159748077393,-0.0316755510866642,-0.012776692397892475,0.0276828333735466
17722734866487,3.361459255218506,-7.758410453796387,5.421669960021973,-0.02901373989880085,-0.010647243820130825,0.0282151959836483
17722736103600,3.4141316413879395,-7.77756404876709,5.438429355621338,-0.0258195661008358,-0.014906140975654125,0.02901373989880085
17722737340687,3.3734302520751953,-7.7213006019592285,5.492298603057861,-0.02661811001598835,-0.01171196810901165,0.0271504707634449
17722738577787,3.384204149246216,-7.784747123718262,5.486313343048096,-0.0372653529047966,-0.007453070487827063,0.023956298828125
17722739814875,3.4165258407592773,-7.782352447509766,5.433640956878662,-0.0300784632563591,-0.0090501569211483,0.02369011752307415
17722741051975,3.398569345474243,-7.738059997558594,5.480327606201172,-0.0359344482421875,-0.0114457868039608,0.0292799212038517
17722742289075,3.397372245788574,-7.738059997558594,5.4911017417907715,-0.0372653529047966,-0.010647243820130825,0.02848137728869915
17722743526187,3.4404678344726562,-7.733271598815918,5.477933406829834,-0.0322079136967659,-0.0077192517928779125,0.02262539230287075
17722744763262,3.3889925479888916,-7.751227855682373,5.467159748077393,-0.0351359061896801,0.0023956298828125,0.02315775491297245
17722746000362,3.403357744216919,-7.744045257568359,5.4911017417907715,-0.0364668108522892,-0.0114457868039608,0.0311431884765625
17722747237462,3.3913867473602295,-7.716512203216553,5.457582950592041,-0.0367329902946949,-0.0138414166867733,0.0319417305290699
17722748474575,3.406949043273926,-7.723694801330566,5.449203014373779,-0.0399271659553051,-0.0162370465695858,0.02981228195130825
17722749711662,3.426102638244629,-7.729680061340332,5.471948146820068,-0.0393948033452034,-0.01117960549890995,0.02901373989880085
17722750948762,3.37941575050354,-7.6985554695129395,5.500678539276123,-0.0356682650744915,-0.0071868896484375,0.0247548408806324
17722752185837,3.3949780464172363,-7.6985554695129395,5.495890140533447,-0.0388624407351017,-0.006122165359556675,0.023956298828125
17722753422937,3.383007049560547,-7.718906402587891,5.475539207458496,-0.0343373604118824,-0.0063883461989462376,0.02901373989880085
17722754660050,3.3446998596191406,-7.663839817047119,5.48272180557251,-0.0391286201775074,-0.007985432632267475,0.02874755859375
17722755897150,3.406949043273926,-7.675810813903809,5.48272180557251,-0.0415242500603199,-0.008251613937318325,0.0258195661008358
17722757134250,3.377021551132202,-7.714118003845215,5.457582950592041,-0.0391286201775074,-0.0071868896484375,0.02794901467859745
17722758371337,3.336320161819458,-7.694964408874512,5.453991413116455,-0.0388624407351017,-0.0002661811013240367,0.0252872034907341
17722759608450,3.37941575050354,-7.650671482086182,5.459977149963379,-0.0415242500603199,-0.004791259765625,0.0271504707634449
17722760845537,3.360262155532837,-7.643488883972168,5.446808815002441,-0.0468478724360466,-0.0015970865497365594,0.02661811001598835
17722762082650,3.357867956161499,-7.663839817047119,5.453991413116455,-0.0449846051633358,-0.010913425125181675,0.0268842913210392
17722763319762,3.3518824577331543,-7.663839817047119,5.430049419403076,-0.0409918874502182,-0.003460354171693325,0.0263519287109375
17722764556825,3.3746273517608643,-7.668628215789795,5.464765548706055,-0.0407257080078125,-0.0010647244052961469,0.0258195661008358
17722765793912,3.332728862762451,-7.717709064483643,5.415684223175049,-0.0447184219956398,-0.0023956298828125,0.02262539230287075
17722767031025,3.3710360527038574,-7.6985554695129395,5.453991413116455,-0.0439198799431324,-0.0007985432748682797,0.02502102218568325
17722768268125,3.3458969593048096,-7.650671482086182,5.443217754364014,-0.0444522425532341,-0.0015970865497365594,0.02608574740588665
17722769505212,3.357867956161499,-7.623138427734375,5.419275760650635,-0.0433875173330307,0.0005323622026480734,0.02741665206849575
17722770742325,3.360262155532837,-7.6530656814575195,5.440823554992676,-0.0417904332280159,0.0005323622026480734,0.02981228195130825
17722771979437,3.332728862762451,-7.675810813903809,5.413290023803711,-0.0415242500603199,-0.0005323622026480734,0.0263519287109375
17722773216525,3.339911460876465,-7.6530656814575195,5.4444146156311035,-0.0441860631108284,0.0053236219100654125,0.02741665206849575
17722774453625,3.357867956161499,-7.603984832763672,5.406107425689697,-0.0423227921128273,0.0018632676219567657,0.0263519287109375
17722775690725,3.35667085647583,-7.655459880828857,5.434837818145752,-0.043121337890625,0.008517795242369175,0.023956298828125
17722776927812,3.3865983486175537,-7.657854080200195,5.432443618774414,-0.0393948033452034,0.0018632676219567657,0.0295461006462574
17722778164900,3.3315317630767822,-7.6746134757995605,5.434837818145752,-0.0423227921128273,0.0029279920272529125,0.0247548408806324
17722779402012,3.37941575050354,-7.645883083343506,5.489904403686523,-0.0436537005007267,0.0090501569211483,0.0210283063352108
17722780639112,3.3650505542755127,-7.672219276428223,5.463568210601807,-0.0433875173330307,0.0077192517928779125,0.01889885775744915
17722781876212,3.3937809467315674,-7.6351094245910645,5.431246757507324,-0.0433875173330307,0.00452507846057415,0.02608574740588665
17722783113287,3.3506853580474854,-7.666234016418457,5.477933406829834,-0.0415242500603199,0.003460354171693325,0.0282151959836483
17722784350412,3.377021551132202,-7.636306285858154,5.4659624099731445,-0.0433875173330307,0.007453070487827063,0.0220930315554142
17722785587500,3.3710360527038574,-7.6111674308776855,5.492298603057861,-0.0377977155148983,0.007985432632267475,0.0247548408806324
17722786824600,3.361459255218506,-7.627926826477051,5.414487361907959,-0.0351359061896801,0.0063883461989462376,0.0292799212038517
17722788061700,3.3446998596191406,-7.663839817047119,5.440823554992676,-0.0401933453977108,0.00692070834338665,0.0276828333735466
17722789298800,3.2980129718780518,-7.661445617675781,5.477933406829834,-0.0417904332280159,0.00452507846057415,0.0247548408806324
17722790535887,3.3698389530181885,-7.647080421447754,5.395333766937256,-0.0343373604118824,0.008517795242369175,0.02661811001598835
17722791773000,3.3722331523895264,-7.620744228363037,5.458779811859131,-0.0330064557492733,0.014373779296875,0.0220930315554142
17722793010087,3.354276657104492,-7.63989782333374,5.416881561279297,-0.0359344482421875,0.010647243820130825,0.02608574740588665
17722794247187,3.3530795574188232,-7.650671482086182,5.392939567565918,-0.0375315360724926,0.0119781494140625,0.0271504707634449
17722795484300,3.3482911586761475,-7.617152690887451,5.421669960021973,-0.0340711809694767,0.0162370465695858,0.0252872034907341
17722796721375,3.332728862762451,-7.603984832763672,5.416881561279297,-0.0375315360724926,0.01836649514734745,0.0244886614382267
17722797958462,3.3435027599334717,-7.60637903213501,5.389348030090332,-0.0343373604118824,0.014906140975654125,0.02661811001598835
17722799195587,3.359065055847168,-7.60637903213501,5.419275760650635,-0.0322079136967659,0.010381062515079975,0.0271504707634449
17722800432700,3.40216064453125,-7.602787494659424,5.394136428833008,-0.0340711809694767,0.012776692397892475,0.02981228195130825
17722801669775,3.33392596244812,-7.613561630249023,5.408501625061035,-0.0346035435795784,0.014906140975654125,0.0322079136967659
17722802906887,3.3423056602478027,-7.608773231506348,5.426458358764648,-0.0351359061896801,0.01756795309484005,0.02901373989880085
17722804143987,3.3662476539611816,-7.644686222076416,5.414487361907959,-0.03087700717151165,0.0210283063352108,0.0258195661008358
17722805381062,3.3638534545898438,-7.625532627105713,5.421669960021973,-0.0311431884765625,0.02182685025036335,0.02794901467859745
17722806618162,3.354276657104492,-7.617152690887451,5.384559631347656,-0.0322079136967659,0.0181003138422966,0.02794901467859745
17722807855275,3.3638534545898438,-7.6566572189331055,5.376180171966553,-0.02901373989880085,0.01836649514734745,0.02661811001598835
17722809092375,3.3303346633911133,-7.661445617675781,5.398924827575684,-0.0311431884765625,0.01703559048473835,0.02981228195130825
17722810329475,3.3231520652770996,-7.625532627105713,5.418078422546387,-0.0372653529047966,0.02182685025036335,0.0258195661008358
17722811566550,3.332728862762451,-7.59560489654541,5.404910564422607,-0.0316755510866642,0.02022976242005825,0.02661811001598835
17722812803637,3.313575267791748,-7.600393295288086,5.39174222946167,-0.02848137728869915,0.0244886614382267,0.02794901467859745
17722814040762,3.317166566848755,-7.650671482086182,5.377377033233643,-0.0327402763068676,0.02182685025036335,0.02555338479578495
17722815277850,3.3686418533325195,-7.643488883972168,5.418078422546387,-0.0330064557492733,0.02315775491297245,0.02422248013317585
17722816514962,3.314772367477417,-7.629123687744141,5.406107425689697,-0.0271504707634449,0.02502102218568325,0.0258195661008358
17722817752050,3.3303346633911133,-7.619546890258789,5.412093162536621,-0.02422248013317585,0.02555338479578495,0.023956298828125
17722818989150,3.355473756790161,-7.662642478942871,5.426458358764648,-0.0282151959836483,0.023956298828125,0.02502102218568325
17722820226262,3.3518824577331543,-7.673416614532471,5.383362770080566,-0.0316755510866642,0.0268842913210392,0.0268842913210392
17722821463350,3.3638534545898438,-7.615955829620361,5.39174222946167,-0.03087700717151165,0.02661811001598835,0.0223592109978199
17722822700437,3.3255462646484375,-7.663839817047119,5.39054536819458,-0.0300784632563591,0.0300784632563591,0.02422248013317585
17722823937550,3.318363666534424,-7.6782050132751465,5.430049419403076,-0.03034464456140995,0.0282151959836483,0.0300784632563591
17722825174650,3.3291375637054443,-7.649474620819092,5.432443618774414,-0.02608574740588665,0.0268842913210392,0.0191650390625
17722826411737,3.359065055847168,-7.659051418304443,5.419275760650635,-0.02901373989880085,0.0330064557492733,0.02182685025036335
17722827648837,3.3662476539611816,-7.630321025848389,5.400122165679932,-0.0276828333735466,0.0319417305290699,0.02369011752307415
17722828885925,3.337517261505127,-7.637503623962402,5.384559631347656,-0.0271504707634449,0.023956298828125,0.02369011752307415
17722830123037,3.3494882583618164,-7.682993412017822,5.367800235748291,-0.0316755510866642,0.02661811001598835,0.0258195661008358
17722831360125,3.335123062133789,-7.655459880828857,5.395333766937256,-0.0319417305290699,0.0314093679189682,0.02182685025036335
17722832597225,3.341108560562134,-7.6315178871154785,5.415684223175049,-0.0276828333735466,0.03087700717151165,0.0223592109978199
17722833834337,3.3423056602478027,-7.644686222076416,5.374982833862305,-0.02848137728869915,0.02874755859375,0.02022976242005825
17722835071437,3.335123062133789,-7.663839817047119,5.382165431976318,-0.02661811001598835,0.0300784632563591,0.0186326764523983
17722836308525,3.293224573135376,-7.660248279571533,5.386953830718994,-0.0276828333735466,0.033538818359375,0.01889885775744915
17722837545625,3.3315317630767822,-7.6530656814575195,5.427655220031738,-0.0276828333735466,0.0322079136967659,0.0167694091796875
17722838782712,3.3231520652770996,-7.644686222076416,5.395333766937256,-0.0300784632563591,0.0292799212038517,0.0138414166867733
17722840019812,3.339911460876465,-7.648277282714844,5.382165431976318,-0.0292799212038517,0.033538818359375,0.02262539230287075
17722841256925,3.3219549655914307,-7.655459880828857,5.421669960021973,-0.02794901467859745,0.0346035435795784,0.02661811001598835
17722842494000,3.313575267791748,-7.68538761138916,5.388151168823242,-0.02848137728869915,0.0356682650744915,0.01943122036755085
17722843731112,3.315969467163086,-7.696161270141602,5.413290023803711,-0.0295461006462574,0.0330064557492733,0.014373779296875
17722844968212,3.3207578659057617,-7.672219276428223,5.388151168823242,-0.0330064557492733,0.0362006276845932,0.0114457868039608
17722846205300,3.2812533378601074,-7.6530656814575195,5.418078422546387,-0.0268842913210392,0.0417904332280159,0.01171196810901165
17722847442412,3.3016042709350586,-7.711723804473877,5.4013190269470215,-0.0311431884765625,0.038063894957304,0.013042873702943325
17722848679512,3.3004071712493896,-7.671022415161133,5.374982833862305,-0.0330064557492733,0.038063894957304,0.012776692397892475
17722849916612,3.2992100715637207,-7.687781810760498,5.364209175109863,-0.0354020856320858,0.0367329902946949,0.010913425125181675
17722851153700,3.332728862762451,-7.661445617675781,5.412093162536621,-0.033272635191679,0.0369991734623909,0.0138414166867733
17722852390800,3.3291375637054443,-7.703343868255615,5.418078422546387,-0.0223592109978199,0.0372653529047966,0.013309055007994175
17722853627887,3.3482911586761475,-7.6997528076171875,5.389348030090332,-0.02848137728869915,0.0351359061896801,0.014373779296875
17722854864987,3.3458969593048096,-7.667430877685547,5.374982833862305,-0.0316755510866642,0.0385962575674057,0.01783413253724575
17722856102100,3.35667085647583,-7.671022415161133,5.384559631347656,-0.0340711809694767,0.0449846051633358,0.0138414166867733
17722857339200,3.3482911586761475,-7.6985554695129395,5.383362770080566,-0.0311431884765625,0.0393948033452034,0.0157046839594841
17722858576287,3.3470940589904785,-7.679401874542236,5.404910564422607,-0.0271504707634449,0.0369991734623909,0.01756795309484005
17722859813387,3.3961751461029053,-7.6351094245910645,5.3797712326049805,-0.0316755510866642,0.0396609827876091,0.0162370465695858
17722861050500,3.375824451446533,-7.647080421447754,5.349843502044678,-0.0276828333735466,0.0375315360724926,0.01996358297765255
17722862287587,3.339911460876465,-7.619546890258789,5.398924827575684,-0.0220930315554142,0.0385962575674057,0.0173017717897892
17722863524687,3.3710360527038574,-7.6111674308776855,5.406107425689697,-0.0228915736079216,0.0393948033452034,0.0167694091796875
17722864761787,3.3734302520751953,-7.615955829620361,5.427655220031738,-0.02369011752307415,0.038063894957304,0.0167694091796875
17722865998875,3.360262155532837,-7.597999095916748,5.438429355621338,-0.02129448764026165,0.038330078125,0.0181003138422966
17722867235987,3.3710360527038574,-7.6099700927734375,5.395333766937256,-0.0228915736079216,0.0399271659553051,0.0162370465695858
17722868473100,3.4081461429595947,-7.587225437164307,5.354632377624512,-0.0228915736079216,0.0372653529047966,0.0157046839594841
17722869710175,3.3686418533325195,-7.662642478942871,5.343858242034912,-0.02022976242005825,0.0362006276845932,0.01597086526453495
17722870947262,3.354276657104492,-7.636306285858154,5.398924827575684,-0.0215606689453125,0.0375315360724926,0.01943122036755085
17722872184362,3.3506853580474854,-7.655459880828857,5.430049419403076,-0.0228915736079216,0.0399271659553051,0.0114457868039608
17722873421462,3.3458969593048096,-7.671022415161133,5.395333766937256,-0.0191650390625,0.0388624407351017,0.01597086526453495
17722874658587,3.314772367477417,-7.668628215789795,5.397727966308594,-0.01996358297765255,0.0367329902946949,0.0186326764523983
17722875895662,3.3219549655914307,-7.711723804473877,5.373785972595215,-0.0215606689453125,0.0372653529047966,0.015438503585755825
17722877132775,3.3255462646484375,-7.700949668884277,5.3809685707092285,-0.02076212503015995,0.033538818359375,0.0167694091796875
17722878369875,3.3530795574188232,-7.736862659454346,5.339069843292236,-0.02315775491297245,0.0340711809694767,0.014906140975654125
17722879606962,3.313575267791748,-7.745242595672607,5.396530628204346,-0.02022976242005825,0.0364668108522892,0.0077192517928779125
17722880844062,3.3087868690490723,-7.723694801330566,5.376180171966553,-0.0191650390625,0.0388624407351017,0.0066545275039970875
17722882081162,3.3518824577331543,-7.785943984985352,5.372588634490967,-0.0234239362180233,0.0391286201775074,0.0114457868039608
17722883318250,3.381809949874878,-7.802703380584717,5.343858242034912,-0.01650322787463665,0.038330078125,0.01357523538172245
17722884555362,3.3207578659057617,-7.800309181213379,5.372588634490967,-0.02076212503015995,0.0359344482421875,0.0090501569211483
17722885792450,3.336320161819458,-7.795520782470703,5.3342814445495605,-0.02661811001598835,0.0322079136967659,0.007985432632267475
17722887029562,3.33392596244812,-7.7763671875,5.388151168823242,-0.0234239362180233,0.0391286201775074,0.010913425125181675
17722888266650,3.3291375637054443,-7.802703380584717,5.392939567565918,-0.02369011752307415,0.0404595248401165,0.0042588976211845875
17722889503737,3.3435027599334717,-7.799112319946289,5.364209175109863,-0.0271504707634449,0.0356682650744915,0.006122165359556675
17722890740850,3.341108560562134,-7.805097579956055,5.385756969451904,-0.023956298828125,0.0369991734623909,0.00931633822619915
17722891977962,3.338714361190796,-7.807491779327393,5.385756969451904,-0.02555338479578495,0.0346035435795784,0.005589802749454975
17722893215037,3.3087868690490723,-7.825448513031006,5.419275760650635,-0.0210283063352108,0.033272635191679,0.00931633822619915
17722894452150,3.3482911586761475,-7.826645374298096,5.384559631347656,-0.0220930315554142,0.03087700717151165,0.010913425125181675
17722895689237,3.3458969593048096,-7.784747123718262,5.404910564422607,-0.0271504707634449,0.0322079136967659,0.00692070834338665
17722896926350,3.3530795574188232,-7.833827972412109,5.412093162536621,-0.02661811001598835,0.0319417305290699,0.0053236219100654125
17722898163450,3.3650505542755127,-7.775169849395752,5.372588634490967,-0.02741665206849575,0.0359344482421875,0.0053236219100654125
17722899400537,3.3446998596191406,-7.7655930519104,5.343858242034912,-0.02502102218568325,0.0338049978017807,0.005855984054505825
17722900637637,3.354276657104492,-7.736862659454346,5.351040840148926,-0.0282151959836483,0.03087700717151165,0.00984870083630085
17722901874725,3.404554843902588,-7.760804653167725,5.363011837005615,-0.0263519287109375,0.0348697230219841,0.0053236219100654125
17722903111850,3.3865983486175537,-7.745242595672607,5.396530628204346,-0.02422248013317585,0.0348697230219841,0.007985432632267475
17722904348937,3.3518824577331543,-7.735665798187256,5.4252610206604,-0.0263519287109375,0.0292799212038517,0.0119781494140625
17722905586050,3.3446998596191406,-7.754819393157959,5.39174222946167,-0.02741665206849575,0.0322079136967659,0.00452507846057415
17722906823150,3.37941575050354,-7.69735860824585,5.395333766937256,-0.0258195661008358,0.033538818359375,0.00692070834338665
17722908060237,3.3698389530181885,-7.637503623962402,5.406107425689697,-0.0220930315554142,0.0263519287109375,0.013309055007994175
17722909297337,3.339911460876465,-7.724891662597656,5.392939567565918,-0.02129448764026165,0.02661811001598835,0.0114457868039608
17722910534425,3.338714361190796,-7.682993412017822,5.413290023803711,-0.02608574740588665,0.0330064557492733,0.01171196810901165
17722911771525,3.3470940589904785,-7.6566572189331055,5.394136428833008,-0.0258195661008358,0.0316755510866642,0.0077192517928779125
17722913008625,3.354276657104492,-7.6566572189331055,5.396530628204346,-0.0234239362180233,0.03034464456140995,0.00984870083630085
17722914245725,3.383007049560547,-7.663839817047119,5.432443618774414,-0.0295461006462574,0.033272635191679,0.010381062515079975
17722915482825,3.3889925479888916,-7.649474620819092,5.373785972595215,-0.0268842913210392,0.03034464456140995,0.007985432632267475
17722916719925,3.361459255218506,-7.665036678314209,5.363011837005615,-0.02076212503015995,0.0276828333735466,0.0119781494140625
17722917957025,3.3435027599334717,-7.714118003845215,5.360617637634277,-0.0247548408806324,0.0311431884765625,0.012776692397892475
17722919194125,3.3435027599334717,-7.672219276428223,5.340266704559326,-0.02262539230287075,0.0348697230219841,0.00958251953125
17722920431212,3.362656354904175,-7.655459880828857,5.341464042663574,-0.02741665206849575,0.0327402763068676,0.010114881210029125
17722921668325,3.381809949874878,-7.68658447265625,5.303156852722168,-0.02422248013317585,0.02848137728869915,0.007985432632267475
17722922905412,3.341108560562134,-7.717709064483643,5.321113109588623,-0.02129448764026165,0.0276828333735466,0.010913425125181675
17722924142512,3.397372245788574,-7.736862659454346,5.364209175109863,-0.02661811001598835,0.0252872034907341,0.00984870083630085
17722925379600,3.3482911586761475,-7.708132266998291,5.33547830581665,-0.0223592109978199,0.02555338479578495,0.008251613937318325
17722926616725,3.3470940589904785,-7.771578788757324,5.364209175109863,-0.0234239362180233,0.02315775491297245,0.00984870083630085
17722927853812,3.3901896476745605,-7.73087739944458,5.337872505187988,-0.02422248013317585,0.02874755859375,0.0119781494140625
17722929090900,3.338714361190796,-7.740454196929932,5.330689907073975,-0.02262539230287075,0.02874755859375,0.00452507846057415
17722930328012,3.3530795574188232,-7.733271598815918,5.364209175109863,-0.0292799212038517,0.0276828333735466,0.0029279920272529125
17722931565112,3.3435027599334717,-7.7213006019592285,5.342660903930664,-0.0258195661008358,0.02741665206849575,0.0053236219100654125
17722932802225,3.400963544845581,-7.727285861968994,5.365406036376953,-0.02874755859375,0.0306108258664608,0.0010647244052961469
17722934039300,3.3877954483032227,-7.756016254425049,5.39174222946167,-0.0295461006462574,0.02901373989880085,0.0
17722935276412,3.3877954483032227,-7.7416510581970215,5.412093162536621,-0.0295461006462574,0.02794901467859745,-0.0042588976211845875
17722936513512,3.3722331523895264,-7.734468460083008,5.388151168823242,-0.0322079136967659,0.02608574740588665,-0.007453070487827063
17722937750600,3.3734302520751953,-7.694964408874512,5.365406036376953,-0.02555338479578495,0.0252872034907341,-0.0029279920272529125
17722938987700,3.3315317630767822,-7.718906402587891,5.406107425689697,-0.0292799212038517,0.0244886614382267,-0.0037265352439135313
17722940224775,3.3710360527038574,-7.69735860824585,5.389348030090332,-0.0252872034907341,0.0282151959836483,-0.005855984054505825
17722941461887,3.384204149246216,-7.727285861968994,5.400122165679932,-0.02794901467859745,0.02608574740588665,-0.005855984054505825
17722942699000,3.3889925479888916,-7.684190273284912,5.388151168823242,-0.0311431884765625,0.02502102218568325,-0.006122165359556675
17722943936087,3.3518824577331543,-7.675810813903809,5.406107425689697,-0.02848137728869915,0.02848137728869915,-0.0042588976211845875
17722945173187,3.37941575050354,-7.663839817047119,5.412093162536621,-0.0327402763068676,0.0220930315554142,-0.013309055007994175
17722946410275,3.397372245788574,-7.687781810760498,5.406107425689697,-0.0340711809694767,0.02076212503015995,-0.012510511092841625
17722947647387,3.3722331523895264,-7.662642478942871,5.4013190269470215,-0.03087700717151165,0.0220930315554142,-0.008783976547420025
17722948884475,3.3722331523895264,-7.617152690887451,5.373785972595215,-0.02555338479578495,0.02608574740588665,-0.008783976547420025
17722950121587,3.399766445159912,-7.624335289001465,5.367800235748291,-0.023956298828125,0.0234239362180233,-0.0071868896484375
17722951358675,3.3482911586761475,-7.59440803527832,5.413290023803711,-0.0282151959836483,0.02502102218568325,-0.00984870083630085
17722952595787,3.4129345417022705,-7.6315178871154785,5.382165431976318,-0.02874755859375,0.0252872034907341,-0.008783976547420025
17722953832900,3.397372245788574,-7.603984832763672,5.365406036376953,-0.0215606689453125,0.0162370465695858,-0.01171196810901165
17722955069987,3.405751943588257,-7.587225437164307,5.3809685707092285,-0.0228915736079216,0.0223592109978199,-0.0162370465695858
17722956307087,3.3746273517608643,-7.612364292144775,5.408501625061035,-0.0244886614382267,0.0268842913210392,-0.015438503585755825
17722957544187,3.3901896476745605,-7.580042839050293,5.35702657699585,-0.02369011752307415,0.02555338479578495,-0.013309055007994175
17722958781262,3.397372245788574,-7.587225437164307,5.376180171966553,-0.01756795309484005,0.02502102218568325,-0.013042873702943325
17722960018375,3.3734302520751953,-7.629123687744141,5.407304763793945,-0.0186326764523983,0.0215606689453125,-0.012510511092841625
17722961255462,3.3698389530181885,-7.5884222984313965,5.4013190269470215,-0.01889885775744915,0.02502102218568325,-0.0186326764523983
17722962492575,3.3698389530181885,-7.633912086486816,5.384559631347656,-0.01357523538172245,0.02422248013317585,-0.0191650390625
17722963729662,3.40216064453125,-7.56208610534668,5.39054536819458,-0.0119781494140625,0.02555338479578495,-0.014373779296875
17722964966775,3.398569345474243,-7.614758491516113,5.348646640777588,-0.01756795309484005,0.0247548408806324,-0.01703559048473835
17722966203875,3.3674447536468506,-7.6111674308776855,5.363011837005615,-0.010114881210029125,0.0228915736079216,-0.0186326764523983
17722967440975,3.3746273517608643,-7.593210697174072,5.34744930267334,-0.0053236219100654125,0.0223592109978199,-0.014373779296875
17722968678050,3.406949043273926,-7.615955829620361,5.3582234382629395,-0.0071868896484375,0.02848137728869915,-0.0173017717897892
17722969915162,3.3698389530181885,-7.60637903213501,5.3809685707092285,-0.008251613937318325,0.0215606689453125,-0.010381062515079975
17722971152275,3.3913867473602295,-7.6111674308776855,5.370194435119629,-0.0063883461989462376,0.01889885775744915,-0.010647243820130825
17722972389375,3.3889925479888916,-7.597999095916748,5.35702657699585,-0.0039927163161337376,0.0215606689453125,-0.01597086526453495
17722973626462,3.40216064453125,-7.590816497802734,5.376180171966553,-0.004791259765625,0.01756795309484005,-0.012510511092841625
17722974863575,3.441664934158325,-7.662642478942871,5.3594207763671875,-0.00692070834338665,0.02022976242005825,-0.015438503585755825
17722976100650,3.3674447536468506,-7.6351094245910645,5.383362770080566,-0.0005323622026480734,0.01943122036755085,-0.0162370465695858
17722977337750,3.341108560562134,-7.650671482086182,5.34744930267334,-0.003460354171693325,0.02182685025036335,-0.01597086526453495
17722978574862,3.380612850189209,-7.630321025848389,5.414487361907959,-0.004791259765625,0.0244886614382267,-0.0138414166867733
17722979811937,3.3518824577331543,-7.644686222076416,5.374982833862305,-0.006122165359556675,0.0228915736079216,-0.0162370465695858
17722981049050,3.378218650817871,-7.644686222076416,5.397727966308594,-0.007453070487827063,0.0215606689453125,-0.013309055007994175
17722982286150,3.4177229404449463,-7.675810813903809,5.364209175109863,-0.005057440605014563,0.0210283063352108,-0.010647243820130825
17722983523250,3.404554843902588,-7.662642478942871,5.364209175109863,-0.0031941730994731188,0.0228915736079216,-0.0186326764523983
17722984760337,3.362656354904175,-7.6746134757995605,5.39174222946167,-0.0029279920272529125,0.0276828333735466,-0.0173017717897892
17722985997450,3.3423056602478027,-7.68538761138916,5.33547830581665,-0.0039927163161337376,0.0204959437251091,-0.014906140975654125
17722987234550,3.318363666534424,-7.650671482086182,5.377377033233643,-0.0037265352439135313,0.0223592109978199,-0.01943122036755085
17722988471662,3.362656354904175,-7.706935405731201,5.416881561279297,-0.0007985432748682797,0.02022976242005825,-0.02076212503015995
17722989708750,3.384204149246216,-7.716512203216553,5.340266704559326,0.0013309054775163531,0.0181003138422966,-0.01703559048473835
17722990945825,3.3243491649627686,-7.68538761138916,5.373785972595215,0.0015970865497365594,0.0220930315554142,-0.01117960549890995
17722992182925,3.361459255218506,-7.700949668884277,5.349843502044678,0.0007985432748682797,0.01889885775744915,-0.0090501569211483
17722993420025,3.3686418533325195,-7.6985554695129395,5.3582234382629395,0.0005323622026480734,0.0252872034907341,-0.01410759799182415
17722994657137,3.3458969593048096,-7.679401874542236,5.378574371337891,-0.0021294488105922937,0.02661811001598835,-0.01224433071911335
17722995894237,3.337517261505127,-7.709329605102539,5.366603374481201,0.0,0.0247548408806324,-0.0114457868039608
17722997131350,3.3291375637054443,-7.706935405731201,5.34625244140625,0.0005323622026480734,0.0204959437251091,-0.014373779296875
17722998368425,3.3734302520751953,-7.734468460083008,5.317522048950195,-0.0029279920272529125,0.02315775491297245,-0.0114457868039608
17722999605525,3.3722331523895264,-7.682993412017822,5.336675643920898,-0.0039927163161337376,0.0247548408806324,-0.013309055007994175
17723000842625,3.357867956161499,-7.681796073913574,5.394136428833008,0.0031941730994731188,0.01996358297765255,-0.015172322280704975
17723002079725,3.3470940589904785,-7.710526466369629,5.374982833862305,0.0002661811013240367,0.0292799212038517,-0.0138414166867733
17723003316837,3.3518824577331543,-7.691372871398926,5.371391773223877,-0.0029279920272529125,0.02555338479578495,-0.005589802749454975
17723004553925,3.3674447536468506,-7.718906402587891,5.341464042663574,-0.0063883461989462376,0.02555338479578495,-0.007985432632267475
17723005791025,3.3865983486175537,-7.753622055053711,5.317522048950195,-0.0010647244052961469,0.0268842913210392,-0.0090501569211483
17723007028125,3.35667085647583,-7.736862659454346,5.370194435119629,-0.0013309054775163531,0.0228915736079216,-0.0119781494140625
17723008265225,3.357867956161499,-7.7201032638549805,5.342660903930664,-0.00692070834338665,0.0263519287109375,-0.01463996060192585
17723009502325,3.377021551132202,-7.736862659454346,5.373785972595215,-0.005057440605014563,0.0271504707634449,-0.01410759799182415
17723010739412,3.3435027599334717,-7.708132266998291,5.310339450836182,-0.008251613937318325,0.02369011752307415,-0.0114457868039608
17723011976525,3.3494882583618164,-7.754819393157959,5.3594207763671875,-0.00931633822619915,0.02422248013317585,-0.0114457868039608
17723013213625,3.3315317630767822,-7.718906402587891,5.349843502044678,-0.00692070834338665,0.0247548408806324,-0.01224433071911335
17723014450725,3.3291375637054443,-7.7416510581970215,5.351040840148926,-0.0063883461989462376,0.02262539230287075,-0.01463996060192585
17723015687812,3.3961751461029053,-7.736862659454346,5.341464042663574,-0.008783976547420025,0.0271504707634449,-0.01117960549890995
17723016924925,3.3722331523895264,-7.726089000701904,5.351040840148926,-0.0090501569211483,0.02874755859375,-0.0138414166867733
17723018162012,3.361459255218506,-7.712920665740967,5.341464042663574,-0.00452507846057415,0.023956298828125,-0.0114457868039608
17723019399112,3.3530795574188232,-7.700949668884277,5.329493045806885,-0.008783976547420025,0.0220930315554142,-0.0162370465695858
17723020636212,3.3435027599334717,-7.718906402587891,5.3330841064453125,-0.012510511092841625,0.0324740931391716,-0.01703559048473835
17723021873312,3.400963544845581,-7.709329605102539,5.35702657699585,-0.0053236219100654125,0.02502102218568325,-0.01597086526453495
17723023110437,3.4536359310150146,-7.716512203216553,5.3582234382629395,-0.0039927163161337376,0.02608574740588665,-0.015172322280704975
17723024347512,3.400963544845581,-7.703343868255615,5.342660903930664,-0.0071868896484375,0.02741665206849575,-0.015438503585755825
17723025584612,3.399766445159912,-7.702147006988525,5.34744930267334,-0.007453070487827063,0.0252872034907341,-0.012776692397892475
17723026821712,3.4177229404449463,-7.677007675170898,5.330689907073975,-0.01117960549890995,0.0282151959836483,-0.0119781494140625
17723028058825,3.423708438873291,-7.671022415161133,5.354632377624512,-0.01410759799182415,0.02874755859375,-0.014906140975654125
17723029295900,3.427299737930298,-7.693767070770264,5.39054536819458,-0.00958251953125,0.0268842913210392,-0.01224433071911335
17723030533000,3.444059133529663,-7.6782050132751465,5.389348030090332,-0.005589802749454975,0.023956298828125,-0.01410759799182415
17723031770112,3.446453332901001,-7.63989782333374,5.374982833862305,-0.008251613937318325,0.0263519287109375,-0.015438503585755825
17723033007212,3.3901896476745605,-7.669825077056885,5.3342814445495605,-0.0071868896484375,0.0271504707634449,-0.014373779296875
17723034244312,3.4320881366729736,-7.665036678314209,5.372588634490967,-0.0077192517928779125,0.02555338479578495,-0.01224433071911335
17723035481400,3.4117374420166016,-7.659051418304443,5.410895824432373,-0.008517795242369175,0.02369011752307415,-0.012510511092841625
17723036718500,3.4620156288146973,-7.654263019561768,5.384559631347656,-0.0114457868039608,0.02741665206849575,-0.00931633822619915
17723037955587,3.471592426300049,-7.696161270141602,5.400122165679932,-0.008783976547420025,0.02848137728869915,-0.012776692397892475
17723039192712,3.4404678344726562,-7.65186882019043,5.372588634490967,-0.00692070834338665,0.02502102218568325,-0.0162370465695858
17723040429812,3.4404678344726562,-7.655459880828857,5.386953830718994,-0.0039927163161337376,0.0220930315554142,-0.0071868896484375
17723041666900,3.4189200401306152,-7.663839817047119,5.377377033233643,-0.003460354171693325,0.0196974016726017,-0.007453070487827063
17723042903987,3.4380736351013184,-7.688978672027588,5.4240641593933105,-0.0005323622026480734,0.02076212503015995,-0.00958251953125
17723044141100,3.4368765354156494,-7.687781810760498,5.355829238891602,-0.0037265352439135313,0.02315775491297245,-0.00958251953125
17723045378212,3.4344823360443115,-7.690176010131836,5.419275760650635,-0.007453070487827063,0.0244886614382267,-0.008517795242369175
17723046615287,3.4093432426452637,-7.682993412017822,5.415684223175049,-0.0005323622026480734,0.0204959437251091,-0.00958251953125
17723047852375,3.399766445159912,-7.691372871398926,5.389348030090332,0.0,0.0196974016726017,-0.010381062515079975
17723049089487,3.426102638244629,-7.715314865112305,5.398924827575684,-0.0005323622026480734,0.0196974016726017,-0.008251613937318325
17723050326587,3.4332852363586426,-7.733271598815918,5.361814975738525,-0.0114457868039608,0.0247548408806324,-0.01410759799182415
17723051563675,3.441664934158325,-7.7428483963012695,5.34625244140625,-0.005057440605014563,0.02262539230287075,-0.0114457868039608
17723052800787,3.422511339187622,-7.714118003845215,5.353435039520264,-0.0021294488105922937,0.02315775491297245,-0.005855984054505825
17723054037887,3.3937809467315674,-7.712920665740967,5.396530628204346,0.0002661811013240367,0.01889885775744915,-0.007985432632267475
17723055275000,3.4117374420166016,-7.709329605102539,5.410895824432373,-0.0037265352439135313,0.01783413253724575,-0.008783976547420025
17723056512087,3.469198226928711,-7.706935405731201,5.4252610206604,-0.0042588976211845875,0.02022976242005825,-0.00958251953125
17723057749187,3.44765043258667,-7.702147006988525,5.3809685707092285,-0.0029279920272529125,0.01889885775744915,-0.01117960549890995
17723058986300,3.421314239501953,-7.706935405731201,5.3594207763671875,-0.0029279920272529125,0.0167694091796875,-0.0090501569211483
17723060223375,3.4189200401306152,-7.700949668884277,5.343858242034912,-0.0039927163161337376,0.01836649514734745,-0.005589802749454975
17723061460487,3.464409828186035,-7.673416614532471,5.355829238891602,-0.0002661811013240367,0.01703559048473835,-0.0042588976211845875
17723062697575,3.4799721240997314,-7.644686222076416,5.383362770080566,-0.0026618109550327063,0.010913425125181675,-0.0023956298828125
17723063934675,3.4560301303863525,-7.682993412017822,5.442020416259766,-0.0010647244052961469,0.0138414166867733,-0.005057440605014563
17723065171775,3.4727895259857178,-7.64109468460083,5.3797712326049805,0.0031941730994731188,0.0114457868039608,-0.0053236219100654125
17723066408887,3.450044631958008,-7.6782050132751465,5.366603374481201,0.0026618109550327063,0.01224433071911335,-0.0023956298828125
17723067646000,3.4775779247283936,-7.649474620819092,5.432443618774414,0.0010647244052961469,0.01357523538172245,-0.0018632676219567657
17723068883087,3.5218706130981445,-7.630321025848389,5.368997573852539,0.005589802749454975,0.01171196810901165,-0.0023956298828125
17723070120175,3.468001127243042,-7.644686222076416,5.389348030090332,0.00452507846057415,0.0162370465695858,-0.0037265352439135313
17723071357287,3.4596214294433594,-7.654263019561768,5.419275760650635,0.008517795242369175,0.0138414166867733,-0.0005323622026480734
17723072594375,3.4572272300720215,-7.684190273284912,5.438429355621338,0.00931633822619915,0.0090501569211483,0.0037265352439135313
17723073831475,3.4332852363586426,-7.715314865112305,5.400122165679932,0.0071868896484375,0.007985432632267475,-0.0010647244052961469
17723075068587,3.427299737930298,-7.717709064483643,5.39174222946167,0.0077192517928779125,0.010381062515079975,0.0
17723076305675,3.494337320327759,-7.688978672027588,5.443217754364014,0.010381062515079975,0.008251613937318325,-0.0005323622026480734
17723077542787,3.4380736351013184,-7.739256858825684,5.408501625061035,0.006122165359556675,0.010114881210029125,0.0005323622026480734
17723078779875,3.421314239501953,-7.723694801330566,5.394136428833008,0.0090501569211483,0.00692070834338665,0.0066545275039970875
17723080016975,3.444059133529663,-7.734468460083008,5.404910564422607,0.0119781494140625,0.0013309054775163531,0.010381062515079975
17723081254050,3.4308910369873047,-7.690176010131836,5.397727966308594,0.0039927163161337376,0.0031941730994731188,0.003460354171693325
17723082491175,3.4823663234710693,-7.734468460083008,5.389348030090332,0.0039927163161337376,0.0071868896484375,0.005855984054505825
17723083728275,3.507505416870117,-7.710526466369629,5.430049419403076,0.013309055007994175,0.0042588976211845875,0.0063883461989462376
17723084965375,3.4584243297576904,-7.722497463226318,5.3797712326049805,0.00931633822619915,0.0031941730994731188,0.005855984054505825
17723086202475,3.4548330307006836,-7.728483200073242,5.366603374481201,0.0114457868039608,0.00692070834338665,0.008251613937318325
17723087439587,3.466804027557373,-7.700949668884277,5.404910564422607,0.01463996060192585,0.0,0.0090501569211483
17723088676675,3.4835634231567383,-7.690176010131836,5.408501625061035,0.0066545275039970875,0.0007985432748682797,0.007985432632267475
17723089913762,3.5015199184417725,-7.690176010131836,5.367800235748291,0.00984870083630085,0.0013309054775163531,0.0077192517928779125
17723091150875,3.464409828186035,-7.709329605102539,5.4025163650512695,0.012776692397892475,-0.0015970865497365594,0.0029279920272529125
17723092387962,3.4524388313293457,-7.747636795043945,5.3809685707092285,0.01171196810901165,-0.004791259765625,0.0026618109550327063
17723093625075,3.4584243297576904,-7.751227855682373,5.349843502044678,0.007985432632267475,0.0005323622026480734,0.0021294488105922937
17723094862162,3.4165258407592773,-7.77756404876709,5.418078422546387,0.004791259765625,-0.0023956298828125,0.0018632676219567657
17723096099250,3.466804027557373,-7.800309181213379,5.407304763793945,0.00452507846057415,-0.0037265352439135313,0.0039927163161337376
17723097336375,3.444059133529663,-7.748833656311035,5.372588634490967,-0.0005323622026480734,0.004791259765625,-0.0029279920272529125
17723098573462,3.378218650817871,-7.773972988128662,5.388151168823242,0.005855984054505825,-0.0007985432748682797,0.0013309054775163531
17723099810550,3.403357744216919,-7.778761386871338,5.395333766937256,0.0063883461989462376,-0.0023956298828125,0.0053236219100654125
17723101047662,3.3854012489318848,-7.760804653167725,5.395333766937256,0.005589802749454975,-0.0018632676219567657,-0.0015970865497365594
17723102284762,3.4548330307006836,-7.769184589385986,5.416881561279297,0.0039927163161337376,-0.0039927163161337376,-0.0005323622026480734
17723103521850,3.4308910369873047,-7.7655930519104,5.414487361907959,0.0039927163161337376,-0.00931633822619915,-0.00452507846057415
17723104758950,3.40216064453125,-7.758410453796387,5.4240641593933105,-0.0037265352439135313,-0.0007985432748682797,-0.004791259765625
17723105996075,3.406949043273926,-7.7871413230896,5.418078422546387,-0.0005323622026480734,-0.0015970865497365594,-0.0015970865497365594
17723107233162,3.427299737930298,-7.747636795043945,5.404910564422607,0.0010647244052961469,-0.00452507846057415,-0.0063883461989462376
17723108470262,3.463212728500366,-7.7895355224609375,5.398924827575684,-0.005057440605014563,-0.0053236219100654125,-0.0071868896484375
17723109707362,3.444059133529663,-7.750030994415283,5.385756969451904,-0.0005323622026480734,-0.0018632676219567657,-0.0077192517928779125
17723110944462,3.450044631958008,-7.722497463226318,5.374982833862305,-0.0015970865497365594,-0.0063883461989462376,-0.010913425125181675
17723112181562,3.444059133529663,-7.751227855682373,5.368997573852539,-0.0005323622026480734,-0.00452507846057415,-0.00984870083630085
17723113418650,3.403357744216919,-7.728483200073242,5.39054536819458,-0.0010647244052961469,-0.0042588976211845875,-0.004791259765625
17723114655762,3.442862033843994,-7.672219276428223,5.430049419403076,-0.005057440605014563,-0.008517795242369175,-0.010114881210029125
17723115892850,3.4177229404449463,-7.706935405731201,5.404910564422607,-0.00452507846057415,-0.005855984054505825,-0.00931633822619915
17723117129962,3.4572272300720215,-7.68658447265625,5.461174011230469,-0.0026618109550327063,-0.005057440605014563,-0.006122165359556675
17723118367050,3.3961751461029053,-7.68538761138916,5.419275760650635,-0.003460354171693325,-0.00692070834338665,-0.0066545275039970875
17723119604150,3.466804027557373,-7.661445617675781,5.388151168823242,-0.0005323622026480734,-0.0071868896484375,-0.0007985432748682797
17723120841250,3.450044631958008,-7.682993412017822,5.427655220031738,-0.0026618109550327063,-0.0071868896484375,-0.0063883461989462376
17723122078350,3.463212728500366,-7.626729488372803,5.398924827575684,-0.0031941730994731188,-0.0071868896484375,-0.0063883461989462376
17723123315450,3.4584243297576904,-7.618350028991699,5.428852558135986,-0.004791259765625,-0.01117960549890995,-0.0031941730994731188
17723124552550,3.4081461429595947,-7.60637903213501,5.386953830718994,0.0013309054775163531,-0.008783976547420025,0.003460354171693325
17723125789637,3.4368765354156494,-7.624335289001465,5.428852558135986,-0.0013309054775163531,-0.0119781494140625,-0.008251613937318325
17723127026737,3.4189200401306152,-7.619546890258789,5.367800235748291,0.0002661811013240367,-0.01224433071911335,-0.005057440605014563
17723128263850,3.4823663234710693,-7.620744228363037,5.383362770080566,-0.0002661811013240367,-0.0077192517928779125,-0.0002661811013240367
17723129500950,3.44765043258667,-7.630321025848389,5.383362770080566,0.003460354171693325,-0.012510511092841625,0.0007985432748682797
17723130738050,3.428496837615967,-7.596802234649658,5.345055103302002,0.0026618109550327063,-0.010381062515079975,-0.0037265352439135313
17723131975150,3.4727895259857178,-7.617152690887451,5.364209175109863,0.0013309054775163531,-0.012510511092841625,0.0042588976211845875
17723133212250,3.468001127243042,-7.636306285858154,5.348646640777588,0.0023956298828125,-0.014373779296875,0.005855984054505825
17723134449350,3.441664934158325,-7.643488883972168,5.3809685707092285,0.0071868896484375,-0.0119781494140625,0.007985432632267475
17723135686450,3.40216064453125,-7.642292022705078,5.368997573852539,0.007453070487827063,-0.00984870083630085,0.00958251953125
17723136923550,3.4368765354156494,-7.647080421447754,5.368997573852539,0.0002661811013240367,-0.007453070487827063,0.0026618109550327063
17723138160637,3.427299737930298,-7.632715225219727,5.378574371337891,0.004791259765625,-0.012776692397892475,0.0013309054775163531
17723139397750,3.4081461429595947,-7.6351094245910645,5.392939567565918,0.0018632676219567657,-0.01463996060192585,0.0023956298828125
17723140634862,3.4189200401306152,-7.608773231506348,5.374982833862305,0.005855984054505825,-0.01703559048473835,0.0023956298828125
17723141871950,3.4117374420166016,-7.647080421447754,5.363011837005615,0.0090501569211483,-0.01783413253724575,0.00692070834338665
17723143109050,3.405751943588257,-7.632715225219727,5.377377033233643,0.01117960549890995,-0.0138414166867733,0.008251613937318325
17723144346125,3.384204149246216,-7.615955829620361,5.3797712326049805,0.01171196810901165,-0.012510511092841625,0.0013309054775163531
17723145583262,3.3518824577331543,-7.665036678314209,5.386953830718994,0.01357523538172245,-0.01224433071911335,0.0042588976211845875
17723146820337,3.3913867473602295,-7.642292022705078,5.416881561279297,0.01650322787463665,-0.0173017717897892,0.008251613937318325
17723148057450,3.398569345474243,-7.714118003845215,5.421669960021973,0.012510511092841625,-0.0173017717897892,0.00692070834338665
17723149294550,3.3662476539611816,-7.669825077056885,5.367800235748291,0.010913425125181675,-0.01756795309484005,0.008251613937318325
17723150531662,3.3949780464172363,-7.6746134757995605,5.394136428833008,0.010381062515079975,-0.015438503585755825,0.008517795242369175
17723151768737,3.375824451446533,-7.681796073913574,5.377377033233643,0.00931633822619915,-0.015172322280704975,0.0066545275039970875
17723153005825,3.4308910369873047,-7.692570209503174,5.352238178253174,0.0071868896484375,-0.01463996060192585,0.00931633822619915
17723154242912,3.4320881366729736,-7.675810813903809,5.368997573852539,0.00958251953125,-0.01224433071911335,0.0090501569211483
17723155480050,3.4141316413879395,-7.691372871398926,5.407304763793945,0.01756795309484005,-0.01463996060192585,0.010381062515079975
17723156717137,3.3650505542755127,-7.63989782333374,5.365406036376953,0.014373779296875,-0.01650322787463665,0.010913425125181675
17723157954225,3.40216064453125,-7.667430877685547,5.368997573852539,0.0138414166867733,-0.013309055007994175,0.00931633822619915
17723159191350,3.383007049560547,-7.638700485229492,5.382165431976318,0.01357523538172245,-0.014373779296875,0.00984870083630085
17723160428437,3.397372245788574,-7.6566572189331055,5.412093162536621,0.015172322280704975,-0.012510511092841625,0.007453070487827063
17723161665537,3.4105403423309326,-7.637503623962402,5.408501625061035,0.012510511092841625,-0.01357523538172245,0.010114881210029125
17723162902637,3.37941575050354,-7.679401874542236,5.383362770080566,0.0114457868039608,-0.01836649514734745,0.010647243820130825
17723164139725,3.3638534545898438,-7.663839817047119,5.414487361907959,0.010913425125181675,-0.01597086526453495,0.010647243820130825
17723165376812,3.339911460876465,-7.647080421447754,5.388151168823242,0.01463996060192585,-0.01650322787463665,0.003460354171693325
17723166613950,3.403357744216919,-7.6530656814575195,5.4228668212890625,0.0181003138422966,-0.0173017717897892,0.00958251953125
17723167851025,3.3638534545898438,-7.621941089630127,5.373785972595215,0.012510511092841625,-0.013309055007994175,0.008783976547420025
17723169088125,3.378218650817871,-7.665036678314209,5.39174222946167,0.00931633822619915,-0.01171196810901165,0.00931633822619915
17723170325237,3.3746273517608643,-7.673416614532471,5.382165431976318,0.01410759799182415,-0.015172322280704975,0.008783976547420025
17723171562325,3.377021551132202,-7.671022415161133,5.397727966308594,0.01597086526453495,-0.0090501569211483,0.007985432632267475
17723172799425,3.336320161819458,-7.6530656814575195,5.374982833862305,0.0181003138422966,-0.0090501569211483,0.010114881210029125
17723174036525,3.33392596244812,-7.645883083343506,5.413290023803711,0.0090501569211483,-0.010381062515079975,0.00984870083630085
17723175273625,3.3854012489318848,-7.643488883972168,5.39054536819458,0.0162370465695858,-0.013042873702943325,0.013309055007994175
17723176510725,3.375824451446533,-7.6530656814575195,5.4013190269470215,0.01650322787463665,-0.01357523538172245,0.010114881210029125
17723177747825,3.381809949874878,-7.694964408874512,5.373785972595215,0.014373779296875,-0.0114457868039608,0.0071868896484375
17723178984937,3.3650505542755127,-7.630321025848389,5.3330841064453125,0.0157046839594841,-0.01224433071911335,0.00692070834338665
17723180222025,3.383007049560547,-7.633912086486816,5.383362770080566,0.014906140975654125,-0.010114881210029125,0.010647243820130825
17723181459125,3.3698389530181885,-7.619546890258789,5.384559631347656,0.01410759799182415,-0.013042873702943325,0.008251613937318325
17723182696225,3.3698389530181885,-7.6099700927734375,5.394136428833008,0.01650322787463665,-0.0077192517928779125,0.0029279920272529125
17723183933325,3.3674447536468506,-7.613561630249023,5.400122165679932,0.0138414166867733,-0.00984870083630085,0.01171196810901165
17723185170437,3.3901896476745605,-7.637503623962402,5.414487361907959,0.01889885775744915,-0.00931633822619915,0.0077192517928779125
17723186407512,3.4548330307006836,-7.636306285858154,5.368997573852539,0.0191650390625,-0.0114457868039608,0.0021294488105922937
17723187644612,3.442862033843994,-7.625532627105713,5.383362770080566,0.0173017717897892,-0.007453070487827063,0.0063883461989462376
17723188881700,3.4105403423309326,-7.6530656814575195,5.4228668212890625,0.014906140975654125,-0.0039927163161337376,0.0077192517928779125
17723190118812,3.3925838470458984,-7.59440803527832,5.406107425689697,0.01463996060192585,-0.010647243820130825,0.008783976547420025
17723191355937,3.399766445159912,-7.5884222984313965,5.418078422546387,0.01756795309484005,-0.01117960549890995,0.0042588976211845875
17723192593025,3.4165258407592773,-7.63989782333374,5.39174222946167,0.0186326764523983,-0.00958251953125,0.003460354171693325
17723193830112,3.421314239501953,-7.626729488372803,5.394136428833008,0.01783413253724575,-0.00984870083630085,0.0026618109550327063
17723195067225,3.397372245788574,-7.637503623962402,5.396530628204346,0.0191650390625,-0.00692070834338665,0.0013309054775163531
17723196304312,3.404554843902588,-7.619546890258789,5.4013190269470215,0.02022976242005825,-0.0071868896484375,0.005855984054505825
17723197541412,3.384204149246216,-7.647080421447754,5.4228668212890625,0.01756795309484005,-0.010913425125181675,0.006122165359556675
17723198778525,3.3854012489318848,-7.597999095916748,5.3797712326049805,0.01836649514734745,-0.007985432632267475,0.0015970865497365594
17723200015612,3.4548330307006836,-7.575254440307617,5.395333766937256,0.02022976242005825,-0.010381062515079975,0.0021294488105922937
17723201252712,3.4141316413879395,-7.612364292144775,5.446808815002441,0.0228915736079216,-0.014906140975654125,0.0018632676219567657
17723202489800,3.4081461429595947,-7.626729488372803,5.404910564422607,0.0220930315554142,-0.01224433071911335,0.003460354171693325
17723203726925,3.428496837615967,-7.625532627105713,5.409698963165283,0.0268842913210392,-0.0077192517928779125,0.007985432632267475
17723204964000,3.445256233215332,-7.624335289001465,5.4480061531066895,0.0276828333735466,-0.010381062515079975,0.00692070834338665
17723206201112,3.4620156288146973,-7.59560489654541,5.430049419403076,0.0247548408806324,-0.00958251953125,0.0063883461989462376
17723207438212,3.426102638244629,-7.630321025848389,5.421669960021973,0.0258195661008358,-0.0138414166867733,0.01410759799182415
17723208675312,3.4356794357299805,-7.626729488372803,5.431246757507324,0.02182685025036335,-0.006122165359556675,0.007453070487827063
17723209912412,3.4596214294433594,-7.6315178871154785,5.376180171966553,0.02315775491297245,-0.00692070834338665,0.005589802749454975
17723211149512,3.446453332901001,-7.620744228363037,5.4240641593933105,0.02661811001598835,-0.010381062515079975,0.0077192517928779125
17723212386612,3.4787750244140625,-7.596802234649658,5.4444146156311035,0.0300784632563591,-0.0119781494140625,0.0066545275039970875
17723213623712,3.4608185291290283,-7.617152690887451,5.451597213745117,0.0276828333735466,-0.012510511092841625,0.0018632676219567657
17723214860800,3.44765043258667,-7.621941089630127,5.453991413116455,0.02608574740588665,-0.010114881210029125,0.0029279920272529125
17723216097912,3.4512417316436768,-7.64109468460083,5.408501625061035,0.0268842913210392,-0.010114881210029125,0.005057440605014563
17723217335000,3.448847532272339,-7.636306285858154,5.438429355621338,0.0258195661008358,-0.0114457868039608,0.0021294488105922937
17723218572100,3.445256233215332,-7.620744228363037,5.43603515625,0.0268842913210392,-0.0114457868039608,-0.0007985432748682797
17723219809212,3.4332852363586426,-7.6111674308776855,5.404910564422607,0.02555338479578495,-0.00958251953125,0.0031941730994731188
17723221046312,3.44765043258667,-7.645883083343506,5.475539207458496,0.02502102218568325,-0.01224433071911335,0.0023956298828125
17723222283425,3.3889925479888916,-7.6315178871154785,5.430049419403076,0.02794901467859745,-0.0167694091796875,0.006122165359556675
17723223520525,3.398569345474243,-7.620744228363037,5.378574371337891,0.02901373989880085,-0.0167694091796875,0.008251613937318325
17723224757612,3.42490553855896,-7.630321025848389,5.419275760650635,0.0292799212038517,-0.013309055007994175,0.0042588976211845875
17723225994700,3.4093432426452637,-7.667430877685547,5.403713226318359,0.0276828333735466,-0.015438503585755825,0.008251613937318325
17723227231800,3.4129345417022705,-7.657854080200195,5.406107425689697,0.0340711809694767,-0.0157046839594841,0.007985432632267475
17723228468900,3.4320881366729736,-7.688978672027588,5.39054536819458,0.0306108258664608,-0.01463996060192585,0.0077192517928779125
17723229706000,3.4620156288146973,-7.6746134757995605,5.438429355621338,0.0314093679189682,-0.01597086526453495,0.0071868896484375
17723230943100,3.422511339187622,-7.671022415161133,5.426458358764648,0.0306108258664608,-0.01463996060192585,0.007985432632267475
17723232180212,3.4620156288146973,-7.684190273284912,5.427655220031738,0.0244886614382267,-0.0181003138422966,0.003460354171693325
17723233417300,3.4165258407592773,-7.6530656814575195,5.378574371337891,0.02369011752307415,-0.01703559048473835,0.0026618109550327063
17723234654425,3.4596214294433594,-7.665036678314209,5.407304763793945,0.0300784632563591,-0.01836649514734745,0.0053236219100654125
17723235891500,3.383007049560547,-7.671022415161133,5.443217754364014,0.0314093679189682,-0.02262539230287075,0.005855984054505825
17723237128612,3.441664934158325,-7.693767070770264,5.438429355621338,0.03034464456140995,-0.0210283063352108,0.0053236219100654125
17723238365687,3.4129345417022705,-7.682993412017822,5.456385612487793,0.02608574740588665,-0.01703559048473835,-0.0002661811013240367
17723239602800,3.4536359310150146,-7.669825077056885,5.453991413116455,0.0258195661008358,-0.0191650390625,0.0042588976211845875
17723240839912,3.4368765354156494,-7.692570209503174,5.4240641593933105,0.03034464456140995,-0.02182685025036335,0.0066545275039970875
17723242076987,3.4512417316436768,-7.659051418304443,5.458779811859131,0.02901373989880085,-0.02076212503015995,0.0090501569211483
17723243314125,3.465606927871704,-7.669825077056885,5.410895824432373,0.0300784632563591,-0.0167694091796875,0.0077192517928779125
17723244551200,3.491943120956421,-7.691372871398926,5.445611953735352,0.0282151959836483,-0.02502102218568325,0.005855984054505825
17723245788300,3.4344823360443115,-7.679401874542236,5.458779811859131,0.02661811001598835,-0.02182685025036335,0.005589802749454975
17723247025412,3.406949043273926,-7.677007675170898,5.480327606201172,0.03087700717151165,-0.02022976242005825,0.0037265352439135313
17723248262500,3.441664934158325,-7.700949668884277,5.47075080871582,0.0295461006462574,-0.02422248013317585,0.0005323622026480734
17723249499600,3.427299737930298,-7.709329605102539,5.471948146820068,0.03087700717151165,-0.0196974016726017,0.0063883461989462376
17723250736700,3.445256233215332,-7.700949668884277,5.416881561279297,0.0263519287109375,-0.0196974016726017,0.0071868896484375
17723251973800,3.4572272300720215,-7.696161270141602,5.421669960021973,0.02608574740588665,-0.0223592109978199,0.005589802749454975
17723253210887,3.4763808250427246,-7.738059997558594,5.428852558135986,0.02741665206849575,-0.02369011752307415,0.00958251953125
17723254448000,3.448847532272339,-7.717709064483643,5.443217754364014,0.0247548408806324,-0.02129448764026165,0.0090501569211483
17723255685087,3.450044631958008,-7.6997528076171875,5.4695539474487305,0.02848137728869915,-0.03034464456140995,0.004791259765625
17723256922200,3.4081461429595947,-7.729680061340332,5.463568210601807,0.02874755859375,-0.0234239362180233,0.005589802749454975
17723258159287,3.4117374420166016,-7.688978672027588,5.473145008087158,0.02555338479578495,-0.0263519287109375,0.005057440605014563
17723259396387,3.444059133529663,-7.709329605102539,5.48272180557251,0.02315775491297245,-0.0316755510866642,0.008783976547420025
17723260633487,3.4620156288146973,-7.691372871398926,5.504269599914551,0.02608574740588665,-0.02741665206849575,0.005855984054505825
17723261870600,3.4165258407592773,-7.708132266998291,5.471948146820068,0.0295461006462574,-0.0223592109978199,0.005589802749454975
17723263107712,3.4344823360443115,-7.7201032638549805,5.43723201751709,0.0268842913210392,-0.0244886614382267,0.005057440605014563
17723264344800,3.4392707347869873,-7.736862659454346,5.476736545562744,0.02555338479578495,-0.0252872034907341,0.005057440605014563
17723265581912,3.4548330307006836,-7.735665798187256,5.4444146156311035,0.02555338479578495,-0.02608574740588665,0.0071868896484375
17723266818987,3.42490553855896,-7.709329605102539,5.4911017417907715,0.02661811001598835,-0.023956298828125,0.00692070834338665
17723268056087,3.4332852363586426,-7.709329605102539,5.428852558135986,0.02794901467859745,-0.0258195661008358,0.0037265352439135313
17723269293187,3.4584243297576904,-7.709329605102539,5.475539207458496,0.02981228195130825,-0.0300784632563591,0.00984870083630085
17723270530300,3.445256233215332,-7.706935405731201,5.468356609344482,0.0215606689453125,-0.02848137728869915,0.00692070834338665
17723271767387,3.4368765354156494,-7.700949668884277,5.510255336761475,0.0223592109978199,-0.0295461006462574,0.008251613937318325
17723273004487,3.406949043273926,-7.728483200073242,5.479130744934082,0.02848137728869915,-0.02794901467859745,0.0114457868039608
17723274241600,3.4368765354156494,-7.711723804473877,5.471948146820068,0.02422248013317585,-0.0271504707634449,0.0077192517928779125
17723275478700,3.446453332901001,-7.73207426071167,5.474342346191406,0.0210283063352108,-0.0306108258664608,0.008251613937318325
17723276715800,3.4560301303863525,-7.736862659454346,5.488707542419434,0.0247548408806324,-0.0292799212038517,0.007985432632267475
17723277952900,3.4105403423309326,-7.712920665740967,5.477933406829834,0.0234239362180233,-0.0292799212038517,0.0114457868039608
17723279189987,3.4392707347869873,-7.706935405731201,5.518634796142578,0.0247548408806324,-0.03087700717151165,0.003460354171693325
17723280427100,3.3877954483032227,-7.718906402587891,5.497087001800537,0.02076212503015995,-0.0295461006462574,0.008783976547420025
17723281664175,3.399766445159912,-7.722497463226318,5.48272180557251,0.0234239362180233,-0.02502102218568325,0.00931633822619915
17723282901287,3.42490553855896,-7.700949668884277,5.547365188598633,0.0247548408806324,-0.033272635191679,0.0138414166867733
17723284138400,3.450044631958008,-7.734468460083008,5.503072738647461,0.01943122036755085,-0.0306108258664608,0.0162370465695858
17723285375487,3.427299737930298,-7.736862659454346,5.483919143676758,0.0157046839594841,-0.02741665206849575,0.00958251953125
17723286612587,3.4296939373016357,-7.704541206359863,5.485116004943848,0.01703559048473835,-0.0295461006462574,0.012510511092841625
17723287849700,3.422511339187622,-7.771578788757324,5.453991413116455,0.01703559048473835,-0.0295461006462574,0.012510511092841625
17723289086800,3.384204149246216,-7.7428483963012695,5.488707542419434,0.0181003138422966,-0.02741665206849575,0.0119781494140625
17723290323887,3.422511339187622,-7.718906402587891,5.446808815002441,0.01597086526453495,-0.02741665206849575,0.010913425125181675
17723291561000,3.446453332901001,-7.735665798187256,5.453991413116455,0.0181003138422966,-0.0306108258664608,0.010381062515079975
17723292798075,3.3937809467315674,-7.758410453796387,5.449203014373779,0.0181003138422966,-0.02848137728869915,0.0138414166867733
17723294035187,3.4189200401306152,-7.750030994415283,5.48152494430542,0.010114881210029125,-0.0268842913210392,0.01357523538172245
17723295272300,3.404554843902588,-7.775169849395752,5.504269599914551,0.01224433071911335,-0.0314093679189682,0.01410759799182415
17723296509387,3.3877954483032227,-7.740454196929932,5.495890140533447,0.013309055007994175,-0.02874755859375,0.01463996060192585
17723297746512,3.397372245788574,-7.7428483963012695,5.473145008087158,0.01171196810901165,-0.02661811001598835,0.00958251953125
17723298983587,3.380612850189209,-7.734468460083008,5.488707542419434,0.015172322280704975,-0.0268842913210392,0.012776692397892475
17723300220687,3.4296939373016357,-7.762001991271973,5.489904403686523,0.0162370465695858,-0.0292799212038517,0.0138414166867733
17723301457787,3.3877954483032227,-7.739256858825684,5.499481201171875,0.0090501569211483,-0.02608574740588665,0.0114457868039608
17723302694900,3.3961751461029053,-7.7643961906433105,5.4911017417907715,0.00692070834338665,-0.02794901467859745,0.01463996060192585
17723303931975,3.4596214294433594,-7.815871715545654,5.47075080871582,0.008251613937318325,-0.0263519287109375,0.01357523538172245
17723305169100,3.403357744216919,-7.77756404876709,5.499481201171875,0.010913425125181675,-0.0252872034907341,0.0157046839594841
17723306406200,3.405751943588257,-7.783549785614014,5.495890140533447,0.00692070834338665,-0.0223592109978199,0.01410759799182415
17723307643287,3.3865983486175537,-7.7643961906433105,5.494692802429199,0.007453070487827063,-0.02555338479578495,0.0138414166867733
17723308880400,3.4105403423309326,-7.744045257568359,5.507861137390137,0.003460354171693325,-0.02422248013317585,0.01463996060192585
17723310117500,3.4165258407592773,-7.760804653167725,5.492298603057861,-0.0015970865497365594,-0.02315775491297245,0.01597086526453495
17723311354600,3.377021551132202,-7.779958248138428,5.4444146156311035,0.0021294488105922937,-0.0215606689453125,0.013309055007994175
17723312591687,3.3865983486175537,-7.7655930519104,5.433640956878662,0.0066545275039970875,-0.02369011752307415,0.0138414166867733
17723313828787,3.3722331523895264,-7.794323921203613,5.4659624099731445,0.003460354171693325,-0.02262539230287075,0.0186326764523983
17723315065912,3.3734302520751953,-7.7763671875,5.462371349334717,-0.0023956298828125,-0.0191650390625,0.01836649514734745
17723316302987,3.4105403423309326,-7.757213592529297,5.477933406829834,-0.0023956298828125,-0.02076212503015995,0.01650322787463665
17723317540075,3.40216064453125,-7.736862659454346,5.500678539276123,0.0018632676219567657,-0.0204959437251091,0.0223592109978199
17723318777200,3.4105403423309326,-7.751227855682373,5.47075080871582,-0.0007985432748682797,-0.01410759799182415,0.0191650390625
17723320014287,3.3865983486175537,-7.7416510581970215,5.4695539474487305,-0.0039927163161337376,-0.0157046839594841,0.0181003138422966
17723321251412,3.400963544845581,-7.7643961906433105,5.462371349334717,-0.003460354171693325,-0.0204959437251091,0.02022976242005825
17723322488500,3.37941575050354,-7.778761386871338,5.505466938018799,-0.0023956298828125,-0.01703559048473835,0.01463996060192585
17723323725612,3.383007049560547,-7.723694801330566,5.480327606201172,0.0002661811013240367,-0.02076212503015995,0.01836649514734745
17723324962700,3.3746273517608643,-7.718906402587891,5.4480061531066895,-0.0007985432748682797,-0.0181003138422966,0.0276828333735466
17723326199800,3.3937809467315674,-7.722497463226318,5.4444146156311035,0.0013309054775163531,-0.01756795309484005,0.0292799212038517
17723327436912,3.377021551132202,-7.73207426071167,5.519832134246826,-0.0015970865497365594,-0.02076212503015995,0.02981228195130825
17723328674000,3.355473756790161,-7.7416510581970215,5.4659624099731445,-0.0015970865497365594,-0.01357523538172245,0.0271504707634449
17723329911087,3.3949780464172363,-7.739256858825684,5.463568210601807,-0.0010647244052961469,-0.01171196810901165,0.0276828333735466
17723331148212,3.383007049560547,-7.714118003845215,5.449203014373779,-0.0071868896484375,-0.015172322280704975,0.0263519287109375
17723332385312,3.3698389530181885,-7.705738067626953,5.421669960021973,-0.00452507846057415,-0.015438503585755825,0.0311431884765625
17723333622400,3.3255462646484375,-7.709329605102539,5.452794551849365,-0.0042588976211845875,-0.013042873702943325,0.0322079136967659
17723334859512,3.3710360527038574,-7.659051418304443,5.396530628204346,-0.0063883461989462376,-0.010913425125181675,0.03034464456140995
17723336096600,3.37941575050354,-7.724891662597656,5.445611953735352,-0.007453070487827063,-0.01171196810901165,0.02502102218568325
17723337333712,3.3889925479888916,-7.710526466369629,5.462371349334717,-0.005589802749454975,-0.014373779296875,0.0324740931391716
17723338570800,3.3722331523895264,-7.694964408874512,5.4240641593933105,-0.0029279920272529125,-0.014373779296875,0.033538818359375
17723339807900,3.400963544845581,-7.69735860824585,5.415684223175049,-0.0037265352439135313,-0.01463996060192585,0.0316755510866642
17723341044987,3.403357744216919,-7.688978672027588,5.392939567565918,-0.0119781494140625,-0.0090501569211483,0.0338049978017807
17723342282112,3.3877954483032227,-7.692570209503174,5.432443618774414,-0.00984870083630085,-0.008783976547420025,0.0314093679189682
17723343519212,3.357867956161499,-7.692570209503174,5.407304763793945,-0.008517795242369175,-0.0090501569211483,0.0324740931391716
17723344756300,3.378218650817871,-7.68538761138916,5.421669960021973,-0.010114881210029125,-0.010114881210029125,0.0372653529047966
17723345993400,3.405751943588257,-7.712920665740967,5.451597213745117,-0.003460354171693325,-0.00984870083630085,0.0375315360724926
17723347230500,3.3734302520751953,-7.682993412017822,5.4240641593933105,-0.005589802749454975,-0.0071868896484375,0.0340711809694767
17723348467600,3.4165258407592773,-7.680599212646484,5.415684223175049,-0.010647243820130825,-0.012510511092841625,0.0322079136967659
17723349704712,3.406949043273926,-7.684190273284912,5.446808815002441,-0.012510511092841625,-0.010913425125181675,0.0356682650744915
17723350941812,3.384204149246216,-7.681796073913574,5.383362770080566,-0.0077192517928779125,-0.010381062515079975,0.0377977155148983
17723352178912,3.3949780464172363,-7.665036678314209,5.4228668212890625,-0.0090501569211483,-0.010114881210029125,0.0351359061896801
17723353416000,3.359065055847168,-7.694964408874512,5.434837818145752,-0.008517795242369175,-0.0077192517928779125,0.0356682650744915
17723354653100,3.380612850189209,-7.6997528076171875,5.434837818145752,-0.0090501569211483,-0.0071868896484375,0.0324740931391716
17723355890187,3.4177229404449463,-7.6997528076171875,5.373785972595215,-0.014373779296875,-0.007985432632267475,0.0306108258664608
17723357127312,3.3638534545898438,-7.673416614532471,5.389348030090332,-0.014373779296875,-0.010647243820130825,0.0314093679189682
17723358364412,3.423708438873291,-7.6566572189331055,5.407304763793945,-0.010913425125181675,-0.008251613937318325,0.0338049978017807
17723359601500,3.4093432426452637,-7.717709064483643,5.406107425689697,-0.008783976547420025,-0.005057440605014563,0.0282151959836483
17723360838612,3.3662476539611816,-7.63989782333374,5.415684223175049,-0.004791259765625,-0.0037265352439135313,0.0322079136967659
17723362075712,3.3901896476745605,-7.684190273284912,5.434837818145752,-0.0090501569211483,-0.0090501569211483,0.0356682650744915
17723363312812,3.339911460876465,-7.6782050132751465,5.382165431976318,-0.01224433071911335,-0.0090501569211483,0.0343373604118824
17723364549912,3.354276657104492,-7.681796073913574,5.398924827575684,-0.0114457868039608,-0.01171196810901165,0.0322079136967659
17723365787012,3.3937809467315674,-7.672219276428223,5.354632377624512,-0.01117960549890995,-0.010381062515079975,0.0300784632563591
17723367024112,3.378218650817871,-7.68538761138916,5.410895824432373,-0.007985432632267475,-0.008517795242369175,0.0362006276845932
17723368261212,3.3734302520751953,-7.643488883972168,5.430049419403076,-0.00931633822619915,-0.0063883461989462376,0.0282151959836483
17723369498312,3.377021551132202,-7.650671482086182,5.366603374481201,-0.0119781494140625,-0.00931633822619915,0.0282151959836483
17723370735412,3.3279404640197754,-7.649474620819092,5.398924827575684,-0.008251613937318325,-0.0066545275039970875,0.0276828333735466
17723371972500,3.3865983486175537,-7.64109468460083,5.409698963165283,-0.0090501569211483,-0.005057440605014563,0.0300784632563591
17723373209612,3.3925838470458984,-7.633912086486816,5.385756969451904,-0.00984870083630085,-0.008251613937318325,0.0316755510866642
17723374446712,3.3722331523895264,-7.584831237792969,5.438429355621338,-0.005589802749454975,-0.005855984054505825,0.02901373989880085
17723375683825,3.338714361190796,-7.612364292144775,5.410895824432373,-0.008783976547420025,-0.006122165359556675,0.02422248013317585
17723376920925,3.406949043273926,-7.592013835906982,5.385756969451904,-0.00692070834338665,-0.010913425125181675,0.02901373989880085
17723378158025,3.4177229404449463,-7.603984832763672,5.351040840148926,-0.008517795242369175,-0.00984870083630085,0.0276828333735466
17723379395112,3.4093432426452637,-7.633912086486816,5.420472621917725,-0.007453070487827063,-0.0077192517928779125,0.0282151959836483
17723380632225,3.4296939373016357,-7.617152690887451,5.440823554992676,-0.00452507846057415,-0.00958251953125,0.02661811001598835
17723381869312,3.4380736351013184,-7.571662902832031,5.413290023803711,-0.0063883461989462376,-0.007985432632267475,0.02369011752307415
17723383106425,3.423708438873291,-7.528567314147949,5.408501625061035,-0.007985432632267475,-0.0042588976211845875,0.0204959437251091
17723384343525,3.4320881366729736,-7.524975776672363,5.398924827575684,-0.0018632676219567657,-0.0053236219100654125,0.02741665206849575
17723385580612,3.4177229404449463,-7.55011510848999,5.4240641593933105,0.0,-0.008783976547420025,0.02848137728869915
17723386817725,3.4296939373016357,-7.536946773529053,5.43723201751709,0.0,-0.00958251953125,0.0271504707634449
17723388054837,3.44765043258667,-7.5453267097473145,5.4480061531066895,-0.0026618109550327063,-0.00931633822619915,0.0300784632563591
17723389291912,3.42490553855896,-7.515398979187012,5.384559631347656,0.0023956298828125,-0.01224433071911335,0.0319417305290699
17723390529025,3.4380736351013184,-7.553706645965576,5.397727966308594,0.0039927163161337376,-0.008251613937318325,0.03087700717151165
17723391766125,3.4093432426452637,-7.556100845336914,5.397727966308594,0.007453070487827063,-0.0071868896484375,0.0276828333735466
17723393003225,3.428496837615967,-7.547720909118652,5.414487361907959,0.00958251953125,-0.012510511092841625,0.02901373989880085
17723394240312,3.4117374420166016,-7.5884222984313965,5.406107425689697,0.005057440605014563,-0.0162370465695858,0.0276828333735466
17723395477400,3.422511339187622,-7.618350028991699,5.382165431976318,0.00984870083630085,-0.012510511092841625,0.02555338479578495
17723396714525,3.397372245788574,-7.600393295288086,5.372588634490967,0.010114881210029125,-0.01463996060192585,0.02502102218568325
17723397951650,3.3961751461029053,-7.632715225219727,5.439626216888428,0.0063883461989462376,-0.01357523538172245,0.0271504707634449
17723399188737,3.406949043273926,-7.636306285858154,5.367800235748291,0.00984870083630085,-0.01224433071911335,0.0252872034907341
17723400425825,3.428496837615967,-7.669825077056885,5.370194435119629,0.0119781494140625,-0.015172322280704975,0.0263519287109375
17723401662900,3.4093432426452637,-7.675810813903809,5.409698963165283,0.008251613937318325,-0.013309055007994175,0.02741665206849575
17723402900012,3.3949780464172363,-7.69735860824585,5.443217754364014,0.013042873702943325,-0.0157046839594841,0.023956298828125
17723404137137,3.378218650817871,-7.693767070770264,5.407304763793945,0.01171196810901165,-0.01783413253724575,0.0210283063352108
17723405374225,3.423708438873291,-7.702147006988525,5.398924827575684,0.01117960549890995,-0.01463996060192585,0.01996358297765255
17723406611325,3.397372245788574,-7.684190273284912,5.4025163650512695,0.0071868896484375,-0.01783413253724575,0.0210283063352108
17723407848425,3.4129345417022705,-7.708132266998291,5.418078422546387,0.0138414166867733,-0.02076212503015995,0.0223592109978199
17723409085525,3.359065055847168,-7.709329605102539,5.407304763793945,0.0114457868039608,-0.0167694091796875,0.0167694091796875
17723410322637,3.405751943588257,-7.729680061340332,5.398924827575684,0.006122165359556675,-0.015438503585755825,0.01650322787463665
17723411559725,3.4368765354156494,-7.7213006019592285,5.415684223175049,0.005589802749454975,-0.01597086526453495,0.015438503585755825
17723412796825,3.377021551132202,-7.724891662597656,5.430049419403076,0.005589802749454975,-0.0157046839594841,0.0186326764523983
17723414033937,3.3913867473602295,-7.696161270141602,5.415684223175049,0.005855984054505825,-0.012776692397892475,0.01650322787463665
17723415271050,3.362656354904175,-7.7201032638549805,5.434837818145752,0.0053236219100654125,-0.0119781494140625,0.0186326764523983
17723416508137,3.405751943588257,-7.729680061340332,5.366603374481201,0.0077192517928779125,-0.0204959437251091,0.0167694091796875
17723417745237,3.384204149246216,-7.716512203216553,5.34625244140625,0.007985432632267475,-0.01943122036755085,0.01117960549890995
17723418982337,3.3937809467315674,-7.663839817047119,5.373785972595215,0.008251613937318325,-0.01224433071911335,0.010913425125181675
17723420219450,3.4141316413879395,-7.655459880828857,5.421669960021973,0.0021294488105922937,-0.012776692397892475,0.014906140975654125
17723421456537,3.398569345474243,-7.692570209503174,5.415684223175049,0.0031941730994731188,-0.01996358297765255,0.01650322787463665
17723422693637,3.397372245788574,-7.680599212646484,5.433640956878662,0.0077192517928779125,-0.0162370465695858,0.01783413253724575
17723423930750,3.4344823360443115,-7.668628215789795,5.3594207763671875,0.012510511092841625,-0.0186326764523983,0.013042873702943325
17723425167837,3.4308910369873047,-7.645883083343506,5.415684223175049,0.008517795242369175,-0.01943122036755085,0.013042873702943325
17723426404937,3.3722331523895264,-7.650671482086182,5.371391773223877,0.00692070834338665,-0.0196974016726017,0.010114881210029125
17723427642050,3.4296939373016357,-7.612364292144775,5.383362770080566,0.012510511092841625,-0.01836649514734745,0.0162370465695858
17723428879137,3.3913867473602295,-7.614758491516113,5.341464042663574,0.00984870083630085,-0.01783413253724575,0.0167694091796875
17723430116237,3.405751943588257,-7.577648639678955,5.372588634490967,0.006122165359556675,-0.02262539230287075,0.013309055007994175
17723431353325,3.448847532272339,-7.6111674308776855,5.408501625061035,0.004791259765625,-0.0173017717897892,0.0138414166867733
17723432590450,3.40216064453125,-7.5896196365356445,5.384559631347656,0.005855984054505825,-0.015438503585755825,0.0138414166867733
17723433827537,3.4404678344726562,-7.528567314147949,5.377377033233643,0.0053236219100654125,-0.01597086526453495,0.01410759799182415
17723435064650,3.4380736351013184,-7.553706645965576,5.427655220031738,0.006122165359556675,-0.0215606689453125,0.0173017717897892
17723436301737,3.4141316413879395,-7.540538311004639,5.4252610206604,0.010647243820130825,-0.0220930315554142,0.01650322787463665
17723437538837,3.4165258407592773,-7.530961513519287,5.445611953735352,0.01463996060192585,-0.02422248013317585,0.0215606689453125
17723438775937,3.400963544845581,-7.552509307861328,5.388151168823242,0.008783976547420025,-0.02369011752307415,0.01703559048473835
17723440013062,3.3901896476745605,-7.532158374786377,5.419275760650635,0.012776692397892475,-0.02422248013317585,0.01836649514734745
17723441250137,3.377021551132202,-7.532158374786377,5.4252610206604,0.0167694091796875,-0.02076212503015995,0.01783413253724575
17723442487250,3.4117374420166016,-7.524975776672363,5.370194435119629,0.0167694091796875,-0.0300784632563591,0.02022976242005825
17723443724350,3.4308910369873047,-7.584831237792969,5.416881561279297,0.01756795309484005,-0.02608574740588665,0.0220930315554142
17723444961450,3.3889925479888916,-7.563283443450928,5.408501625061035,0.0167694091796875,-0.0276828333735466,0.0196974016726017
17723446198550,3.40216064453125,-7.570466041564941,5.385756969451904,0.01410759799182415,-0.0263519287109375,0.01650322787463665
17723447435650,3.3734302520751953,-7.565677642822266,5.409698963165283,0.0173017717897892,-0.0271504707634449,0.01943122036755085
17723448672737,3.42490553855896,-7.557297706604004,5.3809685707092285,0.01836649514734745,-0.0247548408806324,0.0114457868039608
17723449909850,3.381809949874878,-7.583633899688721,5.388151168823242,0.01783413253724575,-0.0215606689453125,0.015438503585755825
17723451146950,3.360262155532837,-7.6351094245910645,5.39054536819458,0.0191650390625,-0.0220930315554142,0.01410759799182415
