timestamp_ns,accel_x,accel_y,accel_z,gyro_x,gyro_y,gyro_z
18794315887375,0.5482721924781799,-9.793481826782227,0.8068459630012512,-0.007985432632267475,0.01224433071911335,-0.004791259765625
18794317124500,0.5626373887062073,-9.789891242980957,0.8008604645729065,-0.0021294488105922937,0.01117960549890995,-0.00452507846057415
18794318361600,0.5578489899635315,-9.774328231811523,0.8152256608009338,-0.003460354171693325,0.012510511092841625,-0.0021294488105922937
18794319598712,0.569819986820221,-9.803058624267578,0.8056488633155823,-0.006122165359556675,0.012776692397892475,-0.00692070834338665
18794320835850,0.5542576909065247,-9.822212219238281,0.849941611289978,-0.0015970865497365594,0.0173017717897892,-0.0002661811013240367
18794322072950,0.5781997442245483,-9.81263542175293,0.812831461429596,-0.006122165359556675,0.01357523538172245,-0.0018632676219567657
18794323310062,0.5530605912208557,-9.799468040466309,0.8044517636299133,-0.007453070487827063,0.012776692397892475,-0.0023956298828125
18794324547187,0.5374982953071594,-9.789891242980957,0.8379706144332886,-0.0090501569211483,0.01703559048473835,-0.0042588976211845875
18794325784325,0.5183447003364563,-9.804256439208984,0.7948749661445618,-0.0010647244052961469,0.01996358297765255,-0.0077192517928779125
18794327021437,0.5638344883918762,-9.792284965515137,0.8068459630012512,-0.00452507846057415,0.015172322280704975,-0.008517795242369175
18794328258525,0.5147533416748047,-9.793481826782227,0.8152256608009338,-0.0021294488105922937,0.01117960549890995,-0.0015970865497365594
18794329495687,0.5434837937355042,-9.828198432922363,0.8236054182052612,-0.0031941730994731188,0.01171196810901165,-0.0042588976211845875
18794330732800,0.5374982953071594,-9.847352027893066,0.8331822156906128,-0.0023956298828125,0.0167694091796875,-0.010913425125181675
18794331969912,0.5901707410812378,-9.824606895446777,0.7781155705451965,-0.0010647244052961469,0.01703559048473835,-0.005057440605014563
18794333207012,0.5722141861915588,-9.792284965515137,0.7960720658302307,-0.0018632676219567657,0.02182685025036335,-0.0018632676219567657
18794334444150,0.5746083855628967,-9.793481826782227,0.8271967172622681,-0.0077192517928779125,0.0204959437251091,-0.010913425125181675
18794335681262,0.5303156971931458,-9.81143856048584,0.7948749661445618,-0.0037265352439135313,0.01703559048473835,-0.00692070834338665
18794336918362,0.545877993106842,-9.789891242980957,0.7960720658302307,-0.0063883461989462376,0.0210283063352108,-0.006122165359556675
18794338155525,0.5722141861915588,-9.801861763000488,0.7960720658302307,-0.0037265352439135313,0.0204959437251091,-0.0071868896484375
18794339392625,0.5518634915351868,-9.830592155456543,0.8020575642585754,0.0010647244052961469,0.01996358297765255,-0.004791259765625
18794340629737,0.5506663918495178,-9.780314445495605,0.7948749661445618,-0.004791259765625,0.01889885775744915,-0.007453070487827063
18794341866850,0.5793968439102173,-9.781511306762695,0.7817068696022034,-0.0026618109550327063,0.0196974016726017,-0.0026618109550327063
18794343103987,0.5590460896492004,-9.795876502990723,0.8080430626869202,-0.005057440605014563,0.01463996060192585,-0.0031941730994731188
18794344341100,0.5386953949928284,-9.841365814208984,0.790086567401886,-0.004791259765625,0.01463996060192585,-0.003460354171693325
18794345578225,0.5674257874488831,-9.817423820495605,0.8319851160049438,0.0037265352439135313,0.013042873702943325,-0.003460354171693325
18794346815337,0.5734112858772278,-9.84495735168457,0.8379706144332886,-0.0005323622026480734,0.0186326764523983,-0.008783976547420025
18794348052462,0.5590460896492004,-9.834183692932129,0.8451532125473022,-0.008251613937318325,0.0247548408806324,-0.0090501569211483
18794349289575,0.5662286877632141,-9.829395294189453,0.8200140595436096,-0.0037265352439135313,0.0234239362180233,-0.0039927163161337376
18794350526700,0.5889736413955688,-9.799468040466309,0.8032546639442444,0.0,0.01783413253724575,-0.0029279920272529125
18794351763812,0.6009446382522583,-9.801861763000488,0.7864952683448792,-0.004791259765625,0.01889885775744915,-0.010647243820130825
18794353000937,0.5937620401382446,-9.827000617980957,0.8212112188339233,-0.0029279920272529125,0.01756795309484005,-0.010913425125181675
18794354238062,0.5494692921638489,-9.816226959228516,0.7841010689735413,-0.005589802749454975,0.01410759799182415,-0.0090501569211483
18794355475175,0.5722141861915588,-9.856928825378418,0.7613561749458313,-0.0029279920272529125,0.01889885775744915,-0.0077192517928779125
18794356712275,0.5291185975074768,-9.827000617980957,0.790086567401886,-0.003460354171693325,0.0228915736079216,-0.010647243820130825
18794357949387,0.568622887134552,-9.854534149169922,0.8056488633155823,-0.0018632676219567657,0.02422248013317585,-0.008783976547420025
18794359186537,0.5674257874488831,-9.872490882873535,0.8140285611152649,-0.0037265352439135313,0.0181003138422966,-0.01171196810901165
18794360423650,0.5530605912208557,-9.832986831665039,0.8212112188339233,0.0039927163161337376,0.012776692397892475,-0.010913425125181675
18794361660750,0.568622887134552,-9.823410034179688,0.7852981686592102,-0.003460354171693325,0.0223592109978199,-0.010114881210029125
18794362897887,0.5518634915351868,-9.804256439208984,0.8248025178909302,-0.0023956298828125,0.02129448764026165,-0.0066545275039970875
18794364135012,0.5374982953071594,-9.86770248413086,0.8571242094039917,-0.0029279920272529125,0.01943122036755085,-0.0090501569211483
18794365372125,0.5446808934211731,-9.830592155456543,0.7972691655158997,-0.0039927163161337376,0.02076212503015995,-0.00931633822619915
18794366609237,0.5841852426528931,-9.823410034179688,0.7960720658302307,-0.003460354171693325,0.01783413253724575,-0.0090501569211483
18794367846350,0.6440402865409851,-9.832986831665039,0.8044517636299133,0.0005323622026480734,0.02076212503015995,-0.013042873702943325
18794369083500,0.6165069341659546,-9.807847023010254,0.8236054182052612,0.0018632676219567657,0.01996358297765255,-0.012776692397892475
18794370320587,0.5961562395095825,-9.828198432922363,0.8403648138046265,-0.0013309054775163531,0.01836649514734745,-0.010913425125181675
18794371557725,0.5710170865058899,-9.84256362915039,0.8020575642585754,-0.00452507846057415,0.02022976242005825,-0.0090501569211483
18794372794837,0.6153098344802856,-9.81263542175293,0.7852981686592102,-0.0037265352439135313,0.0157046839594841,-0.007985432632267475
18794374031950,0.5793968439102173,-9.806650161743164,0.750582218170166,-0.0090501569211483,0.01836649514734745,-0.0039927163161337376
18794375269075,0.6165069341659546,-9.837775230407715,0.8008604645729065,-0.0042588976211845875,0.02022976242005825,-0.005855984054505825
18794376506200,0.5327098965644836,-9.801861763000488,0.8080430626869202,0.0002661811013240367,0.02315775491297245,-0.008517795242369175
18794377743325,0.6153098344802856,-9.787496566772461,0.7757213711738586,0.0,0.0252872034907341,-0.01224433071911335
18794378980437,0.5386953949928284,-9.816226959228516,0.768538773059845,-0.0029279920272529125,0.0223592109978199,-0.008783976547420025
18794380217562,0.5638344883918762,-9.821015357971191,0.8200140595436096,-0.0077192517928779125,0.0186326764523983,-0.01117960549890995
18794381454675,0.608127236366272,-9.806650161743164,0.8056488633155823,-0.0039927163161337376,0.014906140975654125,-0.007453070487827063
18794382691787,0.5674257874488831,-9.803058624267578,0.7541735172271729,-0.0026618109550327063,0.01996358297765255,-0.004791259765625
18794383928912,0.5554547905921936,-9.822212219238281,0.767341673374176,-0.0039927163161337376,0.02262539230287075,-0.0090501569211483
18794385166050,0.5985504388809204,-9.813833236694336,0.7948749661445618,-0.007985432632267475,0.02262539230287075,-0.005589802749454975
18794386403150,0.6105214357376099,-9.837775230407715,0.7793126702308655,-0.0031941730994731188,0.0191650390625,-0.005855984054505825
18794387640262,0.6021417379379272,-9.871294021606445,0.767341673374176,-0.005057440605014563,0.01889885775744915,-0.005855984054505825
18794388877400,0.606930136680603,-9.832986831665039,0.8080430626869202,-0.0010647244052961469,0.02502102218568325,-0.01171196810901165
18794390114512,0.6117185354232788,-9.860519409179688,0.8164227604866028,-0.0018632676219567657,0.0215606689453125,-0.0090501569211483
18794391351625,0.5841852426528931,-9.824606895446777,0.8080430626869202,-0.0007985432748682797,0.02315775491297245,-0.003460354171693325
18794392588750,0.5805939435958862,-9.800664901733398,0.8212112188339233,-0.0021294488105922937,0.0244886614382267,-0.0007985432748682797
18794393825862,0.6260837316513062,-9.841365814208984,0.7709329724311829,-0.0002661811013240367,0.02315775491297245,-0.0053236219100654125
18794395062975,0.5937620401382446,-9.84256362915039,0.7912836670875549,-0.0053236219100654125,0.02022976242005825,-0.008517795242369175
18794396300125,0.6117185354232788,-9.798270225524902,0.8248025178909302,-0.003460354171693325,0.0181003138422966,-0.0037265352439135313
18794397537225,0.6129156351089478,-9.822212219238281,0.812831461429596,-0.0015970865497365594,0.01463996060192585,-0.0021294488105922937
18794398774350,0.5877765417098999,-9.84495735168457,0.8044517636299133,-0.0042588976211845875,0.01783413253724575,-0.005589802749454975
18794400011450,0.5889736413955688,-9.835380554199219,0.7972691655158997,0.0005323622026480734,0.0204959437251091,-0.0026618109550327063
18794401248575,0.5662286877632141,-9.801861763000488,0.8032546639442444,0.0021294488105922937,0.0167694091796875,-0.0021294488105922937
18794402485700,0.5805939435958862,-9.831789016723633,0.7912836670875549,0.0,0.01836649514734745,-0.005589802749454975
18794403722825,0.5997475385665894,-9.81143856048584,0.7972691655158997,-0.0063883461989462376,0.0210283063352108,-0.0090501569211483
18794404959925,0.5805939435958862,-9.818621635437012,0.7996633648872375,-0.0026618109550327063,0.014373779296875,-0.0013309054775163531
18794406197075,0.5398924946784973,-9.84376049041748,0.7745242714881897,-0.0002661811013240367,0.01463996060192585,-0.0026618109550327063
18794407434175,0.5722141861915588,-9.828198432922363,0.8044517636299133,-0.0039927163161337376,0.01889885775744915,-0.007453070487827063
18794408671275,0.5770025849342346,-9.860519409179688,0.790086567401886,-0.005855984054505825,0.02129448764026165,-0.004791259765625
18794409908412,0.5961562395095825,-9.84495735168457,0.8032546639442444,-0.0005323622026480734,0.01650322787463665,-0.0010647244052961469
18794411145525,0.5829881429672241,-9.855731010437012,0.8212112188339233,0.0005323622026480734,0.02129448764026165,-0.0031941730994731188
18794412382662,0.5925649404525757,-9.885659217834473,0.8188169598579407,-0.0018632676219567657,0.01836649514734745,0.0005323622026480734
18794413619775,0.5925649404525757,-9.828198432922363,0.7565677165985107,0.0002661811013240367,0.01943122036755085,0.0005323622026480734
18794414856887,0.5614402890205383,-9.837775230407715,0.8080430626869202,-0.0026618109550327063,0.0138414166867733,-0.0015970865497365594
18794416094012,0.5961562395095825,-9.852140426635742,0.8487445116043091,-0.0053236219100654125,0.0173017717897892,0.0015970865497365594
18794417331125,0.5925649404525757,-9.882067680358887,0.7817068696022034,-0.0015970865497365594,0.0244886614382267,-0.0037265352439135313
18794418568262,0.6021417379379272,-9.897629737854004,0.7829039692878723,0.0,0.0204959437251091,-0.0037265352439135313
18794419805362,0.5674257874488831,-9.841365814208984,0.8020575642585754,-0.0010647244052961469,0.01996358297765255,-0.00452507846057415
18794421042487,0.5578489899635315,-9.862914085388184,0.7984662652015686,-0.0039927163161337376,0.0223592109978199,-0.0010647244052961469
18794422279600,0.5734112858772278,-9.880870819091797,0.7733271718025208,-0.007985432632267475,0.02182685025036335,0.0015970865497365594
18794423516725,0.6033388376235962,-9.888052940368652,0.767341673374176,-0.0066545275039970875,0.02182685025036335,0.0018632676219567657
18794424753850,0.5734112858772278,-9.831789016723633,0.7793126702308655,-0.0021294488105922937,0.0223592109978199,0.0039927163161337376
18794425990975,0.5530605912208557,-9.882067680358887,0.7781155705451965,-0.0039927163161337376,0.01783413253724575,0.0005323622026480734
18794427228087,0.5781997442245483,-9.871294021606445,0.7852981686592102,-0.010913425125181675,0.02129448764026165,0.0029279920272529125
18794428465200,0.5446808934211731,-9.8784761428833,0.7709329724311829,-0.008251613937318325,0.01836649514734745,0.0023956298828125
18794429702325,0.5758054852485657,-9.898826599121094,0.7433996200561523,-0.0066545275039970875,0.01889885775744915,0.0037265352439135313
18794430939462,0.5482721924781799,-9.884461402893066,0.7769184708595276,-0.005589802749454975,0.0191650390625,0.0071868896484375
18794432176562,0.5518634915351868,-9.850942611694336,0.7637503743171692,-0.012510511092841625,0.01756795309484005,0.005057440605014563
18794433413687,0.5925649404525757,-9.888052940368652,0.7817068696022034,-0.0114457868039608,0.0196974016726017,0.004791259765625
18794434650800,0.6332663297653198,-9.852140426635742,0.7529764175415039,-0.007453070487827063,0.01996358297765255,0.00452507846057415
18794435887912,0.5985504388809204,-9.831789016723633,0.7984662652015686,-0.0114457868039608,0.0173017717897892,0.00692070834338665
18794437125037,0.5889736413955688,-9.856928825378418,0.7386112213134766,-0.013042873702943325,0.015438503585755825,0.007453070487827063
18794438362162,0.6021417379379272,-9.84256362915039,0.7781155705451965,-0.008251613937318325,0.01836649514734745,0.0071868896484375
18794439599275,0.5626373887062073,-9.81024169921875,0.7924807667732239,-0.01463996060192585,0.0220930315554142,0.0077192517928779125
18794440836400,0.606930136680603,-9.829395294189453,0.8200140595436096,-0.010381062515079975,0.0173017717897892,0.007985432632267475
18794442073512,0.629675030708313,-9.789891242980957,0.7793126702308655,-0.010114881210029125,0.0181003138422966,0.0037265352439135313
18794443310625,0.6189011335372925,-9.805453300476074,0.7972691655158997,-0.008783976547420025,0.01889885775744915,0.005855984054505825
18794444547762,0.569819986820221,-9.794679641723633,0.8738836050033569,-0.0114457868039608,0.01783413253724575,0.005589802749454975
18794445784875,0.5327098965644836,-9.806650161743164,0.7817068696022034,-0.00958251953125,0.012776692397892475,0.007985432632267475
18794447022012,0.5829881429672241,-9.838972091674805,0.790086567401886,-0.008783976547420025,0.01357523538172245,0.008517795242369175
18794448259112,0.606930136680603,-9.854534149169922,0.8044517636299133,-0.012510511092841625,0.01889885775744915,0.0053236219100654125
18794449496237,0.5925649404525757,-9.836577415466309,0.7948749661445618,-0.00984870083630085,0.0186326764523983,0.00931633822619915
18794450733350,0.586579442024231,-9.794679641723633,0.8056488633155823,-0.010913425125181675,0.01783413253724575,0.007985432632267475
18794451970462,0.6141127347946167,-9.759963035583496,0.7649474740028381,-0.010381062515079975,0.01597086526453495,0.008517795242369175
18794453207587,0.5554547905921936,-9.782708168029785,0.7960720658302307,-0.01117960549890995,0.01463996060192585,0.0031941730994731188
18794454444712,0.6045359373092651,-9.816226959228516,0.7972691655158997,-0.007985432632267475,0.01703559048473835,0.006122165359556675
18794455681837,0.5734112858772278,-9.84495735168457,0.8044517636299133,-0.008251613937318325,0.0191650390625,0.010114881210029125
18794456918937,0.5494692921638489,-9.787496566772461,0.7960720658302307,-0.008783976547420025,0.01756795309484005,0.008251613937318325
18794458156050,0.586579442024231,-9.793481826782227,0.7960720658302307,-0.010381062515079975,0.0173017717897892,0.003460354171693325
18794459393187,0.569819986820221,-9.813833236694336,0.7481880187988281,-0.0090501569211483,0.02022976242005825,0.00958251953125
18794460630312,0.5530605912208557,-9.81024169921875,0.790086567401886,-0.008517795242369175,0.0181003138422966,0.01597086526453495
18794461867412,0.6045359373092651,-9.80904483795166,0.8080430626869202,-0.006122165359556675,0.0191650390625,0.0186326764523983
18794463104537,0.5913678407669067,-9.800664901733398,0.7841010689735413,-0.0031941730994731188,0.01650322787463665,0.01597086526453495
18794464341637,0.568622887134552,-9.871294021606445,0.7649474740028381,-0.0039927163161337376,0.01224433071911335,0.01783413253724575
18794465578787,0.6033388376235962,-9.864110946655273,0.7745242714881897,-0.01117960549890995,0.014373779296875,0.010647243820130825
18794466815912,0.5363011956214905,-9.84615421295166,0.7697358727455139,-0.01171196810901165,0.01410759799182415,0.015438503585755825
18794468053012,0.569819986820221,-9.835380554199219,0.7864952683448792,-0.00931633822619915,0.01357523538172245,0.01703559048473835
18794469290137,0.6093243360519409,-9.856928825378418,0.7697358727455139,-0.00931633822619915,0.01650322787463665,0.01836649514734745
18794470527250,0.6009446382522583,-9.855731010437012,0.8152256608009338,-0.00931633822619915,0.02076212503015995,0.01357523538172245
18794471764375,0.5889736413955688,-9.858125686645508,0.7601590752601624,-0.007985432632267475,0.01224433071911335,0.01836649514734745
18794473001475,0.569819986820221,-9.795876502990723,0.7936778664588928,-0.010647243820130825,0.013042873702943325,0.01597086526453495
18794474238625,0.5829881429672241,-9.86650562286377,0.7936778664588928,-0.010381062515079975,0.01410759799182415,0.0162370465695858
18794475475750,0.5650315880775452,-9.815030097961426,0.7984662652015686,-0.01171196810901165,0.015438503585755825,0.01889885775744915
18794476712837,0.5841852426528931,-9.785102844238281,0.7601590752601624,-0.00958251953125,0.0162370465695858,0.02182685025036335
18794477949975,0.568622887134552,-9.789891242980957,0.7625532746315002,-0.015438503585755825,0.01836649514734745,0.0234239362180233
18794479187087,0.5781997442245483,-9.84376049041748,0.8092401623725891,-0.0138414166867733,0.01410759799182415,0.0228915736079216
18794480424212,0.6165069341659546,-9.860519409179688,0.750582218170166,-0.01224433071911335,0.008251613937318325,0.0191650390625
18794481661325,0.6512228846549988,-9.77552604675293,0.7493851184844971,-0.01224433071911335,0.010381062515079975,0.01836649514734745
18794482898450,0.6009446382522583,-9.822212219238281,0.7781155705451965,-0.01357523538172245,0.015172322280704975,0.01836649514734745
18794484135562,0.5722141861915588,-9.829395294189453,0.8164227604866028,-0.00692070834338665,0.01357523538172245,0.0220930315554142
18794485372675,0.5207388997077942,-9.783905029296875,0.7481880187988281,-0.0114457868039608,0.0119781494140625,0.0162370465695858
18794486609825,0.5183447003364563,-9.816226959228516,0.7793126702308655,-0.0119781494140625,0.014906140975654125,0.00931633822619915
18794487846912,0.5446808934211731,-9.80904483795166,0.8020575642585754,-0.005057440605014563,0.010647243820130825,0.0220930315554142
18794489084037,0.5734112858772278,-9.815030097961426,0.767341673374176,-0.0114457868039608,0.005855984054505825,0.01650322787463665
18794490321150,0.6045359373092651,-9.773131370544434,0.7829039692878723,-0.01357523538172245,0.013309055007994175,0.007453070487827063
18794491558275,0.5662286877632141,-9.801861763000488,0.7577648162841797,-0.01224433071911335,0.0119781494140625,0.0196974016726017
18794492795412,0.5662286877632141,-9.804256439208984,0.811634361743927,-0.01889885775744915,0.01650322787463665,0.0167694091796875
18794494032550,0.5841852426528931,-9.80904483795166,0.7745242714881897,-0.0119781494140625,0.010381062515079975,0.01597086526453495
18794495269650,0.5913678407669067,-9.793481826782227,0.751779317855835,-0.01171196810901165,0.010647243820130825,0.015438503585755825
18794496506762,0.5650315880775452,-9.817423820495605,0.7637503743171692,-0.0167694091796875,0.01410759799182415,0.013042873702943325
18794497743875,0.5482721924781799,-9.805453300476074,0.7733271718025208,-0.01463996060192585,0.0138414166867733,0.01117960549890995
18794498981000,0.5913678407669067,-9.795876502990723,0.7613561749458313,-0.00931633822619915,0.010114881210029125,0.012776692397892475
18794500218125,0.5650315880775452,-9.829395294189453,0.8092401623725891,-0.0090501569211483,0.01117960549890995,0.0114457868039608
18794501455225,0.5530605912208557,-9.831789016723633,0.8236054182052612,-0.010647243820130825,0.0077192517928779125,0.0090501569211483
18794502692350,0.5315127968788147,-9.850942611694336,0.8032546639442444,-0.015172322280704975,0.008783976547420025,0.015172322280704975
18794503929475,0.5410895943641663,-9.823410034179688,0.7661445736885071,-0.01703559048473835,0.0157046839594841,0.01171196810901165
18794505166612,0.5398924946784973,-9.858125686645508,0.7996633648872375,-0.013042873702943325,0.012510511092841625,0.010647243820130825
18794506403712,0.568622887134552,-9.835380554199219,0.7912836670875549,-0.012776692397892475,0.01117960549890995,0.013309055007994175
18794507640850,0.5638344883918762,-9.850942611694336,0.8056488633155823,-0.01410759799182415,0.0138414166867733,0.00931633822619915
18794508877950,0.5267243981361389,-9.894038200378418,0.7649474740028381,-0.0157046839594841,0.010381062515079975,0.00984870083630085
18794510115062,0.545877993106842,-9.853337287902832,0.7948749661445618,-0.01357523538172245,0.01943122036755085,0.010381062515079975
18794511352175,0.5674257874488831,-9.90241813659668,0.7757213711738586,-0.0157046839594841,0.0210283063352108,0.005057440605014563
18794512589300,0.5734112858772278,-9.855731010437012,0.788889467716217,-0.00984870083630085,0.010381062515079975,0.0071868896484375
18794513826437,0.5482721924781799,-9.848548889160156,0.7709329724311829,-0.008251613937318325,0.00692070834338665,0.01117960549890995
18794515063537,0.5662286877632141,-9.861717224121094,0.8068459630012512,-0.01463996060192585,0.01410759799182415,0.00958251953125
18794516300675,0.5566518902778625,-9.884461402893066,0.8271967172622681,-0.0181003138422966,0.012776692397892475,0.007453070487827063
18794517537800,0.5626373887062073,-9.865307807922363,0.7936778664588928,-0.0191650390625,0.0090501569211483,0.0071868896484375
18794518774912,0.5805939435958862,-9.862914085388184,0.8032546639442444,-0.0181003138422966,0.014906140975654125,0.0007985432748682797
18794520012025,0.5566518902778625,-9.847352027893066,0.8092401623725891,-0.01597086526453495,0.012510511092841625,0.0023956298828125
18794521249150,0.5123591423034668,-9.848548889160156,0.8248025178909302,-0.00984870083630085,0.0090501569211483,0.0066545275039970875
18794522486262,0.585382342338562,-9.831789016723633,0.7733271718025208,-0.015172322280704975,0.012510511092841625,0.0010647244052961469
18794523723387,0.5279214978218079,-9.84615421295166,0.8176198601722717,-0.01463996060192585,0.015438503585755825,0.0005323622026480734
18794524960512,0.5590460896492004,-9.86770248413086,0.7733271718025208,-0.0119781494140625,0.010381062515079975,0.003460354171693325
18794526197637,0.606930136680603,-9.819818496704102,0.7601590752601624,-0.01703559048473835,0.008783976547420025,0.0007985432748682797
18794527434750,0.5446808934211731,-9.830592155456543,0.8044517636299133,-0.0138414166867733,0.008517795242369175,0.0018632676219567657
18794528671875,0.5638344883918762,-9.819818496704102,0.7697358727455139,-0.01836649514734745,0.0162370465695858,0.0010647244052961469
18794529908987,0.5770025849342346,-9.801861763000488,0.8008604645729065,-0.0157046839594841,0.0138414166867733,-0.0005323622026480734
18794531146100,0.5446808934211731,-9.815030097961426,0.7924807667732239,-0.0162370465695858,0.00931633822619915,-0.0007985432748682797
18794532383237,0.5674257874488831,-9.829395294189453,0.7613561749458313,-0.0186326764523983,0.01463996060192585,-0.0029279920272529125
18794533620337,0.5219359993934631,-9.804256439208984,0.790086567401886,-0.01943122036755085,0.01410759799182415,-0.0015970865497365594
18794534857475,0.5662286877632141,-9.834183692932129,0.790086567401886,-0.01597086526453495,0.014373779296875,-0.0066545275039970875
18794536094575,0.5758054852485657,-9.84256362915039,0.7541735172271729,-0.01463996060192585,0.015438503585755825,-0.010381062515079975
18794537331712,0.5722141861915588,-9.791088104248047,0.7589619159698486,-0.0162370465695858,0.0167694091796875,-0.010114881210029125
18794538568825,0.5506663918495178,-9.840168952941895,0.7661445736885071,-0.01756795309484005,0.012776692397892475,-0.0053236219100654125
18794539805937,0.5662286877632141,-9.80904483795166,0.7493851184844971,-0.015172322280704975,0.0157046839594841,-0.005855984054505825
18794541043050,0.5566518902778625,-9.840168952941895,0.7697358727455139,-0.0138414166867733,0.01703559048473835,-0.010647243820130825
18794542280187,0.5638344883918762,-9.793481826782227,0.767341673374176,-0.0173017717897892,0.01943122036755085,-0.01410759799182415
18794543517300,0.5710170865058899,-9.77791976928711,0.8212112188339233,-0.0181003138422966,0.01889885775744915,-0.0114457868039608
18794544754425,0.5530605912208557,-9.77791976928711,0.7805097699165344,-0.013042873702943325,0.01650322787463665,-0.01463996060192585
18794545991537,0.5506663918495178,-9.787496566772461,0.829590916633606,-0.01171196810901165,0.01783413253724575,-0.0090501569211483
18794547228650,0.5805939435958862,-9.807847023010254,0.8056488633155823,-0.01357523538172245,0.0223592109978199,-0.010647243820130825
18794548465787,0.6308721303939819,-9.785102844238281,0.7984662652015686,-0.01117960549890995,0.01463996060192585,-0.008517795242369175
18794549702887,0.5781997442245483,-9.793481826782227,0.828393816947937,-0.0090501569211483,0.01224433071911335,-0.01463996060192585
18794550940012,0.5494692921638489,-9.773131370544434,0.8044517636299133,-0.00931633822619915,0.0173017717897892,-0.012510511092841625
18794552177137,0.5506663918495178,-9.81024169921875,0.8200140595436096,-0.007453070487827063,0.01463996060192585,-0.010114881210029125
18794553414262,0.5530605912208557,-9.78869342803955,0.768538773059845,-0.0114457868039608,0.01703559048473835,-0.0090501569211483
18794554651362,0.5770025849342346,-9.822212219238281,0.7793126702308655,-0.01410759799182415,0.01783413253724575,-0.008783976547420025
18794555888500,0.5518634915351868,-9.769539833068848,0.7721300721168518,-0.00958251953125,0.0220930315554142,-0.012776692397892475
18794557125612,0.586579442024231,-9.815030097961426,0.8008604645729065,-0.008517795242369175,0.0186326764523983,-0.0196974016726017
18794558362725,0.568622887134552,-9.789891242980957,0.7912836670875549,-0.0077192517928779125,0.01650322787463665,-0.01117960549890995
18794559599837,0.5410895943641663,-9.77552604675293,0.8212112188339233,-0.005057440605014563,0.0181003138422966,-0.01463996060192585
18794560836962,0.5626373887062073,-9.797073364257812,0.7936778664588928,-0.010913425125181675,0.02502102218568325,-0.01463996060192585
18794562074087,0.5770025849342346,-9.781511306762695,0.7996633648872375,-0.006122165359556675,0.0173017717897892,-0.01650322787463665
18794563311200,0.5781997442245483,-9.805453300476074,0.7793126702308655,-0.0037265352439135313,0.013309055007994175,-0.014906140975654125
18794564548325,0.5734112858772278,-9.791088104248047,0.767341673374176,-0.004791259765625,0.0186326764523983,-0.014373779296875
18794565785462,0.5590460896492004,-9.797073364257812,0.7912836670875549,-0.00692070834338665,0.01836649514734745,-0.00958251953125
18794567022575,0.6344634294509888,-9.815030097961426,0.7589619159698486,-0.005589802749454975,0.0167694091796875,-0.013309055007994175
18794568259687,0.569819986820221,-9.77552604675293,0.7649474740028381,-0.0031941730994731188,0.01889885775744915,-0.01171196810901165
18794569496812,0.5734112858772278,-9.793481826782227,0.7841010689735413,0.0007985432748682797,0.0186326764523983,-0.00984870083630085
18794570733937,0.5734112858772278,-9.794679641723633,0.7924807667732239,0.0010647244052961469,0.01756795309484005,-0.0114457868039608
18794571971050,0.5817910432815552,-9.768342971801758,0.768538773059845,0.003460354171693325,0.01756795309484005,-0.0090501569211483
18794573208162,0.6380547285079956,-9.765949249267578,0.8056488633155823,-0.0007985432748682797,0.0186326764523983,-0.00931633822619915
18794574445287,0.5937620401382446,-9.768342971801758,0.8020575642585754,-0.0007985432748682797,0.0220930315554142,-0.012510511092841625
18794575682400,0.608127236366272,-9.759963035583496,0.8176198601722717,0.0026618109550327063,0.01650322787463665,-0.010647243820130825
18794576919512,0.5734112858772278,-9.767146110534668,0.7841010689735413,0.0,0.02076212503015995,-0.0119781494140625
18794578156650,0.5973533391952515,-9.75278091430664,0.7781155705451965,0.005589802749454975,0.0210283063352108,-0.01224433071911335
18794579393762,0.5590460896492004,-9.791088104248047,0.7577648162841797,0.0018632676219567657,0.023956298828125,-0.014373779296875
18794580630875,0.5578489899635315,-9.786299705505371,0.8152256608009338,-0.0015970865497365594,0.02315775491297245,-0.01171196810901165
18794581868025,0.5746083855628967,-9.787496566772461,0.7721300721168518,0.0015970865497365594,0.0228915736079216,-0.01410759799182415
18794583105137,0.5877765417098999,-9.7791166305542,0.811634361743927,-0.0002661811013240367,0.02022976242005825,-0.0119781494140625
18794584342250,0.5614402890205383,-9.785102844238281,0.7733271718025208,0.0015970865497365594,0.023956298828125,-0.010381062515079975
18794585579362,0.5925649404525757,-9.765949249267578,0.7852981686592102,0.0021294488105922937,0.02848137728869915,-0.013042873702943325
18794586816475,0.5925649404525757,-9.800664901733398,0.7445967197418213,0.005855984054505825,0.0210283063352108,-0.01597086526453495
18794588053600,0.585382342338562,-9.794679641723633,0.730231523513794,0.007453070487827063,0.02022976242005825,-0.014906140975654125
18794589290725,0.5937620401382446,-9.744400978088379,0.7398083209991455,0.008783976547420025,0.02315775491297245,-0.01171196810901165
18794590527850,0.6057330369949341,-9.81263542175293,0.7769184708595276,0.00931633822619915,0.02182685025036335,-0.0090501569211483
18794591764950,0.606930136680603,-9.759963035583496,0.7841010689735413,0.0063883461989462376,0.02422248013317585,-0.008251613937318325
18794593002087,0.6141127347946167,-9.803058624267578,0.8080430626869202,0.004791259765625,0.02315775491297245,-0.0114457868039608
18794594239212,0.6009446382522583,-9.757569313049316,0.7841010689735413,0.0063883461989462376,0.0223592109978199,-0.01463996060192585
18794595476325,0.6368576288223267,-9.787496566772461,0.7422025203704834,0.0071868896484375,0.02182685025036335,-0.01171196810901165
18794596713425,0.5889736413955688,-9.807847023010254,0.7493851184844971,0.010381062515079975,0.02076212503015995,-0.01224433071911335
18794597950562,0.6189011335372925,-9.794679641723633,0.8140285611152649,0.007985432632267475,0.0215606689453125,-0.0167694091796875
18794599187687,0.6009446382522583,-9.800664901733398,0.8403648138046265,0.008251613937318325,0.0234239362180233,-0.0114457868039608
18794600424800,0.569819986820221,-9.803058624267578,0.768538773059845,0.01117960549890995,0.02422248013317585,-0.00958251953125
18794601661912,0.6129156351089478,-9.77552604675293,0.7733271718025208,0.0138414166867733,0.0234239362180233,-0.010114881210029125
18794602899050,0.5889736413955688,-9.769539833068848,0.7817068696022034,0.012510511092841625,0.0223592109978199,-0.01463996060192585
18794604136150,0.6560112833976746,-9.81143856048584,0.8104372620582581,0.008517795242369175,0.02262539230287075,-0.012776692397892475
18794605373275,0.5985504388809204,-9.759963035583496,0.7852981686592102,0.0090501569211483,0.0223592109978199,-0.008783976547420025
18794606610400,0.6177040338516235,-9.801861763000488,0.8104372620582581,0.00958251953125,0.0223592109978199,-0.013042873702943325
18794607847525,0.6248866319656372,-9.803058624267578,0.8152256608009338,0.0077192517928779125,0.0244886614382267,-0.015172322280704975
18794609084625,0.5949591398239136,-9.823410034179688,0.7781155705451965,0.010913425125181675,0.02315775491297245,-0.00984870083630085
18794610321762,0.6177040338516235,-9.78869342803955,0.8068459630012512,0.0114457868039608,0.02129448764026165,-0.00984870083630085
18794611558875,0.6093243360519409,-9.818621635437012,0.7745242714881897,0.010913425125181675,0.0234239362180233,-0.012510511092841625
18794612796000,0.6308721303939819,-9.819818496704102,0.811634361743927,0.007453070487827063,0.0223592109978199,-0.01117960549890995
18794614033112,0.5781997442245483,-9.815030097961426,0.7769184708595276,0.00931633822619915,0.02608574740588665,-0.010913425125181675
18794615270237,0.5722141861915588,-9.815030097961426,0.7876923680305481,0.007985432632267475,0.0244886614382267,-0.0119781494140625
18794616507350,0.6392518877983093,-9.825803756713867,0.7852981686592102,0.008251613937318325,0.0282151959836483,-0.010381062515079975
18794617744475,0.6260837316513062,-9.805453300476074,0.7924807667732239,0.012510511092841625,0.0247548408806324,-0.0039927163161337376
18794618981587,0.6536170840263367,-9.816226959228516,0.8248025178909302,0.0066545275039970875,0.0271504707634449,-0.00931633822619915
18794620218725,0.6332663297653198,-9.770737648010254,0.8259996175765991,0.012776692397892475,0.023956298828125,-0.008517795242369175
18794621455837,0.6117185354232788,-9.801861763000488,0.7649474740028381,0.0157046839594841,0.023956298828125,-0.0066545275039970875
18794622692962,0.628477931022644,-9.806650161743164,0.7637503743171692,0.008783976547420025,0.02608574740588665,-0.00931633822619915
18794623930075,0.6105214357376099,-9.828198432922363,0.8020575642585754,0.004791259765625,0.033538818359375,-0.00958251953125
18794625167175,0.606930136680603,-9.81024169921875,0.7793126702308655,0.00984870083630085,0.02848137728869915,-0.007453070487827063
18794626404312,0.6189011335372925,-9.815030097961426,0.788889467716217,0.008517795242369175,0.02262539230287075,-0.0039927163161337376
18794627641425,0.6428431868553162,-9.789891242980957,0.7864952683448792,0.013042873702943325,0.02182685025036335,-0.0053236219100654125
18794628878537,0.646434485912323,-9.781511306762695,0.8248025178909302,0.01410759799182415,0.0228915736079216,-0.008517795242369175
18794630115675,0.6320692300796509,-9.787496566772461,0.7960720658302307,0.0090501569211483,0.02848137728869915,-0.0090501569211483
18794631352787,0.6021417379379272,-9.800664901733398,0.7864952683448792,0.00931633822619915,0.0220930315554142,-0.005057440605014563
18794632589900,0.5494692921638489,-9.806650161743164,0.8020575642585754,0.0173017717897892,0.02262539230287075,-0.00452507846057415
18794633827050,0.628477931022644,-9.77672290802002,0.7960720658302307,0.014373779296875,0.0268842913210392,-0.004791259765625
18794635064162,0.6177040338516235,-9.806650161743164,0.7565677165985107,0.01224433071911335,0.0252872034907341,-0.005589802749454975
18794636301275,0.6224924325942993,-9.783905029296875,0.7924807667732239,0.010381062515079975,0.02315775491297245,-0.008251613937318325
18794637538400,0.585382342338562,-9.789891242980957,0.7852981686592102,0.0119781494140625,0.0292799212038517,-0.0066545275039970875
18794638775500,0.6320692300796509,-9.792284965515137,0.7912836670875549,0.010114881210029125,0.0271504707634449,-0.0029279920272529125
18794640012625,0.6189011335372925,-9.834183692932129,0.8236054182052612,0.010114881210029125,0.02076212503015995,-0.003460354171693325
18794641249750,0.6021417379379272,-9.789891242980957,0.7960720658302307,0.00931633822619915,0.0252872034907341,-0.0023956298828125
18794642486862,0.6105214357376099,-9.804256439208984,0.7852981686592102,0.014906140975654125,0.02502102218568325,0.0026618109550327063
18794643723975,0.5841852426528931,-9.81263542175293,0.7876923680305481,0.01224433071911335,0.0223592109978199,-0.0013309054775163531
18794644961100,0.6009446382522583,-9.848548889160156,0.7852981686592102,0.005855984054505825,0.0306108258664608,-0.0031941730994731188
18794646198237,0.6045359373092651,-9.77791976928711,0.8068459630012512,0.010913425125181675,0.02369011752307415,0.0
18794647435337,0.6320692300796509,-9.780314445495605,0.7733271718025208,0.01410759799182415,0.02076212503015995,-0.0015970865497365594
18794648672475,0.6105214357376099,-9.81263542175293,0.811634361743927,0.00984870083630085,0.02555338479578495,0.0010647244052961469
18794649909587,0.6212953329086304,-9.829395294189453,0.768538773059845,0.010647243820130825,0.0234239362180233,0.0013309054775163531
18794651146687,0.6344634294509888,-9.837775230407715,0.8056488633155823,0.014373779296875,0.0220930315554142,-0.0037265352439135313
18794652383837,0.6141127347946167,-9.818621635437012,0.7697358727455139,0.01117960549890995,0.0228915736079216,-0.0002661811013240367
18794653620962,0.6117185354232788,-9.84256362915039,0.829590916633606,0.0138414166867733,0.0220930315554142,0.0031941730994731188
18794654858062,0.6033388376235962,-9.783905029296875,0.8343793153762817,0.0173017717897892,0.0223592109978199,-0.0005323622026480734
18794656095187,0.5973533391952515,-9.773131370544434,0.7841010689735413,0.0066545275039970875,0.02794901467859745,0.0071868896484375
18794657332325,0.629675030708313,-9.831789016723633,0.8104372620582581,0.008783976547420025,0.0252872034907341,0.006122165359556675
18794658569412,0.6165069341659546,-9.81143856048584,0.768538773059845,0.013042873702943325,0.0215606689453125,0.0007985432748682797
18794659806550,0.6308721303939819,-9.78869342803955,0.8164227604866028,0.010114881210029125,0.02555338479578495,0.0037265352439135313
18794661043675,0.5901707410812378,-9.804256439208984,0.8104372620582581,0.01117960549890995,0.0252872034907341,0.007985432632267475
18794662280800,0.5985504388809204,-9.806650161743164,0.8092401623725891,0.01463996060192585,0.02661811001598835,0.0039927163161337376
18794663517912,0.645237386226654,-9.819818496704102,0.811634361743927,0.0162370465695858,0.02608574740588665,0.0010647244052961469
18794664755025,0.6153098344802856,-9.834183692932129,0.7924807667732239,0.014906140975654125,0.02555338479578495,0.0039927163161337376
18794665992137,0.6009446382522583,-9.821015357971191,0.8259996175765991,0.010114881210029125,0.0220930315554142,0.005589802749454975
18794667229275,0.5985504388809204,-9.827000617980957,0.849941611289978,0.0162370465695858,0.02422248013317585,0.0031941730994731188
18794668466387,0.6021417379379272,-9.81263542175293,0.8224083185195923,0.01463996060192585,0.02262539230287075,0.0066545275039970875
18794669703487,0.6260837316513062,-9.838972091674805,0.8104372620582581,0.01357523538172245,0.02129448764026165,0.00984870083630085
18794670940625,0.5925649404525757,-9.848548889160156,0.8200140595436096,0.014906140975654125,0.0234239362180233,0.0053236219100654125
18794672177737,0.5949591398239136,-9.848548889160156,0.8032546639442444,0.01836649514734745,0.02076212503015995,0.005057440605014563
18794673414862,0.6153098344802856,-9.795876502990723,0.829590916633606,0.010913425125181675,0.02129448764026165,0.008251613937318325
18794674652000,0.6224924325942993,-9.841365814208984,0.8259996175765991,0.013309055007994175,0.01996358297765255,0.012776692397892475
18794675889100,0.6045359373092651,-9.84495735168457,0.7876923680305481,0.012776692397892475,0.02076212503015995,0.01357523538172245
18794677126212,0.5949591398239136,-9.815030097961426,0.8667010068893433,0.01224433071911335,0.0210283063352108,0.01117960549890995
18794678363337,0.6308721303939819,-9.822212219238281,0.8427590131759644,0.008517795242369175,0.02262539230287075,0.0010647244052961469
18794679600450,0.6165069341659546,-9.849745750427246,0.8271967172622681,0.00958251953125,0.02022976242005825,0.005057440605014563
18794680837562,0.6141127347946167,-9.853337287902832,0.8535329103469849,0.012510511092841625,0.01996358297765255,0.0138414166867733
18794682074712,0.646434485912323,-9.824606895446777,0.8104372620582581,0.01357523538172245,0.0220930315554142,0.0090501569211483
18794683311825,0.6380547285079956,-9.862914085388184,0.7972691655158997,0.0181003138422966,0.02182685025036335,0.0066545275039970875
18794684548937,0.6236895322799683,-9.86770248413086,0.8415619134902954,0.0138414166867733,0.0252872034907341,0.012510511092841625
18794685786062,0.606930136680603,-9.835380554199219,0.7996633648872375,0.015172322280704975,0.0196974016726017,0.010381062515079975
18794687023200,0.6189011335372925,-9.806650161743164,0.7805097699165344,0.01463996060192585,0.01836649514734745,0.00692070834338665
18794688260312,0.6320692300796509,-9.827000617980957,0.7912836670875549,0.0138414166867733,0.01996358297765255,0.010381062515079975
18794689497425,0.6177040338516235,-9.850942611694336,0.8319851160049438,0.010913425125181675,0.0215606689453125,0.015172322280704975
18794690734537,0.5973533391952515,-9.847352027893066,0.7948749661445618,0.01224433071911335,0.01996358297765255,0.015172322280704975
18794691971650,0.6033388376235962,-9.852140426635742,0.7972691655158997,0.013309055007994175,0.0215606689453125,0.012510511092841625
18794693208762,0.669179379940033,-9.819818496704102,0.7793126702308655,0.0173017717897892,0.0204959437251091,0.0071868896484375
18794694445900,0.6248866319656372,-9.823410034179688,0.8271967172622681,0.01171196810901165,0.01996358297765255,0.0077192517928779125
18794695683037,0.6236895322799683,-9.849745750427246,0.8080430626869202,0.00931633822619915,0.01703559048473835,0.013309055007994175
18794696920150,0.608127236366272,-9.815030097961426,0.8044517636299133,0.007453070487827063,0.0191650390625,0.0167694091796875
18794698157250,0.6440402865409851,-9.856928825378418,0.811634361743927,0.010913425125181675,0.0196974016726017,0.0114457868039608
18794699394362,0.6117185354232788,-9.821015357971191,0.8032546639442444,0.013309055007994175,0.01996358297765255,0.010913425125181675
18794700631500,0.6212953329086304,-9.832986831665039,0.7864952683448792,0.01171196810901165,0.01703559048473835,0.012776692397892475
18794701868612,0.6200982332229614,-9.8784761428833,0.8403648138046265,0.008783976547420025,0.02129448764026165,0.014373779296875
18794703105725,0.6548141837120056,-9.829395294189453,0.8475474119186401,0.010913425125181675,0.02022976242005825,0.013042873702943325
18794704342850,0.5997475385665894,-9.841365814208984,0.8224083185195923,0.0090501569211483,0.02076212503015995,0.0077192517928779125
18794705579975,0.6129156351089478,-9.823410034179688,0.8236054182052612,0.00692070834338665,0.0204959437251091,0.00984870083630085
18794706817100,0.6153098344802856,-9.8784761428833,0.7972691655158997,0.008251613937318325,0.01756795309484005,0.007453070487827063
18794708054225,0.6380547285079956,-9.84495735168457,0.8379706144332886,0.008783976547420025,0.01836649514734745,0.00958251953125
18794709291337,0.6248866319656372,-9.84495735168457,0.8427590131759644,0.013042873702943325,0.01597086526453495,0.00692070834338665
18794710528462,0.606930136680603,-9.831789016723633,0.828393816947937,0.0114457868039608,0.01463996060192585,0.008251613937318325
18794711765575,0.6165069341659546,-9.84495735168457,0.8092401623725891,0.012776692397892475,0.01889885775744915,0.01117960549890995
18794713002725,0.6596025824546814,-9.847352027893066,0.7769184708595276,0.0138414166867733,0.01756795309484005,0.01463996060192585
18794714239825,0.6548141837120056,-9.836577415466309,0.8224083185195923,0.0066545275039970875,0.01756795309484005,0.01117960549890995
18794715476937,0.6141127347946167,-9.831789016723633,0.8224083185195923,0.0090501569211483,0.0167694091796875,0.006122165359556675
18794716714062,0.6428431868553162,-9.86770248413086,0.7936778664588928,0.012510511092841625,0.015438503585755825,0.0119781494140625
18794717951187,0.6189011335372925,-9.84615421295166,0.8331822156906128,0.00984870083630085,0.02182685025036335,0.01410759799182415
18794719188287,0.586579442024231,-9.840168952941895,0.8224083185195923,0.0119781494140625,0.0215606689453125,0.010381062515079975
18794720425412,0.5961562395095825,-9.817423820495605,0.8319851160049438,0.007985432632267475,0.015438503585755825,0.01224433071911335
18794721662537,0.6212953329086304,-9.827000617980957,0.7984662652015686,0.0071868896484375,0.01171196810901165,0.012776692397892475
18794722899650,0.628477931022644,-9.84495735168457,0.8056488633155823,0.0138414166867733,0.012776692397892475,0.0162370465695858
18794724136800,0.6368576288223267,-9.830592155456543,0.8355764150619507,0.0071868896484375,0.0181003138422966,0.0119781494140625
18794725373887,0.6476315855979919,-9.830592155456543,0.8547300100326538,0.012776692397892475,0.0181003138422966,0.01410759799182415
18794726611025,0.6165069341659546,-9.86889934539795,0.8367735147476196,0.007985432632267475,0.01836649514734745,0.012776692397892475
18794727848125,0.645237386226654,-9.830592155456543,0.7996633648872375,0.008251613937318325,0.01703559048473835,0.008517795242369175
18794729085262,0.6224924325942993,-9.837775230407715,0.7817068696022034,0.0114457868039608,0.01463996060192585,0.0119781494140625
18794730322362,0.585382342338562,-9.861717224121094,0.7841010689735413,0.010381062515079975,0.01650322787463665,0.012510511092841625
18794731559512,0.606930136680603,-9.830592155456543,0.7972691655158997,0.007453070487827063,0.01597086526453495,0.00984870083630085
18794732796625,0.585382342338562,-9.86770248413086,0.8224083185195923,0.00958251953125,0.01703559048473835,0.00931633822619915
18794734033725,0.628477931022644,-9.883264541625977,0.8068459630012512,0.010647243820130825,0.0162370465695858,0.0119781494140625
18794735270862,0.606930136680603,-9.841365814208984,0.8092401623725891,0.013309055007994175,0.0162370465695858,0.015438503585755825
18794736507975,0.5997475385665894,-9.856928825378418,0.7960720658302307,0.005589802749454975,0.01836649514734745,0.0114457868039608
18794737745087,0.6057330369949341,-9.855731010437012,0.829590916633606,0.0119781494140625,0.01836649514734745,0.01171196810901165
18794738982225,0.5985504388809204,-9.838972091674805,0.8331822156906128,0.013309055007994175,0.0157046839594841,0.01171196810901165
18794740219337,0.5961562395095825,-9.804256439208984,0.7936778664588928,0.005057440605014563,0.014906140975654125,0.010647243820130825
18794741456450,0.5674257874488831,-9.848548889160156,0.7841010689735413,0.0026618109550327063,0.013309055007994175,0.0071868896484375
18794742693562,0.5985504388809204,-9.882067680358887,0.8008604645729065,0.00931633822619915,0.014906140975654125,0.010647243820130825
18794743930687,0.6177040338516235,-9.836577415466309,0.849941611289978,0.01357523538172245,0.01357523538172245,0.01597086526453495
18794745167812,0.5913678407669067,-9.848548889160156,0.7960720658302307,0.0119781494140625,0.012776692397892475,0.010913425125181675
18794746404950,0.5937620401382446,-9.800664901733398,0.8212112188339233,0.01463996060192585,0.013309055007994175,0.01357523538172245
18794747642037,0.5817910432815552,-9.81143856048584,0.8595184087753296,0.0090501569211483,0.012776692397892475,0.010913425125181675
18794748879175,0.5925649404525757,-9.821015357971191,0.8834604620933533,0.01117960549890995,0.010647243820130825,0.0090501569211483
18794750116287,0.6093243360519409,-9.815030097961426,0.8583213090896606,0.0157046839594841,0.01703559048473835,0.008517795242369175
18794751353400,0.6021417379379272,-9.855731010437012,0.8248025178909302,0.00958251953125,0.0162370465695858,0.010114881210029125
18794752590537,0.5746083855628967,-9.855731010437012,0.8655039072036743,0.0077192517928779125,0.0119781494140625,0.0138414166867733
18794753827675,0.5949591398239136,-9.805453300476074,0.7876923680305481,0.010647243820130825,0.01756795309484005,0.0119781494140625
18794755064775,0.6212953329086304,-9.827000617980957,0.8236054182052612,0.01224433071911335,0.012776692397892475,0.01783413253724575
18794756301900,0.6260837316513062,-9.805453300476074,0.8427590131759644,0.013042873702943325,0.00958251953125,0.012776692397892475
18794757539037,0.5997475385665894,-9.798270225524902,0.8331822156906128,0.005855984054505825,0.012776692397892475,0.0039927163161337376
18794758776137,0.6189011335372925,-9.84495735168457,0.7984662652015686,0.010647243820130825,0.01224433071911335,0.01463996060192585
18794760013275,0.6165069341659546,-9.815030097961426,0.8020575642585754,0.013309055007994175,0.00984870083630085,0.01410759799182415
18794761250375,0.5841852426528931,-9.835380554199219,0.851138710975647,0.01410759799182415,0.014373779296875,0.01171196810901165
18794762487500,0.5937620401382446,-9.828198432922363,0.8367735147476196,0.01224433071911335,0.0157046839594841,0.010647243820130825
18794763724612,0.6177040338516235,-9.80904483795166,0.8355764150619507,0.012510511092841625,0.00931633822619915,0.00984870083630085
18794764961737,0.606930136680603,-9.847352027893066,0.8259996175765991,0.008783976547420025,0.014906140975654125,0.010381062515079975
18794766198837,0.5925649404525757,-9.824606895446777,0.8367735147476196,0.0071868896484375,0.012776692397892475,0.010913425125181675
18794767435987,0.568622887134552,-9.786299705505371,0.8319851160049438,0.006122165359556675,0.01756795309484005,0.0071868896484375
18794768673100,0.6224924325942993,-9.855731010437012,0.8619126081466675,0.0063883461989462376,0.010913425125181675,0.0063883461989462376
18794769910225,0.5746083855628967,-9.84495735168457,0.8200140595436096,0.0114457868039608,0.007453070487827063,0.01171196810901165
18794771147350,0.5398924946784973,-9.80904483795166,0.8391677141189575,0.01171196810901165,0.0090501569211483,0.01171196810901165
18794772384462,0.5614402890205383,-9.836577415466309,0.828393816947937,0.013042873702943325,0.005855984054505825,0.010114881210029125
18794773621600,0.5901707410812378,-9.861717224121094,0.8331822156906128,0.00931633822619915,0.01597086526453495,0.00931633822619915
18794774858712,0.5877765417098999,-9.822212219238281,0.8212112188339233,0.013309055007994175,0.0162370465695858,0.010114881210029125
18794776095825,0.5590460896492004,-9.806650161743164,0.8164227604866028,0.013309055007994175,0.01117960549890995,0.010114881210029125
18794777332950,0.5482721924781799,-9.791088104248047,0.8571242094039917,0.010913425125181675,0.01357523538172245,0.010913425125181675
18794778570062,0.545877993106842,-9.803058624267578,0.8343793153762817,0.0090501569211483,0.010381062515079975,0.01117960549890995
18794779807187,0.5374982953071594,-9.816226959228516,0.8212112188339233,0.007985432632267475,0.01224433071911335,0.00958251953125
18794781044312,0.586579442024231,-9.825803756713867,0.8607155084609985,0.01224433071911335,0.0181003138422966,0.010647243820130825
18794782281437,0.5386953949928284,-9.818621635437012,0.8200140595436096,0.0119781494140625,0.0173017717897892,0.00958251953125
18794783518550,0.5315127968788147,-9.799468040466309,0.7996633648872375,0.010114881210029125,0.01783413253724575,0.007453070487827063
18794784755675,0.5434837937355042,-9.797073364257812,0.811634361743927,0.007985432632267475,0.0167694091796875,0.010114881210029125
18794785992775,0.5626373887062073,-9.77552604675293,0.7960720658302307,0.00958251953125,0.0138414166867733,0.007453070487827063
18794787229925,0.5793968439102173,-9.769539833068848,0.7936778664588928,0.0119781494140625,0.0162370465695858,0.0077192517928779125
18794788467012,0.5327098965644836,-9.799468040466309,0.8152256608009338,0.013042873702943325,0.0173017717897892,0.0114457868039608
18794789704150,0.5123591423034668,-9.789891242980957,0.851138710975647,0.01117960549890995,0.013309055007994175,0.00984870083630085
18794790941275,0.48482584953308105,-9.75517463684082,0.7924807667732239,0.0119781494140625,0.010647243820130825,0.012776692397892475
18794792178375,0.5997475385665894,-9.75158405303955,0.7864952683448792,0.0119781494140625,0.0162370465695858,0.012510511092841625
18794793415525,0.5039794445037842,-9.769539833068848,0.8188169598579407,0.010114881210029125,0.01463996060192585,0.00958251953125
18794794652625,0.569819986820221,-9.743204116821289,0.7936778664588928,0.01117960549890995,0.01703559048473835,0.007985432632267475
18794795889762,0.5542576909065247,-9.763554573059082,0.7577648162841797,0.010913425125181675,0.0204959437251091,0.0119781494140625
18794797126862,0.5542576909065247,-9.791088104248047,0.8044517636299133,0.01410759799182415,0.0196974016726017,0.010913425125181675
18794798363987,0.5363011956214905,-9.822212219238281,0.7996633648872375,0.02076212503015995,0.0196974016726017,0.01117960549890995
18794799601112,0.5183447003364563,-9.816226959228516,0.8355764150619507,0.01756795309484005,0.01943122036755085,0.01224433071911335
18794800838237,0.5003881454467773,-9.850942611694336,0.8188169598579407,0.01597086526453495,0.01943122036755085,0.00931633822619915
18794802075362,0.5746083855628967,-9.827000617980957,0.7984662652015686,0.01703559048473835,0.01889885775744915,0.010647243820130825
18794803312462,0.5602431893348694,-9.837775230407715,0.8068459630012512,0.0173017717897892,0.01783413253724575,0.00931633822619915
18794804549600,0.5518634915351868,-9.818621635437012,0.871489405632019,0.0173017717897892,0.0173017717897892,0.008517795242369175
18794805786725,0.5578489899635315,-9.859322547912598,0.8810662031173706,0.01597086526453495,0.02182685025036335,0.008517795242369175
18794807023837,0.5494692921638489,-9.84256362915039,0.8319851160049438,0.0162370465695858,0.0223592109978199,0.0090501569211483
18794808260950,0.5351040959358215,-9.824606895446777,0.8092401623725891,0.0138414166867733,0.02848137728869915,0.0066545275039970875
18794809498075,0.5051765441894531,-9.84615421295166,0.7864952683448792,0.014906140975654125,0.02608574740588665,0.007985432632267475
18794810735187,0.5159504413604736,-9.823410034179688,0.8056488633155823,0.0173017717897892,0.0234239362180233,0.012510511092841625
18794811972312,0.4668693244457245,-9.847352027893066,0.8607155084609985,0.01410759799182415,0.0271504707634449,0.01357523538172245
18794813209437,0.5386953949928284,-9.81024169921875,0.8200140595436096,0.0181003138422966,0.0244886614382267,0.013309055007994175
18794814446537,0.5482721924781799,-9.793481826782227,0.8068459630012512,0.015438503585755825,0.0215606689453125,0.012510511092841625
18794815683687,0.5710170865058899,-9.77672290802002,0.8319851160049438,0.0173017717897892,0.0223592109978199,0.0063883461989462376
18794816920800,0.50876784324646,-9.795876502990723,0.8403648138046265,0.014906140975654125,0.0247548408806324,0.005057440605014563
18794818157925,0.50876784324646,-9.817423820495605,0.8331822156906128,0.012776692397892475,0.02315775491297245,0.005589802749454975
18794819395025,0.5159504413604736,-9.77791976928711,0.8164227604866028,0.0167694091796875,0.02369011752307415,0.008251613937318325
18794820632162,0.5159504413604736,-9.761160850524902,0.8379706144332886,0.0167694091796875,0.02555338479578495,0.013309055007994175
18794821869275,0.52552729845047,-9.797073364257812,0.8212112188339233,0.0167694091796875,0.0252872034907341,0.01836649514734745
18794823106412,0.5327098965644836,-9.771934509277344,0.8020575642585754,0.0196974016726017,0.02741665206849575,0.0114457868039608
18794824343512,0.5363011956214905,-9.780314445495605,0.8080430626869202,0.0191650390625,0.02315775491297245,0.0114457868039608
18794825580637,0.5159504413604736,-9.75517463684082,0.7852981686592102,0.0157046839594841,0.02422248013317585,0.012776692397892475
18794826817762,0.5578489899635315,-9.757569313049316,0.8068459630012512,0.0204959437251091,0.0276828333735466,0.010913425125181675
18794828054862,0.5734112858772278,-9.77791976928711,0.7936778664588928,0.0220930315554142,0.0268842913210392,0.01224433071911335
18794829291987,0.4991910457611084,-9.75397777557373,0.828393816947937,0.0210283063352108,0.03034464456140995,0.01357523538172245
18794830529112,0.5374982953071594,-9.835380554199219,0.8571242094039917,0.01943122036755085,0.0322079136967659,0.007453070487827063
18794831766250,0.5446808934211731,-9.77552604675293,0.8140285611152649,0.02022976242005825,0.0306108258664608,0.00692070834338665
18794833003375,0.5099649429321289,-9.830592155456543,0.8032546639442444,0.015438503585755825,0.0311431884765625,0.0071868896484375
18794834240475,0.5051765441894531,-9.827000617980957,0.7781155705451965,0.0173017717897892,0.0295461006462574,0.00958251953125
18794835477600,0.5339069962501526,-9.831789016723633,0.8475474119186401,0.0220930315554142,0.0295461006462574,0.00958251953125
18794836714725,0.5554547905921936,-9.827000617980957,0.7876923680305481,0.01703559048473835,0.0292799212038517,0.0090501569211483
18794837951837,0.5327098965644836,-9.818621635437012,0.7817068696022034,0.0204959437251091,0.0356682650744915,0.010381062515079975
18794839188975,0.5123591423034668,-9.786299705505371,0.8355764150619507,0.02315775491297245,0.0316755510866642,0.0029279920272529125
18794840426087,0.524330198764801,-9.830592155456543,0.8152256608009338,0.01836649514734745,0.0343373604118824,0.0018632676219567657
18794841663200,0.5339069962501526,-9.864110946655273,0.8176198601722717,0.01996358297765255,0.0351359061896801,0.005855984054505825
18794842900325,0.5518634915351868,-9.835380554199219,0.828393816947937,0.0220930315554142,0.0343373604118824,0.00958251953125
18794844137437,0.5410895943641663,-9.835380554199219,0.8319851160049438,0.02076212503015995,0.0324740931391716,0.008783976547420025
18794845374575,0.5434837937355042,-9.824606895446777,0.7733271718025208,0.01943122036755085,0.0359344482421875,0.0071868896484375
18794846611675,0.49799394607543945,-9.865307807922363,0.8080430626869202,0.01410759799182415,0.033538818359375,0.005855984054505825
18794847848787,0.5614402890205383,-9.804256439208984,0.7960720658302307,0.0114457868039608,0.0322079136967659,0.005589802749454975
18794849085912,0.5578489899635315,-9.827000617980957,0.7972691655158997,0.0162370465695858,0.0354020856320858,0.008251613937318325
18794850323025,0.507570743560791,-9.824606895446777,0.8092401623725891,0.02129448764026165,0.0367329902946949,0.0023956298828125
18794851560162,0.524330198764801,-9.830592155456543,0.8008604645729065,0.0181003138422966,0.0362006276845932,0.005057440605014563
18794852797287,0.5602431893348694,-9.791088104248047,0.7996633648872375,0.01703559048473835,0.0351359061896801,0.00692070834338665
18794854034400,0.5578489899635315,-9.835380554199219,0.8415619134902954,0.02076212503015995,0.0354020856320858,0.0053236219100654125
18794855271525,0.5518634915351868,-9.84376049041748,0.8236054182052612,0.0181003138422966,0.0377977155148983,-0.0013309054775163531
18794856508650,0.5315127968788147,-9.838972091674805,0.7984662652015686,0.0167694091796875,0.0388624407351017,0.0042588976211845875
18794857745775,0.5518634915351868,-9.849745750427246,0.8547300100326538,0.01703559048473835,0.0351359061896801,0.0053236219100654125
18794858982875,0.5590460896492004,-9.838972091674805,0.7972691655158997,0.01703559048473835,0.0385962575674057,0.0021294488105922937
18794860220012,0.5973533391952515,-9.823410034179688,0.849941611289978,0.02022976242005825,0.0356682650744915,0.0053236219100654125
18794861457137,0.5554547905921936,-9.799468040466309,0.8188169598579407,0.0181003138422966,0.0375315360724926,0.0063883461989462376
18794862694262,0.5374982953071594,-9.821015357971191,0.8080430626869202,0.0186326764523983,0.0375315360724926,0.0015970865497365594
18794863931362,0.5506663918495178,-9.783905029296875,0.8343793153762817,0.01410759799182415,0.0348697230219841,0.00452507846057415
18794865168475,0.5446808934211731,-9.852140426635742,0.811634361743927,0.0162370465695858,0.0351359061896801,0.004791259765625
18794866405600,0.5889736413955688,-9.81143856048584,0.8080430626869202,0.014906140975654125,0.033272635191679,-0.003460354171693325
18794867642737,0.5494692921638489,-9.791088104248047,0.790086567401886,0.01703559048473835,0.038063894957304,-0.0023956298828125
18794868879862,0.5590460896492004,-9.821015357971191,0.8367735147476196,0.01597086526453495,0.0393948033452034,0.008783976547420025
18794870116950,0.6021417379379272,-9.81024169921875,0.8200140595436096,0.01357523538172245,0.0354020856320858,0.0015970865497365594
18794871354100,0.5614402890205383,-9.817423820495605,0.8152256608009338,0.01996358297765255,0.0375315360724926,0.0
18794872591212,0.5770025849342346,-9.816226959228516,0.8451532125473022,0.0191650390625,0.0401933453977108,0.0029279920272529125
18794873828325,0.6141127347946167,-9.841365814208984,0.8415619134902954,0.01889885775744915,0.0340711809694767,0.006122165359556675
18794875065450,0.5770025849342346,-9.815030097961426,0.8104372620582581,0.0157046839594841,0.0367329902946949,0.0018632676219567657
18794876302587,0.6129156351089478,-9.821015357971191,0.8080430626869202,0.02022976242005825,0.0348697230219841,0.0026618109550327063
18794877539700,0.5877765417098999,-9.817423820495605,0.7781155705451965,0.0215606689453125,0.03034464456140995,0.0029279920272529125
18794878776825,0.5494692921638489,-9.84495735168457,0.8307880163192749,0.0204959437251091,0.033538818359375,0.00452507846057415
18794880013950,0.5913678407669067,-9.824606895446777,0.8834604620933533,0.01996358297765255,0.0343373604118824,0.008517795242369175
18794881251062,0.5829881429672241,-9.848548889160156,0.8487445116043091,0.0186326764523983,0.033272635191679,0.008783976547420025
18794882488175,0.628477931022644,-9.829395294189453,0.8236054182052612,0.0196974016726017,0.03034464456140995,0.0021294488105922937
18794883725312,0.6141127347946167,-9.84256362915039,0.812831461429596,0.01996358297765255,0.0359344482421875,0.007453070487827063
18794884962437,0.5566518902778625,-9.816226959228516,0.8092401623725891,0.01943122036755085,0.0385962575674057,0.007985432632267475
18794886199537,0.5985504388809204,-9.852140426635742,0.828393816947937,0.01783413253724575,0.033538818359375,0.0066545275039970875
18794887436650,0.5734112858772278,-9.858125686645508,0.8271967172622681,0.01410759799182415,0.0346035435795784,0.00452507846057415
18794888673800,0.6141127347946167,-9.848548889160156,0.8487445116043091,0.0167694091796875,0.03034464456140995,0.005855984054505825
18794889910900,0.6141127347946167,-9.801861763000488,0.8439561128616333,0.01783413253724575,0.02874755859375,0.0077192517928779125
18794891148025,0.5710170865058899,-9.817423820495605,0.8343793153762817,0.01836649514734745,0.0268842913210392,0.01117960549890995
18794892385137,0.586579442024231,-9.861717224121094,0.851138710975647,0.01943122036755085,0.0292799212038517,0.0090501569211483
18794893622262,0.5949591398239136,-9.823410034179688,0.829590916633606,0.01996358297765255,0.0314093679189682,0.0066545275039970875
18794894859387,0.629675030708313,-9.832986831665039,0.851138710975647,0.01996358297765255,0.0271504707634449,0.0066545275039970875
18794896096500,0.6057330369949341,-9.81143856048584,0.8152256608009338,0.0196974016726017,0.0271504707634449,0.00931633822619915
18794897333625,0.606930136680603,-9.817423820495605,0.8403648138046265,0.02022976242005825,0.02874755859375,0.00452507846057415
18794898570737,0.608127236366272,-9.800664901733398,0.8738836050033569,0.0220930315554142,0.0314093679189682,0.0090501569211483
18794899807862,0.5662286877632141,-9.792284965515137,0.811634361743927,0.02315775491297245,0.0220930315554142,0.0119781494140625
18794901044975,0.6177040338516235,-9.838972091674805,0.8571242094039917,0.01836649514734745,0.0311431884765625,0.012776692397892475
18794902282112,0.6200982332229614,-9.816226959228516,0.8667010068893433,0.0186326764523983,0.03034464456140995,0.0026618109550327063
18794903519225,0.6368576288223267,-9.81143856048584,0.8571242094039917,0.02182685025036335,0.02794901467859745,0.0071868896484375
18794904756337,0.6368576288223267,-9.825803756713867,0.8547300100326538,0.0271504707634449,0.02555338479578495,0.004791259765625
18794905993475,0.6320692300796509,-9.848548889160156,0.8870517611503601,0.0191650390625,0.02848137728869915,0.0005323622026480734
18794907230587,0.6392518877983093,-9.805453300476074,0.829590916633606,0.02422248013317585,0.0196974016726017,0.006122165359556675
18794908467712,0.6129156351089478,-9.793481826782227,0.7960720658302307,0.0234239362180233,0.0252872034907341,0.010913425125181675
18794909704825,0.6165069341659546,-9.803058624267578,0.8319851160049438,0.02076212503015995,0.02422248013317585,0.0090501569211483
18794910941962,0.6153098344802856,-9.823410034179688,0.8535329103469849,0.0191650390625,0.02315775491297245,0.007453070487827063
18794912179100,0.5805939435958862,-9.825803756713867,0.8762778043746948,0.0173017717897892,0.02661811001598835,0.005057440605014563
18794913416187,0.6141127347946167,-9.828198432922363,0.8176198601722717,0.02076212503015995,0.02741665206849575,0.0039927163161337376
18794914653312,0.6380547285079956,-9.816226959228516,0.8152256608009338,0.0234239362180233,0.0258195661008358,0.008517795242369175
18794915890425,0.5973533391952515,-9.804256439208984,0.8391677141189575,0.02315775491297245,0.0228915736079216,0.010381062515079975
18794917127562,0.5877765417098999,-9.848548889160156,0.8140285611152649,0.02369011752307415,0.02022976242005825,0.008251613937318325
18794918364662,0.6105214357376099,-9.841365814208984,0.8451532125473022,0.02182685025036335,0.0258195661008358,0.007453070487827063
18794919601787,0.6153098344802856,-9.854534149169922,0.8631097078323364,0.0244886614382267,0.02182685025036335,0.010913425125181675
18794920838925,0.628477931022644,-9.854534149169922,0.8583213090896606,0.02262539230287075,0.0210283063352108,0.010647243820130825
18794922076037,0.6141127347946167,-9.836577415466309,0.8463503122329712,0.02182685025036335,0.01703559048473835,0.01357523538172245
18794923313150,0.5674257874488831,-9.827000617980957,0.9050082564353943,0.01996358297765255,0.02076212503015995,0.01171196810901165
18794924550262,0.5770025849342346,-9.850942611694336,0.8475474119186401,0.0252872034907341,0.0228915736079216,0.00984870083630085
18794925787400,0.6344634294509888,-9.821015357971191,0.8631097078323364,0.02076212503015995,0.0204959437251091,0.013042873702943325
18794927024512,0.6224924325942993,-9.829395294189453,0.8379706144332886,0.01703559048473835,0.0186326764523983,0.007453070487827063
18794928261625,0.6344634294509888,-9.827000617980957,0.872686505317688,0.01943122036755085,0.0173017717897892,0.00931633822619915
18794929498775,0.6141127347946167,-9.815030097961426,0.8020575642585754,0.0258195661008358,0.01463996060192585,0.00984870083630085
18794930735862,0.6153098344802856,-9.823410034179688,0.8487445116043091,0.0204959437251091,0.01357523538172245,0.006122165359556675
18794931973012,0.6572083830833435,-9.819818496704102,0.851138710975647,0.0191650390625,0.0191650390625,0.005589802749454975
18794933210112,0.6117185354232788,-9.862914085388184,0.851138710975647,0.0196974016726017,0.012776692397892475,0.010913425125181675
18794934447237,0.6105214357376099,-9.825803756713867,0.889445960521698,0.02848137728869915,0.013042873702943325,0.008517795242369175
18794935684375,0.6643909811973572,-9.84495735168457,0.8667010068893433,0.0220930315554142,0.00692070834338665,0.007985432632267475
18794936921487,0.6177040338516235,-9.816226959228516,0.8367735147476196,0.01756795309484005,0.01117960549890995,0.012776692397892475
18794938158600,0.6344634294509888,-9.831789016723633,0.8595184087753296,0.0157046839594841,0.0157046839594841,0.007985432632267475
18794939395725,0.6272808313369751,-9.84256362915039,0.8822633624076843,0.015438503585755825,0.00931633822619915,0.0071868896484375
18794940632850,0.608127236366272,-9.816226959228516,0.8080430626869202,0.0162370465695858,0.0114457868039608,0.013042873702943325
18794941869950,0.5937620401382446,-9.856928825378418,0.8690952062606812,0.014906140975654125,0.0157046839594841,0.010913425125181675
18794943107087,0.6093243360519409,-9.84615421295166,0.8846575617790222,0.0173017717897892,0.00931633822619915,0.008783976547420025
18794944344187,0.6560112833976746,-9.847352027893066,0.8535329103469849,0.0162370465695858,0.01463996060192585,0.008517795242369175
18794945581312,0.6368576288223267,-9.841365814208984,0.849941611289978,0.0167694091796875,0.008517795242369175,0.01224433071911335
18794946818425,0.6248866319656372,-9.858125686645508,0.871489405632019,0.01783413253724575,0.0066545275039970875,0.01171196810901165
18794948055562,0.6248866319656372,-9.829395294189453,0.8200140595436096,0.0204959437251091,0.008517795242369175,0.0063883461989462376
18794949292700,0.6212953329086304,-9.827000617980957,0.8439561128616333,0.0162370465695858,0.0077192517928779125,0.00452507846057415
18794950529800,0.6308721303939819,-9.832986831665039,0.8379706144332886,0.01889885775744915,0.012776692397892475,0.00692070834338665
18794951766925,0.6153098344802856,-9.840168952941895,0.829590916633606,0.01996358297765255,0.007985432632267475,0.00931633822619915
18794953004050,0.6200982332229614,-9.87967300415039,0.8331822156906128,0.01410759799182415,0.0007985432748682797,0.0077192517928779125
18794954241175,0.5734112858772278,-9.870096206665039,0.8822633624076843,0.01410759799182415,0.0007985432748682797,0.008517795242369175
18794955478287,0.6021417379379272,-9.86889934539795,0.8774749040603638,0.012776692397892475,0.0031941730994731188,0.0053236219100654125
18794956715412,0.5973533391952515,-9.86889934539795,0.851138710975647,0.008517795242369175,0.010114881210029125,0.006122165359556675
18794957952525,0.6356605291366577,-9.847352027893066,0.8523358106613159,0.01410759799182415,0.0037265352439135313,0.0071868896484375
18794959189662,0.6093243360519409,-9.829395294189453,0.8487445116043091,0.01171196810901165,0.0010647244052961469,0.007453070487827063
18794960426762,0.5590460896492004,-9.837775230407715,0.8200140595436096,0.01224433071911335,-0.0031941730994731188,0.00931633822619915
18794961663887,0.5913678407669067,-9.840168952941895,0.8978256583213806,0.01357523538172245,0.0005323622026480734,0.006122165359556675
18794962901025,0.5973533391952515,-9.830592155456543,0.8583213090896606,0.012510511092841625,0.0005323622026480734,0.008251613937318325
18794964138137,0.5734112858772278,-9.855731010437012,0.8762778043746948,0.012776692397892475,0.0010647244052961469,0.0037265352439135313
18794965375250,0.5734112858772278,-9.84615421295166,0.8475474119186401,0.0114457868039608,0.0053236219100654125,0.004791259765625
18794966612375,0.5710170865058899,-9.86889934539795,0.8631097078323364,0.01117960549890995,-0.0015970865497365594,0.00692070834338665
18794967849500,0.5722141861915588,-9.84376049041748,0.8798691034317017,0.008251613937318325,-0.0029279920272529125,0.008517795242369175
18794969086612,0.5746083855628967,-9.853337287902832,0.8702923059463501,0.005589802749454975,0.0037265352439135313,0.0063883461989462376
18794970323750,0.6129156351089478,-9.84376049041748,0.8259996175765991,0.00692070834338665,0.005855984054505825,0.0039927163161337376
18794971560862,0.5781997442245483,-9.888052940368652,0.8331822156906128,0.0066545275039970875,0.0005323622026480734,0.006122165359556675
18794972797987,0.585382342338562,-9.850942611694336,0.8403648138046265,0.008517795242369175,0.0005323622026480734,0.008517795242369175
18794974035087,0.6153098344802856,-9.827000617980957,0.8786720037460327,0.006122165359556675,-0.0018632676219567657,0.00958251953125
18794975272225,0.6488286852836609,-9.852140426635742,0.8619126081466675,0.003460354171693325,-0.0042588976211845875,0.007985432632267475
18794976509337,0.6404489874839783,-9.86650562286377,0.8690952062606812,0.00452507846057415,-0.005057440605014563,0.008251613937318325
18794977746462,0.6021417379379272,-9.856928825378418,0.871489405632019,-0.0010647244052961469,-0.005057440605014563,0.01224433071911335
18794978983587,0.5638344883918762,-9.831789016723633,0.849941611289978,0.0037265352439135313,-0.007453070487827063,0.013042873702943325
18794980220687,0.6045359373092651,-9.897629737854004,0.8307880163192749,0.005057440605014563,-0.005855984054505825,0.004791259765625
18794981457825,0.5841852426528931,-9.84615421295166,0.8858546614646912,0.0037265352439135313,-0.0077192517928779125,0.008517795242369175
18794982694950,0.6272808313369751,-9.818621635437012,0.8798691034317017,0.0042588976211845875,-0.0071868896484375,0.010913425125181675
18794983932050,0.6093243360519409,-9.865307807922363,0.851138710975647,0.0037265352439135313,-0.00984870083630085,0.0077192517928779125
18794985169187,0.6117185354232788,-9.86889934539795,0.8463503122329712,0.0029279920272529125,-0.0077192517928779125,0.00452507846057415
18794986406312,0.5710170865058899,-9.858125686645508,0.8595184087753296,0.0042588976211845875,-0.010913425125181675,0.0071868896484375
18794987643425,0.5817910432815552,-9.84256362915039,0.8475474119186401,-0.0013309054775163531,-0.006122165359556675,0.0063883461989462376
18794988880550,0.5758054852485657,-9.865307807922363,0.8487445116043091,0.0010647244052961469,-0.00984870083630085,0.008517795242369175
18794990117687,0.5770025849342346,-9.885659217834473,0.8655039072036743,-0.0005323622026480734,-0.00931633822619915,0.00452507846057415
18794991354775,0.5542576909065247,-9.860519409179688,0.849941611289978,-0.0010647244052961469,-0.008251613937318325,0.012776692397892475
18794992591900,0.6093243360519409,-9.877279281616211,0.872686505317688,0.0018632676219567657,-0.0119781494140625,0.0114457868039608
18794993829037,0.5638344883918762,-9.888052940368652,0.851138710975647,0.0018632676219567657,-0.01783413253724575,0.0119781494140625
18794995066150,0.5602431893348694,-9.837775230407715,0.8571242094039917,-0.0007985432748682797,-0.007453070487827063,0.010381062515079975
18794996303275,0.5602431893348694,-9.847352027893066,0.8774749040603638,0.0002661811013240367,-0.005855984054505825,0.007453070487827063
18794997540412,0.5913678407669067,-9.84615421295166,0.8702923059463501,0.0015970865497365594,-0.0119781494140625,0.0077192517928779125
18794998777500,0.5877765417098999,-9.874884605407715,0.8678981065750122,-0.0039927163161337376,-0.012776692397892475,0.0090501569211483
18795000014625,0.5410895943641663,-9.865307807922363,0.8870517611503601,-0.005589802749454975,-0.00984870083630085,0.008251613937318325
18795001251750,0.5805939435958862,-9.821015357971191,0.888248860836029,-0.0071868896484375,-0.0119781494140625,0.0077192517928779125
18795002488887,0.6117185354232788,-9.880870819091797,0.8523358106613159,-0.003460354171693325,-0.012510511092841625,0.008783976547420025
18795003726000,0.5710170865058899,-9.884461402893066,0.8451532125473022,-0.005855984054505825,-0.014373779296875,0.00984870083630085
18795004963137,0.5889736413955688,-9.86650562286377,0.8738836050033569,-0.0077192517928779125,-0.014906140975654125,0.0071868896484375
18795006200250,0.5805939435958862,-9.831789016723633,0.8188169598579407,-0.005057440605014563,-0.01224433071911335,0.004791259765625
18795007437362,0.6440402865409851,-9.850942611694336,0.8762778043746948,-0.006122165359556675,-0.008251613937318325,0.005589802749454975
18795008674500,0.5614402890205383,-9.861717224121094,0.828393816947937,-0.0077192517928779125,-0.014373779296875,0.0039927163161337376
18795009911600,0.585382342338562,-9.848548889160156,0.8798691034317017,0.0013309054775163531,-0.01597086526453495,0.005589802749454975
18795011148725,0.5638344883918762,-9.84376049041748,0.8678981065750122,-0.0023956298828125,-0.01597086526453495,0.006122165359556675
18795012385837,0.586579442024231,-9.819818496704102,0.829590916633606,-0.004791259765625,-0.01889885775744915,0.010381062515079975
18795013622975,0.5949591398239136,-9.81024169921875,0.849941611289978,-0.0042588976211845875,-0.01463996060192585,0.00958251953125
18795014860100,0.5781997442245483,-9.864110946655273,0.8678981065750122,-0.005855984054505825,-0.01357523538172245,0.00692070834338665
18795016097212,0.5901707410812378,-9.86889934539795,0.8631097078323364,-0.00931633822619915,-0.01463996060192585,0.008517795242369175
18795017334337,0.5913678407669067,-9.87967300415039,0.8535329103469849,-0.008783976547420025,-0.014906140975654125,0.008517795242369175
18795018571462,0.5901707410812378,-9.861717224121094,0.8918401598930359,-0.01171196810901165,-0.010381062515079975,0.0077192517928779125
18795019808587,0.545877993106842,-9.828198432922363,0.8619126081466675,-0.00984870083630085,-0.010647243820130825,0.00452507846057415
18795021045687,0.5542576909065247,-9.84495735168457,0.8391677141189575,-0.008783976547420025,-0.01703559048473835,0.0039927163161337376
18795022282812,0.5434837937355042,-9.849745750427246,0.8786720037460327,-0.005589802749454975,-0.0138414166867733,0.005855984054505825
18795023519925,0.5578489899635315,-9.852140426635742,0.8643068075180054,-0.0090501569211483,-0.01463996060192585,0.0021294488105922937
18795024757037,0.5506663918495178,-9.837775230407715,0.8667010068893433,-0.012510511092841625,-0.01650322787463665,-0.0005323622026480734
18795025994175,0.507570743560791,-9.800664901733398,0.8535329103469849,-0.00984870083630085,-0.01117960549890995,0.0042588976211845875
18795027231300,0.5734112858772278,-9.828198432922363,0.8367735147476196,-0.0029279920272529125,-0.01357523538172245,0.00958251953125
18795028468425,0.5063736438751221,-9.834183692932129,0.8463503122329712,-0.007985432632267475,-0.0191650390625,0.007985432632267475
18795029705525,0.5650315880775452,-9.849745750427246,0.8307880163192749,-0.008517795242369175,-0.01703559048473835,0.003460354171693325
18795030942662,0.5913678407669067,-9.859322547912598,0.8798691034317017,-0.010647243820130825,-0.013042873702943325,0.0026618109550327063
18795032179787,0.5793968439102173,-9.850942611694336,0.8667010068893433,-0.013042873702943325,-0.00958251953125,0.005589802749454975
18795033416900,0.5494692921638489,-9.883264541625977,0.8667010068893433,-0.0063883461989462376,-0.01703559048473835,0.0071868896484375
18795034654025,0.5602431893348694,-9.894038200378418,0.8678981065750122,-0.010381062515079975,-0.0119781494140625,0.0037265352439135313
18795035891137,0.5734112858772278,-9.865307807922363,0.8271967172622681,-0.0114457868039608,-0.00958251953125,0.0031941730994731188
18795037128262,0.5363011956214905,-9.86889934539795,0.8583213090896606,-0.012510511092841625,-0.0090501569211483,0.0039927163161337376
18795038365387,0.524330198764801,-9.884461402893066,0.8379706144332886,-0.01463996060192585,-0.014906140975654125,0.005589802749454975
18795039602500,0.547075092792511,-9.815030097961426,0.8535329103469849,-0.01463996060192585,-0.012776692397892475,0.0005323622026480734
18795040839612,0.5494692921638489,-9.855731010437012,0.8008604645729065,-0.010647243820130825,-0.0138414166867733,-0.004791259765625
18795042076725,0.5123591423034668,-9.874884605407715,0.828393816947937,-0.008783976547420025,-0.012776692397892475,0.0053236219100654125
18795043313862,0.545877993106842,-9.807847023010254,0.8379706144332886,-0.01117960549890995,-0.010647243820130825,0.0005323622026480734
18795044550987,0.547075092792511,-9.850942611694336,0.8176198601722717,-0.01224433071911335,-0.01224433071911335,-0.0010647244052961469
18795045788100,0.5602431893348694,-9.849745750427246,0.7876923680305481,-0.007985432632267475,-0.015438503585755825,0.0005323622026480734
18795047025237,0.52552729845047,-9.862914085388184,0.8535329103469849,-0.014906140975654125,-0.008783976547420025,0.0010647244052961469
18795048262375,0.5231330990791321,-9.841365814208984,0.8367735147476196,-0.013309055007994175,-0.010647243820130825,0.005855984054505825
18795049499462,0.5434837937355042,-9.853337287902832,0.8164227604866028,-0.0173017717897892,-0.00958251953125,-0.0029279920272529125
18795050736587,0.5291185975074768,-9.831789016723633,0.812831461429596,-0.0138414166867733,-0.006122165359556675,-0.00452507846057415
18795051973725,0.5231330990791321,-9.841365814208984,0.8056488633155823,-0.015438503585755825,-0.010114881210029125,0.0037265352439135313
18795053210837,0.5267243981361389,-9.818621635437012,0.8212112188339233,-0.015172322280704975,-0.005057440605014563,0.0026618109550327063
18795054447950,0.5363011956214905,-9.850942611694336,0.8068459630012512,-0.01597086526453495,-0.0066545275039970875,-0.0021294488105922937
18795055685062,0.5602431893348694,-9.822212219238281,0.8427590131759644,-0.00958251953125,-0.005057440605014563,0.0053236219100654125
18795056922187,0.5937620401382446,-9.800664901733398,0.8559271097183228,-0.0114457868039608,-0.00452507846057415,0.00692070834338665
18795058159287,0.5434837937355042,-9.787496566772461,0.829590916633606,-0.013042873702943325,-0.005589802749454975,0.0005323622026480734
18795059396425,0.5817910432815552,-9.825803756713867,0.7793126702308655,-0.01224433071911335,-0.008517795242369175,-0.0013309054775163531
18795060633562,0.5746083855628967,-9.836577415466309,0.8391677141189575,-0.01410759799182415,-0.0066545275039970875,-0.0053236219100654125
18795061870650,0.5291185975074768,-9.876082420349121,0.8176198601722717,-0.0157046839594841,-0.0031941730994731188,0.0007985432748682797
18795063107787,0.5482721924781799,-9.818621635437012,0.8355764150619507,-0.014906140975654125,-0.007985432632267475,-0.0005323622026480734
18795064344912,0.5195418000221252,-9.828198432922363,0.8607155084609985,-0.01171196810901165,-0.007985432632267475,-0.0005323622026480734
18795065582025,0.5123591423034668,-9.829395294189453,0.8403648138046265,-0.0138414166867733,-0.0031941730994731188,-0.0005323622026480734
18795066819162,0.5207388997077942,-9.806650161743164,0.8403648138046265,-0.01650322787463665,-0.0026618109550327063,-0.0026618109550327063
18795068056275,0.5518634915351868,-9.824606895446777,0.829590916633606,-0.01597086526453495,-0.0013309054775163531,-0.0018632676219567657
18795069293412,0.5494692921638489,-9.835380554199219,0.828393816947937,-0.01357523538172245,-0.0026618109550327063,0.0018632676219567657
18795070530512,0.5327098965644836,-9.822212219238281,0.8343793153762817,-0.010381062515079975,-0.0023956298828125,-0.0039927163161337376
18795071767637,0.5506663918495178,-9.81143856048584,0.8595184087753296,-0.01597086526453495,0.0005323622026480734,-0.00452507846057415
18795073004762,0.5159504413604736,-9.821015357971191,0.8080430626869202,-0.01783413253724575,0.0023956298828125,-0.0026618109550327063
18795074241887,0.5039794445037842,-9.864110946655273,0.8463503122329712,-0.014373779296875,-0.0029279920272529125,-0.0042588976211845875
18795075478987,0.5123591423034668,-9.847352027893066,0.8307880163192749,-0.012510511092841625,0.0,-0.0010647244052961469
18795076716125,0.545877993106842,-9.831789016723633,0.829590916633606,-0.010381062515079975,0.0002661811013240367,-0.0005323622026480734
18795077953212,0.5279214978218079,-9.817423820495605,0.8056488633155823,-0.0119781494140625,-0.0023956298828125,-0.005057440605014563
18795079190375,0.48243165016174316,-9.835380554199219,0.8307880163192749,-0.015438503585755825,0.0090501569211483,-0.00692070834338665
18795080427487,0.5339069962501526,-9.84615421295166,0.8068459630012512,-0.015172322280704975,0.008251613937318325,-0.004791259765625
18795081664612,0.5267243981361389,-9.86770248413086,0.8164227604866028,-0.0181003138422966,0.0023956298828125,0.0005323622026480734
18795082901725,0.5027823448181152,-9.81143856048584,0.8475474119186401,-0.02022976242005825,0.0013309054775163531,0.0002661811013240367
18795084138862,0.5374982953071594,-9.84256362915039,0.8176198601722717,-0.015172322280704975,0.004791259765625,-0.0037265352439135313
18795085375975,0.5530605912208557,-9.840168952941895,0.8212112188339233,-0.0157046839594841,0.0031941730994731188,-0.0063883461989462376
18795086613100,0.5434837937355042,-9.819818496704102,0.8307880163192749,-0.00958251953125,-0.0023956298828125,0.0010647244052961469
18795087850225,0.5351040959358215,-9.84376049041748,0.7625532746315002,-0.01357523538172245,0.0066545275039970875,-0.0015970865497365594
18795089087337,0.5219359993934631,-9.822212219238281,0.7769184708595276,-0.01357523538172245,0.008251613937318325,-0.00692070834338665
18795090324450,0.5770025849342346,-9.825803756713867,0.8307880163192749,-0.015172322280704975,0.008783976547420025,-0.00452507846057415
18795091561575,0.5183447003364563,-9.849745750427246,0.8044517636299133,-0.0157046839594841,0.00931633822619915,-0.0021294488105922937
18795092798700,0.49799394607543945,-9.823410034179688,0.7793126702308655,-0.01650322787463665,0.01224433071911335,-0.0053236219100654125
18795094035837,0.5111620426177979,-9.834183692932129,0.8463503122329712,-0.014906140975654125,0.0162370465695858,-0.0063883461989462376
18795095272925,0.5195418000221252,-9.855731010437012,0.788889467716217,-0.01836649514734745,0.014373779296875,-0.006122165359556675
18795096510062,0.5351040959358215,-9.831789016723633,0.8140285611152649,-0.014906140975654125,0.012510511092841625,-0.0039927163161337376
18795097747162,0.524330198764801,-9.792284965515137,0.8319851160049438,-0.0077192517928779125,0.00958251953125,-0.00452507846057415
18795098984312,0.5398924946784973,-9.794679641723633,0.8678981065750122,-0.01171196810901165,0.012510511092841625,-0.0039927163161337376
18795100221425,0.5315127968788147,-9.816226959228516,0.8032546639442444,-0.01171196810901165,0.01597086526453495,-0.0071868896484375
18795101458537,0.5267243981361389,-9.813833236694336,0.7924807667732239,-0.00958251953125,0.0138414166867733,-0.00692070834338665
18795102695650,0.5327098965644836,-9.823410034179688,0.7972691655158997,-0.0119781494140625,0.01357523538172245,-0.006122165359556675
18795103932787,0.5422866940498352,-9.815030097961426,0.8331822156906128,-0.00984870083630085,0.0090501569211483,-0.0007985432748682797
18795105169912,0.5339069962501526,-9.825803756713867,0.8319851160049438,-0.010381062515079975,0.0138414166867733,-0.003460354171693325
18795106407025,0.4944026470184326,-9.831789016723633,0.8044517636299133,-0.015438503585755825,0.02022976242005825,-0.0031941730994731188
18795107644150,0.5374982953071594,-9.806650161743164,0.8667010068893433,-0.0138414166867733,0.01889885775744915,-0.0071868896484375
18795108881262,0.5422866940498352,-9.787496566772461,0.7493851184844971,-0.01171196810901165,0.0210283063352108,-0.0039927163161337376
18795110118400,0.547075092792511,-9.793481826782227,0.7829039692878723,-0.00931633822619915,0.01703559048473835,-0.0007985432748682797
18795111355512,0.524330198764801,-9.793481826782227,0.7924807667732239,-0.00692070834338665,0.01597086526453495,-0.007453070487827063
18795112592625,0.5482721924781799,-9.818621635437012,0.8188169598579407,-0.0063883461989462376,0.0138414166867733,-0.00452507846057415
18795113829750,0.5027823448181152,-9.81143856048584,0.849941611289978,-0.00931633822619915,0.02022976242005825,-0.0039927163161337376
18795115066875,0.5195418000221252,-9.798270225524902,0.8164227604866028,-0.0090501569211483,0.0247548408806324,-0.0053236219100654125
18795116304000,0.5135562419891357,-9.794679641723633,0.7972691655158997,-0.0031941730994731188,0.023956298828125,-0.0013309054775163531
18795117541112,0.5422866940498352,-9.84376049041748,0.7960720658302307,-0.00931633822619915,0.02129448764026165,-0.007453070487827063
18795118778237,0.5398924946784973,-9.791088104248047,0.8236054182052612,-0.008251613937318325,0.01836649514734745,-0.01224433071911335
18795120015337,0.5159504413604736,-9.792284965515137,0.8212112188339233,-0.0114457868039608,0.02315775491297245,-0.00958251953125
18795121252462,0.5434837937355042,-9.80904483795166,0.8391677141189575,-0.010381062515079975,0.02369011752307415,-0.0026618109550327063
18795122489612,0.5147533416748047,-9.81143856048584,0.829590916633606,-0.00958251953125,0.02661811001598835,-0.0010647244052961469
18795123726712,0.5386953949928284,-9.786299705505371,0.8224083185195923,-0.00692070834338665,0.0220930315554142,-0.006122165359556675
18795124963837,0.5410895943641663,-9.80904483795166,0.8164227604866028,-0.0066545275039970875,0.0252872034907341,-0.004791259765625
18795126200962,0.5482721924781799,-9.806650161743164,0.8307880163192749,-0.0023956298828125,0.0263519287109375,-0.0013309054775163531
18795127438062,0.5315127968788147,-9.787496566772461,0.8200140595436096,-0.0039927163161337376,0.0247548408806324,-0.0002661811013240367
18795128675225,0.5051765441894531,-9.746795654296875,0.8307880163192749,-0.00984870083630085,0.02848137728869915,-0.008251613937318325
18795129912325,0.5674257874488831,-9.81024169921875,0.7972691655158997,-0.006122165359556675,0.0228915736079216,-0.0071868896484375
18795131149437,0.6141127347946167,-9.81263542175293,0.8212112188339233,-0.0063883461989462376,0.0263519287109375,-0.0023956298828125
18795132386562,0.5566518902778625,-9.791088104248047,0.8631097078323364,-0.00931633822619915,0.02369011752307415,-0.0037265352439135313
18795133623687,0.5219359993934631,-9.805453300476074,0.7805097699165344,-0.004791259765625,0.0276828333735466,-0.0053236219100654125
18795134860787,0.5171476006507874,-9.793481826782227,0.8188169598579407,-0.0018632676219567657,0.02874755859375,-0.0063883461989462376
18795136097925,0.5327098965644836,-9.821015357971191,0.8032546639442444,-0.0023956298828125,0.0271504707634449,-0.0077192517928779125
18795137335050,0.6057330369949341,-9.824606895446777,0.8319851160049438,-0.008251613937318325,0.0319417305290699,-0.0071868896484375
18795138572162,0.5674257874488831,-9.77791976928711,0.8535329103469849,-0.0053236219100654125,0.0292799212038517,0.0010647244052961469
18795139809287,0.5590460896492004,-9.765949249267578,0.8020575642585754,-0.0021294488105922937,0.0300784632563591,-0.0071868896484375
18795141046412,0.5363011956214905,-9.801861763000488,0.8056488633155823,-0.0042588976211845875,0.02794901467859745,-0.00958251953125
18795142283512,0.5949591398239136,-9.77552604675293,0.812831461429596,-0.0007985432748682797,0.02315775491297245,-0.0010647244052961469
18795143520650,0.5614402890205383,-9.765949249267578,0.7948749661445618,-0.0002661811013240367,0.02874755859375,-0.003460354171693325
18795144757775,0.6189011335372925,-9.756372451782227,0.8259996175765991,-0.0007985432748682797,0.0338049978017807,-0.007453070487827063
18795145994900,0.6117185354232788,-9.794679641723633,0.8020575642585754,-0.0010647244052961469,0.033538818359375,-0.006122165359556675
18795147232012,0.5758054852485657,-9.771934509277344,0.8152256608009338,-0.0029279920272529125,0.03087700717151165,-0.0031941730994731188
18795148469137,0.6021417379379272,-9.794679641723633,0.8188169598579407,-0.0026618109550327063,0.0295461006462574,0.0005323622026480734
18795149706250,0.5578489899635315,-9.77672290802002,0.8415619134902954,-0.0013309054775163531,0.033538818359375,-0.005855984054505825
18795150943362,0.569819986820221,-9.769539833068848,0.7852981686592102,0.0031941730994731188,0.0340711809694767,-0.0042588976211845875
18795152180512,0.608127236366272,-9.818621635437012,0.8319851160049438,-0.0010647244052961469,0.0306108258664608,-0.0053236219100654125
18795153417612,0.5566518902778625,-9.774328231811523,0.8020575642585754,-0.00931633822619915,0.03034464456140995,-0.010647243820130825
18795154654725,0.6045359373092651,-9.794679641723633,0.8236054182052612,-0.0021294488105922937,0.0351359061896801,-0.013042873702943325
18795155891862,0.5722141861915588,-9.780314445495605,0.8152256608009338,0.005589802749454975,0.033272635191679,-0.0042588976211845875
18795157128975,0.569819986820221,-9.757569313049316,0.8571242094039917,0.006122165359556675,0.0343373604118824,-0.0031941730994731188
18795158366100,0.5758054852485657,-9.794679641723633,0.7805097699165344,0.0026618109550327063,0.0346035435795784,-0.00958251953125
18795159603212,0.585382342338562,-9.799468040466309,0.7924807667732239,0.0066545275039970875,0.03034464456140995,-0.010647243820130825
18795160840362,0.5614402890205383,-9.804256439208984,0.7577648162841797,0.0066545275039970875,0.0295461006462574,-0.008517795242369175
18795162077475,0.5722141861915588,-9.80904483795166,0.8140285611152649,0.005855984054505825,0.0292799212038517,-0.0007985432748682797
18795163314600,0.5793968439102173,-9.80904483795166,0.7829039692878723,0.0026618109550327063,0.0330064557492733,-0.00692070834338665
18795164551712,0.5542576909065247,-9.81143856048584,0.8164227604866028,0.0007985432748682797,0.033272635191679,-0.007985432632267475
18795165788837,0.6248866319656372,-9.837775230407715,0.7948749661445618,0.0039927163161337376,0.0338049978017807,-0.005855984054505825
18795167025962,0.6308721303939819,-9.86770248413086,0.8200140595436096,0.0053236219100654125,0.0359344482421875,-0.003460354171693325
18795168263087,0.6141127347946167,-9.831789016723633,0.7817068696022034,0.004791259765625,0.0322079136967659,-0.0023956298828125
18795169500187,0.568622887134552,-9.84376049041748,0.8259996175765991,0.0015970865497365594,0.0316755510866642,-0.0119781494140625
18795170737312,0.5901707410812378,-9.798270225524902,0.8236054182052612,0.0,0.0367329902946949,-0.010114881210029125
18795171974412,0.5985504388809204,-9.792284965515137,0.7936778664588928,0.0005323622026480734,0.0356682650744915,-0.008251613937318325
18795173211550,0.5805939435958862,-9.800664901733398,0.8032546639442444,0.005057440605014563,0.0314093679189682,-0.007453070487827063
18795174448687,0.5973533391952515,-9.831789016723633,0.8259996175765991,0.0013309054775163531,0.0343373604118824,-0.008251613937318325
18795175685787,0.5817910432815552,-9.817423820495605,0.7924807667732239,0.005855984054505825,0.0306108258664608,-0.010114881210029125
18795176922912,0.5961562395095825,-9.794679641723633,0.8188169598579407,0.005589802749454975,0.0322079136967659,-0.0063883461989462376
18795178160050,0.628477931022644,-9.801861763000488,0.7912836670875549,0.0077192517928779125,0.0316755510866642,-0.005855984054505825
18795179397162,0.5925649404525757,-9.81024169921875,0.8032546639442444,0.0042588976211845875,0.0319417305290699,-0.00692070834338665
18795180634287,0.5578489899635315,-9.77791976928711,0.8379706144332886,0.005855984054505825,0.0306108258664608,-0.0037265352439135313
18795181871412,0.5817910432815552,-9.794679641723633,0.8104372620582581,0.007453070487827063,0.0327402763068676,-0.00692070834338665
18795183108525,0.6057330369949341,-9.835380554199219,0.7805097699165344,0.005855984054505825,0.033272635191679,-0.006122165359556675
18795184345650,0.6057330369949341,-9.768342971801758,0.8008604645729065,0.0037265352439135313,0.0340711809694767,-0.0077192517928779125
18795185582775,0.6093243360519409,-9.785102844238281,0.8032546639442444,0.007453070487827063,0.0319417305290699,-0.008517795242369175
18795186819887,0.5877765417098999,-9.830592155456543,0.7924807667732239,0.007985432632267475,0.02981228195130825,-0.0029279920272529125
18795188057025,0.586579442024231,-9.840168952941895,0.8056488633155823,0.0042588976211845875,0.0314093679189682,-0.0066545275039970875
18795189294137,0.5662286877632141,-9.800664901733398,0.8212112188339233,0.0018632676219567657,0.0338049978017807,-0.010647243820130825
18795190531262,0.5494692921638489,-9.806650161743164,0.8164227604866028,0.0026618109550327063,0.03034464456140995,-0.00958251953125
18795191768375,0.5997475385665894,-9.854534149169922,0.8092401623725891,0.0042588976211845875,0.0316755510866642,-0.007453070487827063
18795193005500,0.5734112858772278,-9.805453300476074,0.7817068696022034,0.004791259765625,0.0300784632563591,-0.008517795242369175
18795194242625,0.5422866940498352,-9.841365814208984,0.788889467716217,0.0037265352439135313,0.0295461006462574,-0.00692070834338665
18795195479750,0.5997475385665894,-9.828198432922363,0.8044517636299133,0.0029279920272529125,0.0340711809694767,-0.0077192517928779125
18795196716875,0.6320692300796509,-9.813833236694336,0.7637503743171692,0.0071868896484375,0.0343373604118824,-0.0071868896484375
18795197953987,0.608127236366272,-9.803058624267578,0.8140285611152649,0.00958251953125,0.0340711809694767,-0.00692070834338665
18795199191087,0.5913678407669067,-9.830592155456543,0.8212112188339233,0.006122165359556675,0.0359344482421875,-0.008517795242369175
18795200428225,0.6272808313369751,-9.84615421295166,0.8092401623725891,0.0037265352439135313,0.0306108258664608,-0.008251613937318325
18795201665350,0.6500257849693298,-9.829395294189453,0.7829039692878723,0.0090501569211483,0.02608574740588665,-0.008517795242369175
18795202902475,0.6392518877983093,-9.837775230407715,0.7876923680305481,0.0031941730994731188,0.0292799212038517,-0.006122165359556675
18795204139600,0.6260837316513062,-9.84376049041748,0.8008604645729065,0.0071868896484375,0.0271504707634449,-0.008251613937318325
18795205376725,0.6093243360519409,-9.853337287902832,0.8188169598579407,0.0037265352439135313,0.0268842913210392,-0.0071868896484375
18795206613837,0.6500257849693298,-9.837775230407715,0.7817068696022034,0.006122165359556675,0.02741665206849575,-0.0063883461989462376
18795207850962,0.645237386226654,-9.84376049041748,0.7733271718025208,0.014373779296875,0.0247548408806324,-0.0053236219100654125
18795209088087,0.6189011335372925,-9.824606895446777,0.8020575642585754,0.005589802749454975,0.02901373989880085,-0.008517795242369175
18795210325187,0.6368576288223267,-9.828198432922363,0.7924807667732239,0.005589802749454975,0.0268842913210392,-0.007985432632267475
18795211562325,0.5973533391952515,-9.822212219238281,0.8188169598579407,0.0026618109550327063,0.0295461006462574,-0.005589802749454975
18795212799437,0.6189011335372925,-9.798270225524902,0.811634361743927,0.0037265352439135313,0.0295461006462574,-0.00931633822619915
18795214036575,0.6787561774253845,-9.791088104248047,0.8212112188339233,0.0063883461989462376,0.0276828333735466,-0.012510511092841625
18795215273712,0.6572083830833435,-9.823410034179688,0.8535329103469849,0.008783976547420025,0.0244886614382267,-0.007985432632267475
18795216510812,0.667982280254364,-9.817423820495605,0.8236054182052612,0.008783976547420025,0.0228915736079216,-0.005589802749454975
18795217747937,0.6368576288223267,-9.804256439208984,0.7757213711738586,0.010913425125181675,0.023956298828125,-0.0039927163161337376
18795218985062,0.6224924325942993,-9.840168952941895,0.8391677141189575,0.0018632676219567657,0.0268842913210392,-0.003460354171693325
18795220222200,0.6212953329086304,-9.800664901733398,0.8056488633155823,0.0026618109550327063,0.02502102218568325,-0.003460354171693325
18795221459300,0.6153098344802856,-9.836577415466309,0.8212112188339233,0.00692070834338665,0.02129448764026165,-0.00452507846057415
18795222696412,0.6440402865409851,-9.807847023010254,0.8248025178909302,0.01597086526453495,0.02369011752307415,-0.0066545275039970875
18795223933550,0.689530074596405,-9.828198432922363,0.8259996175765991,0.0114457868039608,0.02315775491297245,-0.0090501569211483
18795225170650,0.6368576288223267,-9.818621635437012,0.8188169598579407,0.005589802749454975,0.0223592109978199,-0.0077192517928779125
18795226407775,0.6117185354232788,-9.837775230407715,0.7637503743171692,0.00958251953125,0.0191650390625,-0.005589802749454975
18795227644900,0.6572083830833435,-9.803058624267578,0.8379706144332886,0.010647243820130825,0.01836649514734745,-0.005855984054505825
18795228882037,0.6248866319656372,-9.794679641723633,0.7876923680305481,0.012510511092841625,0.0162370465695858,-0.00692070834338665
18795230119162,0.6117185354232788,-9.794679641723633,0.7649474740028381,0.013309055007994175,0.0210283063352108,-0.00692070834338665
18795231356262,0.6332663297653198,-9.81143856048584,0.7972691655158997,0.007985432632267475,0.02262539230287075,-0.0031941730994731188
18795232593387,0.5985504388809204,-9.786299705505371,0.8188169598579407,0.0053236219100654125,0.0223592109978199,-0.0021294488105922937
18795233830525,0.6835445761680603,-9.84495735168457,0.7936778664588928,0.0066545275039970875,0.01410759799182415,-0.0071868896484375
18795235067637,0.6200982332229614,-9.830592155456543,0.8164227604866028,0.008251613937318325,0.01650322787463665,-0.0077192517928779125
18795236304750,0.6320692300796509,-9.758766174316406,0.7709329724311829,0.013042873702943325,0.0167694091796875,-0.013042873702943325
18795237541875,0.6320692300796509,-9.77672290802002,0.8176198601722717,0.00931633822619915,0.015172322280704975,-0.010913425125181675
18795238778987,0.6476315855979919,-9.871294021606445,0.8427590131759644,0.00984870083630085,0.01357523538172245,-0.010381062515079975
18795240016112,0.667982280254364,-9.841365814208984,0.8140285611152649,0.01171196810901165,0.0162370465695858,-0.008517795242369175
18795241253237,0.629675030708313,-9.800664901733398,0.7984662652015686,0.00984870083630085,0.01703559048473835,-0.012510511092841625
18795242490350,0.6655880808830261,-9.813833236694336,0.8224083185195923,0.0114457868039608,0.0167694091796875,-0.0157046839594841
18795243727487,0.6596025824546814,-9.855731010437012,0.8415619134902954,0.010647243820130825,0.014906140975654125,-0.012776692397892475
18795244964612,0.6799532771110535,-9.801861763000488,0.8224083185195923,0.013309055007994175,0.01650322787463665,-0.01224433071911335
18795246201737,0.6404489874839783,-9.847352027893066,0.790086567401886,0.0090501569211483,0.012776692397892475,-0.00958251953125
18795247438850,0.6715735793113708,-9.799468040466309,0.7924807667732239,0.007453070487827063,0.008783976547420025,-0.00984870083630085
18795248675962,0.6775590777397156,-9.817423820495605,0.7996633648872375,0.01410759799182415,0.0138414166867733,-0.008783976547420025
18795249913075,0.645237386226654,-9.835380554199219,0.8080430626869202,0.010913425125181675,0.014373779296875,-0.010913425125181675
18795251150212,0.6703764796257019,-9.849745750427246,0.8403648138046265,0.01117960549890995,0.0119781494140625,-0.01171196810901165
18795252387337,0.6308721303939819,-9.806650161743164,0.8355764150619507,0.008783976547420025,0.014373779296875,-0.0114457868039608
18795253624450,0.6572083830833435,-9.822212219238281,0.8188169598579407,0.010381062515079975,0.010381062515079975,-0.010647243820130825
18795254861575,0.6260837316513062,-9.86889934539795,0.8678981065750122,0.013042873702943325,0.01224433071911335,-0.00931633822619915
18795256098700,0.6548141837120056,-9.780314445495605,0.8655039072036743,0.00958251953125,0.01836649514734745,-0.0114457868039608
18795257335825,0.6500257849693298,-9.821015357971191,0.8164227604866028,0.008783976547420025,0.00931633822619915,-0.0119781494140625
18795258572937,0.6739677786827087,-9.835380554199219,0.7948749661445618,0.00931633822619915,0.0071868896484375,-0.012510511092841625
18795259810062,0.6859387755393982,-9.825803756713867,0.8427590131759644,0.010913425125181675,0.00931633822619915,-0.01410759799182415
18795261047187,0.6320692300796509,-9.806650161743164,0.8667010068893433,0.00931633822619915,0.0157046839594841,-0.01703559048473835
18795262284312,0.6955155730247498,-9.840168952941895,0.7876923680305481,0.008251613937318325,0.00984870083630085,-0.01117960549890995
18795263521425,0.6727706789970398,-9.806650161743164,0.7733271718025208,0.010647243820130825,0.0077192517928779125,-0.00958251953125
18795264758550,0.6596025824546814,-9.80904483795166,0.8307880163192749,0.014373779296875,0.010381062515079975,-0.0114457868039608
18795265995675,0.6584054827690125,-9.817423820495605,0.8140285611152649,0.01597086526453495,0.0053236219100654125,-0.007453070487827063
18795267232787,0.6715735793113708,-9.794679641723633,0.7972691655158997,0.0119781494140625,0.0042588976211845875,-0.005589802749454975
18795268469912,0.6236895322799683,-9.817423820495605,0.8307880163192749,0.010114881210029125,0.01117960549890995,-0.014373779296875
18795269707050,0.6033388376235962,-9.81263542175293,0.8140285611152649,0.01224433071911335,0.0037265352439135313,-0.015172322280704975
18795270944150,0.6320692300796509,-9.782708168029785,0.8152256608009338,0.01357523538172245,0.005855984054505825,-0.01171196810901165
18795272181275,0.6416460871696472,-9.800664901733398,0.812831461429596,0.0090501569211483,0.00984870083630085,-0.01117960549890995
18795273418400,0.6727706789970398,-9.795876502990723,0.829590916633606,0.01357523538172245,0.0029279920272529125,-0.01117960549890995
18795274655525,0.6380547285079956,-9.762357711791992,0.8236054182052612,0.01650322787463665,0.0005323622026480734,-0.0119781494140625
18795275892650,0.6260837316513062,-9.794679641723633,0.8331822156906128,0.013042873702943325,0.010381062515079975,-0.01756795309484005
18795277129775,0.6308721303939819,-9.834183692932129,0.8259996175765991,0.01171196810901165,0.006122165359556675,-0.01357523538172245
18795278366875,0.6643909811973572,-9.819818496704102,0.8595184087753296,0.01357523538172245,0.0018632676219567657,-0.008783976547420025
18795279604000,0.6607996821403503,-9.828198432922363,0.8164227604866028,0.00984870083630085,0.0002661811013240367,-0.01224433071911335
18795280841125,0.6476315855979919,-9.829395294189453,0.8319851160049438,0.014906140975654125,0.008251613937318325,-0.0138414166867733
18795282078237,0.6727706789970398,-9.84256362915039,0.7936778664588928,0.014906140975654125,0.005855984054505825,-0.010913425125181675
18795283315387,0.6655880808830261,-9.816226959228516,0.811634361743927,0.01410759799182415,0.0026618109550327063,-0.01171196810901165
18795284552500,0.6368576288223267,-9.783905029296875,0.7924807667732239,0.0157046839594841,0.0005323622026480734,-0.013309055007994175
18795285789600,0.6380547285079956,-9.849745750427246,0.8068459630012512,0.01650322787463665,0.0026618109550327063,-0.010114881210029125
18795287026737,0.6404489874839783,-9.84495735168457,0.8164227604866028,0.015172322280704975,-0.0007985432748682797,-0.0119781494140625
18795288263862,0.646434485912323,-9.807847023010254,0.8224083185195923,0.0114457868039608,0.0010647244052961469,-0.008517795242369175
18795289501000,0.6931213736534119,-9.815030097961426,0.8176198601722717,0.01650322787463665,0.0013309054775163531,-0.00452507846057415
18795290738100,0.6596025824546814,-9.825803756713867,0.8319851160049438,0.01836649514734745,-0.0005323622026480734,-0.01224433071911335
18795291975225,0.6655880808830261,-9.837775230407715,0.8164227604866028,0.013309055007994175,0.0031941730994731188,-0.012776692397892475
18795293212350,0.6703764796257019,-9.834183692932129,0.8319851160049438,0.014373779296875,0.0029279920272529125,-0.008783976547420025
18795294449462,0.6488286852836609,-9.795876502990723,0.8451532125473022,0.010114881210029125,-0.0031941730994731188,-0.0173017717897892
18795295686587,0.6488286852836609,-9.81143856048584,0.812831461429596,0.0114457868039608,0.0005323622026480734,-0.01703559048473835
18795296923737,0.6763619780540466,-9.803058624267578,0.8415619134902954,0.012510511092841625,0.0015970865497365594,-0.015172322280704975
18795298160825,0.6141127347946167,-9.807847023010254,0.8583213090896606,0.010913425125181675,-0.0018632676219567657,-0.00958251953125
18795299397962,0.629675030708313,-9.831789016723633,0.8367735147476196,0.0173017717897892,0.003460354171693325,-0.007985432632267475
18795300635100,0.6416460871696472,-9.855731010437012,0.8188169598579407,0.0119781494140625,0.0037265352439135313,-0.015172322280704975
18795301872187,0.6272808313369751,-9.854534149169922,0.871489405632019,0.0138414166867733,-0.0007985432748682797,-0.010647243820130825
18795303109300,0.6560112833976746,-9.829395294189453,0.8643068075180054,0.013309055007994175,-0.0005323622026480734,-0.007985432632267475
18795304346437,0.6715735793113708,-9.856928825378418,0.8176198601722717,0.01463996060192585,-0.003460354171693325,-0.0114457868039608
18795305583562,0.645237386226654,-9.847352027893066,0.8475474119186401,0.01224433071911335,-0.0031941730994731188,-0.010381062515079975
18795306820700,0.6596025824546814,-9.803058624267578,0.8236054182052612,0.00984870083630085,-0.0002661811013240367,-0.00931633822619915
18795308057812,0.6308721303939819,-9.817423820495605,0.8451532125473022,0.015438503585755825,0.0023956298828125,-0.015172322280704975
18795309294925,0.6619967818260193,-9.835380554199219,0.8750807046890259,0.014906140975654125,-0.0039927163161337376,-0.0181003138422966
18795310532037,0.6763619780540466,-9.835380554199219,0.829590916633606,0.010913425125181675,-0.005589802749454975,-0.007453070487827063
18795311769175,0.6512228846549988,-9.782708168029785,0.8104372620582581,0.012510511092841625,-0.0037265352439135313,-0.0090501569211483
18795313006275,0.6572083830833435,-9.81263542175293,0.8200140595436096,0.01836649514734745,-0.0029279920272529125,-0.010647243820130825
18795314243412,0.6619967818260193,-9.81263542175293,0.8080430626869202,0.01117960549890995,0.0023956298828125,-0.010913425125181675
18795315480512,0.6512228846549988,-9.84376049041748,0.8690952062606812,0.008783976547420025,-0.0018632676219567657,-0.014906140975654125
18795316717650,0.6715735793113708,-9.806650161743164,0.8032546639442444,0.015438503585755825,-0.0063883461989462376,-0.00984870083630085
18795317954775,0.6200982332229614,-9.813833236694336,0.8858546614646912,0.015438503585755825,-0.00692070834338665,-0.0026618109550327063
18795319191912,0.6248866319656372,-9.84376049041748,0.8164227604866028,0.015172322280704975,-0.008783976547420025,-0.005589802749454975
18795320429025,0.645237386226654,-9.849745750427246,0.8164227604866028,0.014906140975654125,-0.007453070487827063,-0.00984870083630085
18795321666137,0.629675030708313,-9.840168952941895,0.8032546639442444,0.015438503585755825,-0.0029279920272529125,-0.01117960549890995
18795322903250,0.5961562395095825,-9.84495735168457,0.8619126081466675,0.0157046839594841,-0.00692070834338665,-0.008251613937318325
18795324140375,0.629675030708313,-9.864110946655273,0.8271967172622681,0.0114457868039608,-0.005855984054505825,-0.007453070487827063
18795325377512,0.6572083830833435,-9.849745750427246,0.8343793153762817,0.015438503585755825,-0.007453070487827063,-0.0071868896484375
18795326614650,0.6356605291366577,-9.853337287902832,0.8248025178909302,0.0162370465695858,-0.0037265352439135313,-0.0071868896484375
18795327851750,0.6380547285079956,-9.852140426635742,0.8236054182052612,0.01357523538172245,-0.0031941730994731188,-0.0026618109550327063
18795329088862,0.6248866319656372,-9.840168952941895,0.8379706144332886,0.014373779296875,-0.0042588976211845875,-0.00692070834338665
18795330325987,0.669179379940033,-9.798270225524902,0.8415619134902954,0.010913425125181675,-0.008517795242369175,-0.01117960549890995
18795331563125,0.6368576288223267,-9.817423820495605,0.8427590131759644,0.01117960549890995,-0.00452507846057415,-0.00958251953125
18795332800237,0.6141127347946167,-9.81143856048584,0.8200140595436096,0.01650322787463665,-0.0023956298828125,-0.006122165359556675
18795334037375,0.6117185354232788,-9.806650161743164,0.8786720037460327,0.01357523538172245,-0.0042588976211845875,-0.0090501569211483
18795335274487,0.629675030708313,-9.799468040466309,0.849941611289978,0.0162370465695858,-0.010381062515079975,-0.00984870083630085
18795336511587,0.6057330369949341,-9.816226959228516,0.8367735147476196,0.01410759799182415,-0.007453070487827063,-0.00958251953125
18795337748737,0.6272808313369751,-9.803058624267578,0.8487445116043091,0.012776692397892475,-0.00692070834338665,-0.0039927163161337376
18795338985850,0.6607996821403503,-9.824606895446777,0.8487445116043091,0.01410759799182415,-0.0013309054775163531,-0.01171196810901165
18795340222975,0.6572083830833435,-9.860519409179688,0.8547300100326538,0.014373779296875,-0.0039927163161337376,-0.010647243820130825
18795341460087,0.6356605291366577,-9.793481826782227,0.8810662031173706,0.01410759799182415,-0.006122165359556675,-0.005057440605014563
18795342697212,0.6200982332229614,-9.831789016723633,0.8403648138046265,0.00984870083630085,-0.008783976547420025,-0.003460354171693325
18795343934337,0.6332663297653198,-9.771934509277344,0.828393816947937,0.01597086526453495,-0.00958251953125,-0.003460354171693325
18795345171462,0.6500257849693298,-9.818621635437012,0.828393816947937,0.014906140975654125,-0.00958251953125,-0.005589802749454975
18795346408575,0.6332663297653198,-9.805453300476074,0.829590916633606,0.01650322787463665,-0.00692070834338665,-0.0063883461989462376
18795347645712,0.6200982332229614,-9.818621635437012,0.8331822156906128,0.01783413253724575,-0.005589802749454975,-0.0053236219100654125
18795348882825,0.645237386226654,-9.797073364257812,0.828393816947937,0.015172322280704975,-0.00452507846057415,-0.006122165359556675
18795350119937,0.6619967818260193,-9.821015357971191,0.8259996175765991,0.0167694091796875,-0.0039927163161337376,-0.005855984054505825
18795351357062,0.6404489874839783,-9.816226959228516,0.8487445116043091,0.0173017717897892,-0.005589802749454975,-0.0077192517928779125
18795352594175,0.5925649404525757,-9.836577415466309,0.8104372620582581,0.01357523538172245,-0.008783976547420025,-0.0037265352439135313
18795353831325,0.6368576288223267,-9.862914085388184,0.8451532125473022,0.014373779296875,-0.006122165359556675,-0.0042588976211845875
18795355068412,0.646434485912323,-9.823410034179688,0.8319851160049438,0.0162370465695858,-0.0053236219100654125,-0.003460354171693325
18795356305550,0.6500257849693298,-9.813833236694336,0.8463503122329712,0.015172322280704975,-0.005057440605014563,-0.005589802749454975
18795357542687,0.6212953329086304,-9.847352027893066,0.8164227604866028,0.010647243820130825,-0.0066545275039970875,-0.008517795242369175
18795358779787,0.6033388376235962,-9.818621635437012,0.8379706144332886,0.0138414166867733,-0.005589802749454975,-0.0039927163161337376
18795360016925,0.629675030708313,-9.829395294189453,0.8559271097183228,0.013042873702943325,-0.006122165359556675,-0.005057440605014563
18795361254012,0.5841852426528931,-9.848548889160156,0.8319851160049438,0.01463996060192585,-0.005855984054505825,-0.008517795242369175
18795362491162,0.608127236366272,-9.855731010437012,0.8188169598579407,0.0138414166867733,-0.0002661811013240367,-0.0063883461989462376
18795363728275,0.5901707410812378,-9.864110946655273,0.8271967172622681,0.007453070487827063,-0.0039927163161337376,-0.008251613937318325
18795364965400,0.6260837316513062,-9.870096206665039,0.8224083185195923,0.012510511092841625,-0.0037265352439135313,-0.006122165359556675
18795366202525,0.6236895322799683,-9.840168952941895,0.8391677141189575,0.014373779296875,-0.0066545275039970875,-0.005057440605014563
18795367439650,0.608127236366272,-9.861717224121094,0.8523358106613159,0.01463996060192585,-0.00452507846057415,-0.005057440605014563
18795368676775,0.5997475385665894,-9.84256362915039,0.8583213090896606,0.013042873702943325,-0.0053236219100654125,-0.0029279920272529125
18795369913887,0.6428431868553162,-9.791088104248047,0.812831461429596,0.0114457868039608,-0.007985432632267475,-0.0021294488105922937
18795371151012,0.5805939435958862,-9.801861763000488,0.8547300100326538,0.01171196810901165,-0.0066545275039970875,-0.0013309054775163531
18795372388125,0.6524199843406677,-9.803058624267578,0.8259996175765991,0.008517795242369175,-0.0066545275039970875,-0.0042588976211845875
18795373625250,0.5961562395095825,-9.7791166305542,0.8403648138046265,0.00958251953125,-0.0063883461989462376,-0.006122165359556675
18795374862375,0.6212953329086304,-9.77791976928711,0.8355764150619507,0.012510511092841625,-0.0063883461989462376,-0.0005323622026480734
18795376099487,0.6308721303939819,-9.805453300476074,0.828393816947937,0.012776692397892475,-0.005057440605014563,-0.0018632676219567657
18795377336625,0.6153098344802856,-9.81143856048584,0.8355764150619507,0.012776692397892475,-0.0031941730994731188,0.0029279920272529125
18795378573737,0.6416460871696472,-9.805453300476074,0.8690952062606812,0.013042873702943325,-0.0039927163161337376,-0.0007985432748682797
18795379810862,0.6021417379379272,-9.824606895446777,0.8236054182052612,0.014373779296875,-0.0018632676219567657,0.0
18795381047987,0.6153098344802856,-9.81143856048584,0.8619126081466675,0.0162370465695858,-0.0037265352439135313,-0.0002661811013240367
18795382285100,0.6368576288223267,-9.859322547912598,0.8248025178909302,0.01224433071911335,-0.0042588976211845875,-0.0029279920272529125
18795383522237,0.5770025849342346,-9.803058624267578,0.8259996175765991,0.01171196810901165,-0.0039927163161337376,-0.0010647244052961469
18795384759362,0.5841852426528931,-9.821015357971191,0.8331822156906128,0.0157046839594841,-0.0021294488105922937,0.0005323622026480734
18795385996475,0.628477931022644,-9.848548889160156,0.849941611289978,0.010381062515079975,0.0007985432748682797,-0.0005323622026480734
18795387233612,0.5997475385665894,-9.853337287902832,0.8463503122329712,0.010913425125181675,-0.005855984054505825,0.0007985432748682797
18795388470712,0.6093243360519409,-9.805453300476074,0.8463503122329712,0.015172322280704975,-0.007453070487827063,0.0005323622026480734
18795389707837,0.628477931022644,-9.862914085388184,0.8331822156906128,0.012510511092841625,-0.0021294488105922937,-0.0013309054775163531
18795390944962,0.6368576288223267,-9.861717224121094,0.8643068075180054,0.014373779296875,-0.0031941730994731188,0.0037265352439135313
18795392182087,0.5674257874488831,-9.801861763000488,0.8822633624076843,0.013042873702943325,-0.0039927163161337376,-0.0018632676219567657
18795393419212,0.606930136680603,-9.816226959228516,0.8188169598579407,0.0077192517928779125,0.0013309054775163531,-0.005057440605014563
18795394656300,0.6129156351089478,-9.834183692932129,0.8678981065750122,0.0114457868039608,-0.0002661811013240367,0.0
18795395893450,0.5985504388809204,-9.852140426635742,0.8810662031173706,0.01171196810901165,-0.0026618109550327063,0.0021294488105922937
18795397130562,0.646434485912323,-9.84615421295166,0.888248860836029,0.012776692397892475,-0.0037265352439135313,0.003460354171693325
18795398367700,0.5973533391952515,-9.835380554199219,0.8619126081466675,0.01357523538172245,0.0018632676219567657,0.0023956298828125
18795399604825,0.6272808313369751,-9.84256362915039,0.8738836050033569,0.01117960549890995,0.0021294488105922937,-0.0021294488105922937
18795400841937,0.6224924325942993,-9.830592155456543,0.8463503122329712,0.00931633822619915,0.0042588976211845875,-0.00452507846057415
18795402079050,0.5925649404525757,-9.876082420349121,0.8547300100326538,0.00931633822619915,0.0,-0.004791259765625
18795403316162,0.6057330369949341,-9.84615421295166,0.8343793153762817,0.008783976547420025,-0.0063883461989462376,-0.0002661811013240367
18795404553300,0.6667851805686951,-9.841365814208984,0.8140285611152649,0.007453070487827063,-0.0013309054775163531,0.0026618109550327063
18795405790412,0.6715735793113708,-9.840168952941895,0.8176198601722717,0.0071868896484375,-0.005057440605014563,0.00452507846057415
18795407027525,0.6200982332229614,-9.827000617980957,0.8834604620933533,0.0071868896484375,0.0023956298828125,-0.0005323622026480734
18795408264662,0.5985504388809204,-9.829395294189453,0.8810662031173706,0.0053236219100654125,0.004791259765625,-0.004791259765625
18795409501775,0.6117185354232788,-9.890447616577148,0.8415619134902954,0.003460354171693325,0.0042588976211845875,0.0015970865497365594
18795410738900,0.5997475385665894,-9.854534149169922,0.8535329103469849,0.00931633822619915,-0.0007985432748682797,0.0066545275039970875
18795411976025,0.6344634294509888,-9.847352027893066,0.8415619134902954,0.010114881210029125,0.0,-0.0007985432748682797
18795413213150,0.6009446382522583,-9.819818496704102,0.8667010068893433,0.008251613937318325,-0.0013309054775163531,-0.0018632676219567657
18795414450275,0.6117185354232788,-9.838972091674805,0.8487445116043091,0.005057440605014563,-0.0013309054775163531,0.0029279920272529125
18795415687400,0.6093243360519409,-9.835380554199219,0.8619126081466675,0.0053236219100654125,0.0013309054775163531,0.0015970865497365594
18795416924500,0.6260837316513062,-9.806650161743164,0.8403648138046265,0.0031941730994731188,0.0021294488105922937,0.0002661811013240367
18795418161637,0.5889736413955688,-9.849745750427246,0.8858546614646912,0.008251613937318325,0.0,-0.0002661811013240367
