timestamp_ns,accel_x,accel_y,accel_z,gyro_x,gyro_y,gyro_z
2921341917825,0.19153614342212677,-9.915586471557617,1.0558429956436157,0.1216447576880455,0.0654805526137352,-0.0681423619389534
2921343155150,0.2214636653661728,-9.883264541625977,1.0869675874710083,0.1203138530254364,0.0617540143430233,-0.0673438161611557
2921344392487,0.21428105235099792,-9.927556991577148,1.0618284940719604,0.1219109445810318,0.0628187358379364,-0.0673438161611557
2921345629825,0.2298433631658554,-9.892841339111328,1.0534487962722778,0.1208462193608284,0.0678761824965477,-0.06707763671875
2921346867137,0.21547815203666687,-9.898826599121094,1.0606313943862915,0.1184505894780159,0.0686747208237648,-0.0747968852519989
2921348104487,0.20350714027881622,-9.964667320251465,1.091755986213684,0.124040387570858,0.0633511021733284,-0.0750630721449852
2921349341800,0.2322375625371933,-9.939528465270996,1.0797849893569946,0.1221771240234375,0.0668114572763443,-0.0676099956035614
2921350579137,0.1951274424791336,-9.9586820602417,1.094150185585022,0.1187167689204216,0.066545270383358,-0.0644158273935318
2921351816462,0.22385786473751068,-9.947908401489258,1.1456254720687866,0.1163211390376091,0.0684085413813591,-0.0684085413813591
2921353053800,0.21547815203666687,-9.938331604003906,1.1432312726974487,0.1189829483628273,0.071868896484375,-0.0638834610581398
2921354291150,0.24779987335205078,-9.946710586547852,1.1480196714401245,0.1173858642578125,0.076127789914608,-0.0628187358379364
2921355528462,0.22864626348018646,-9.93593692779541,1.1348515748977661,0.1136593297123909,0.0755954310297966,-0.0684085413813591
2921356765787,0.22385786473751068,-9.929951667785645,1.1563994884490967,0.1091342493891716,0.0750630721449852,-0.0678761824965477
2921358003150,0.23343466222286224,-9.865307807922363,1.0761936902999878,0.1117960587143898,0.0758616104722023,-0.0702718123793602
2921359240462,0.2585738003253937,-9.884461402893066,1.1085153818130493,0.1075371652841568,0.0755954310297966,-0.0710703507065773
2921360477787,0.2406172752380371,-9.891644477844238,1.1336544752120972,0.1083357036113739,0.0785234197974205,-0.0684085413813591
2921361715125,0.243011474609375,-9.841365814208984,1.1109095811843872,0.1099327951669693,0.0753292515873909,-0.0662790909409523
2921362952462,0.23822307586669922,-9.890447616577148,1.136048674583435,0.1070047989487648,0.0747968852519989,-0.0662790909409523
2921364189787,0.3064578175544739,-9.884461402893066,1.138442873954773,0.110198974609375,0.0827823206782341,-0.071336530148983
2921365427112,0.27054479718208313,-9.874884605407715,1.1408370733261108,0.1112636998295784,0.0819837749004364,-0.0694732666015625
2921366664437,0.26815059781074524,-9.84495735168457,1.1001356840133667,0.1080695241689682,0.0833146795630455,-0.0724012553691864
2921367901775,0.2597709000110626,-9.816226959228516,1.138442873954773,0.1120622381567955,0.080919049680233,-0.0721350759267807
2921369139137,0.26336219906806946,-9.87967300415039,1.114500880241394,0.1104651540517807,0.0795881450176239,-0.0700056254863739
2921370376437,0.2825157940387726,-9.874884605407715,1.1037269830703735,0.10540771484375,0.08624267578125,-0.0716027170419693
2921371613775,0.2561795711517334,-9.856928825378418,1.1587936878204346,0.1046091690659523,0.0841132253408432,-0.0726674422621727
2921372851100,0.2908955216407776,-9.872490882873535,1.137245774269104,0.1094004288315773,0.0835808664560318,-0.0731998011469841
2921374088437,0.32441434264183044,-9.925163269042969,1.1456254720687866,0.1043429896235466,0.0851779505610466,-0.0702718123793602
2921375325775,0.3148375153541565,-9.945513725280762,1.1324573755264282,0.1051415354013443,0.0881059393286705,-0.0745307058095932
2921376563100,0.3016694188117981,-9.949105262756348,1.1659762859344482,0.1064724400639534,0.0891706645488739,-0.0734659805893898
2921377800437,0.2849099934101105,-9.947908401489258,1.1671733856201172,0.1046091690659523,0.08624267578125,-0.076127789914608
2921379037762,0.33039984107017517,-9.967061996459961,1.2054805755615234,0.1032782644033432,0.0830485001206398,-0.0753292515873909
2921380275100,0.31842881441116333,-9.965864181518555,1.1839327812194824,0.1030120849609375,0.0873074010014534,-0.0750630721449852
2921381512437,0.304063618183136,-9.974244117736816,1.1767501831054688,0.1035444438457489,0.0865088552236557,-0.0779910609126091
2921382749750,0.3208230435848236,-9.976638793945312,1.1611878871917725,0.0974222794175148,0.0865088552236557,-0.0747968852519989
2921383987087,0.28131869435310364,-9.952696800231934,1.238999366760254,0.0939619243144989,0.0918324738740921,-0.0745307058095932
2921385224425,0.2968810200691223,-10.014945983886719,1.1851298809051514,0.0974222794175148,0.0936957448720932,-0.0734659805893898
2921386461737,0.25498247146606445,-10.017339706420898,1.1504138708114624,0.0960913747549057,0.0923648402094841,-0.0790557861328125
2921387699087,0.3100491166114807,-9.985018730163574,1.1635820865631104,0.0891706645488739,0.0918324738740921,-0.0777248814702034
2921388936412,0.2944868206977844,-10.006566047668457,1.1659762859344482,0.0889044851064682,0.0920986607670784,-0.0731998011469841
2921390173750,0.3387795388698578,-10.04846477508545,1.213860273361206,0.0926310196518898,0.095292828977108,-0.0710703507065773
2921391411075,0.30885201692581177,-10.014945983886719,1.2306196689605713,0.0875735804438591,0.0955590158700943,-0.0697394460439682
2921392648412,0.3076549172401428,-9.994595527648926,1.2030863761901855,0.0897030308842659,0.0931633859872818,-0.0694732666015625
2921393885750,0.333991140127182,-9.99339771270752,1.1683704853057861,0.0851779505610466,0.0984870046377182,-0.0702718123793602
2921395123075,0.3447650372982025,-9.994595527648926,1.2222399711608887,0.0838470458984375,0.0968899205327034,-0.0708041712641716
2921396360400,0.3280056416988373,-9.965864181518555,1.2198457717895508,0.0867750346660614,0.1027459055185318,-0.0652143657207489
2921397597737,0.33997663855552673,-9.947908401489258,1.2461819648742676,0.0841132253408432,0.1040768101811409,-0.062020193785429
2921398835075,0.304063618183136,-9.941922187805176,1.2270283699035645,0.0777248814702034,0.1022135391831398,-0.0657467320561409
2921400072425,0.3411737382411957,-9.940725326538086,1.2545616626739502,0.0801205113530159,0.1040768101811409,-0.0582936592400074
2921401309725,0.3280056416988373,-9.983820915222168,1.2449848651885986,0.0787896066904068,0.1016811802983284,-0.0644158273935318
2921402547062,0.3423708379268646,-9.904812812805176,1.2258312702178955,0.0721350759267807,0.1046091690659523,-0.0641496405005455
2921403784387,0.3519476652145386,-9.926360130310059,1.2749123573303223,0.0702718123793602,0.104875348508358,-0.057228934019804
2921405021737,0.2932897210121155,-9.916783332824707,1.194706678390503,0.0763939768075943,0.1016811802983284,-0.057228934019804
2921406259062,0.3016694188117981,-9.93593692779541,1.2425906658172607,0.0700056254863739,0.1046091690659523,-0.0516391322016716
2921407496387,0.2968810200691223,-9.909601211547852,1.2437877655029297,0.06707763671875,0.1120622381567955,-0.0516391322016716
2921408733712,0.28371289372444153,-9.892841339111328,1.235408067703247,0.0678761824965477,0.1080695241689682,-0.0535023994743824
2921409971037,0.30047231912612915,-9.917980194091797,1.2820950746536255,0.0654805526137352,0.1072709783911705,-0.0505744069814682
2921411208387,0.32202014327049255,-9.873687744140625,1.2342109680175781,0.0628187358379364,0.1168534979224205,-0.0497758649289608
2921412445700,0.33039984107017517,-9.861717224121094,1.2629413604736328,0.0646820068359375,0.1195153146982193,-0.0492435023188591
2921413683050,0.33279404044151306,-9.874884605407715,1.2186486721038818,0.066545270383358,0.1107313334941864,-0.0439198799431324
2921414920400,0.32202014327049255,-9.876082420349121,1.2773066759109497,0.0604231096804142,0.1147240549325943,-0.0369991734623909
2921416157725,0.32680854201316833,-9.90361499786377,1.2473790645599365,0.0617540143430233,0.1165873184800148,-0.0369991734623909
2921417395050,0.31124621629714966,-9.897629737854004,1.2725181579589844,0.0617540143430233,0.1208462193608284,-0.038063894957304
2921418632375,0.2968810200691223,-9.898826599121094,1.2401964664459229,0.0588260218501091,0.1200476735830307,-0.0404595248401165
2921419869700,0.29209262132644653,-9.896432876586914,1.2689268589019775,0.0604231096804142,0.114990234375,-0.0338049978017807
2921421107050,0.3292027413845062,-9.896432876586914,1.2270283699035645,0.0598907470703125,0.114457868039608,-0.03087700717151165
2921422344375,0.3064578175544739,-9.928754806518555,1.258152961730957,0.0540347620844841,0.1184505894780159,-0.02874755859375
2921423581700,0.3064578175544739,-9.877279281616211,1.3024457693099976,0.0500420443713665,0.1232418492436409,-0.02608574740588665
2921424819037,0.3124433159828186,-9.919178009033203,1.294066071510315,0.0492435023188591,0.1269683837890625,-0.02555338479578495
2921426056375,0.32202014327049255,-9.913191795349121,1.2449848651885986,0.0505744069814682,0.1253712922334671,-0.02262539230287075
2921427293700,0.3519476652145386,-9.919178009033203,1.2665326595306396,0.0444522425532341,0.1261698454618454,-0.02981228195130825
2921428531025,0.36750996112823486,-9.904812812805176,1.2066776752471924,0.0481787770986557,0.1213785782456398,-0.023956298828125
2921429768375,0.36152446269989014,-9.996989250183105,1.217451572418213,0.0444522425532341,0.1264360249042511,-0.0220930315554142
2921431005687,0.35075056552886963,-9.987412452697754,1.2533645629882812,0.0449846051633358,0.1275007426738739,-0.01703559048473835
2921432243012,0.31842881441116333,-9.98980712890625,1.2653355598449707,0.0399271659553051,0.1269683837890625,-0.014906140975654125
2921433480350,0.3531447649002075,-10.02571964263916,1.237802267074585,0.0369991734623909,0.1288316547870636,-0.012776692397892475
2921434717687,0.3794809579849243,-10.017339706420898,1.2509703636169434,0.0354020856320858,0.1277669221162796,-0.01171196810901165
2921435955012,0.33279404044151306,-9.96945571899414,1.2677297592163086,0.0351359061896801,0.1275007426738739,-0.01117960549890995
2921437192337,0.36990416049957275,-10.002974510192871,1.2497732639312744,0.0367329902946949,0.1346876323223114,-0.008251613937318325
2921438429675,0.41060560941696167,-9.96825885772705,1.2437877655029297,0.0322079136967659,0.129364013671875,-0.0090501569211483
2921439667012,0.3818751871585846,-10.022128105163574,1.2330138683319092,0.0276828333735466,0.1264360249042511,0.0005323622026480734
2921440904350,0.3974374830722809,-9.996989250183105,1.238999366760254,0.02555338479578495,0.1344214528799057,-0.0013309054775163531
2921442141675,0.39384618401527405,-10.056844711303711,1.2545616626739502,0.02502102218568325,0.1301625519990921,-0.0071868896484375
2921443378987,0.40940847992897034,-9.998186111450195,1.2557587623596191,0.0258195661008358,0.1301625519990921,-0.0013309054775163531
2921444616337,0.4141969084739685,-10.037691116333008,1.2689268589019775,0.0220930315554142,0.1312272846698761,0.0007985432748682797
2921445853675,0.39863458275794983,-10.017339706420898,1.2413935661315918,0.0210283063352108,0.128299281001091,-0.004791259765625
2921447091000,0.395043283700943,-10.001777648925781,1.2006921768188477,0.0181003138422966,0.1304287314414978,-0.0007985432748682797
2921448328325,0.3734954595565796,-10.041281700134277,1.2425906658172607,0.01783413253724575,0.129364013671875,0.00452507846057415
2921449565662,0.3555389642715454,-10.036493301391602,1.2186486721038818,0.0114457868039608,0.1280331015586853,0.0053236219100654125
2921450802987,0.34835633635520935,-10.0580415725708,1.2246341705322266,0.012776692397892475,0.1269683837890625,0.0077192517928779125
2921452040312,0.3315969407558441,-10.072406768798828,1.2186486721038818,0.0119781494140625,0.128299281001091,0.008251613937318325
2921453277637,0.35434186458587646,-10.066421508789062,1.2054805755615234,0.0063883461989462376,0.1317596435546875,0.0071868896484375
2921454514975,0.36750996112823486,-10.072406768798828,1.2018892765045166,0.005589802749454975,0.1285654753446579,0.0066545275039970875
2921455752312,0.3531447649002075,-10.028114318847656,1.217451572418213,0.008517795242369175,0.1267022043466568,0.012510511092841625
2921456989662,0.3758896589279175,-10.091560363769531,1.2042834758758545,0.0053236219100654125,0.1269683837890625,0.0162370465695858
2921458227000,0.34835633635520935,-10.08078670501709,1.2030863761901855,0.0053236219100654125,0.1280331015586853,0.013309055007994175
2921459464312,0.37828385829925537,-10.06043529510498,1.2090718746185303,0.0042588976211845875,0.1285654753446579,0.008517795242369175
2921460701637,0.34596213698387146,-10.085575103759766,1.2078747749328613,0.0005323622026480734,0.1290978342294693,0.00958251953125
2921461938975,0.3208230435848236,-10.010157585144043,1.2186486721038818,-0.0039927163161337376,0.1344214528799057,0.01410759799182415
2921463176325,0.3531447649002075,-10.08437728881836,1.1899182796478271,-0.0037265352439135313,0.1328243613243103,0.015438503585755825
2921464413637,0.363918662071228,-10.099940299987793,1.2425906658172607,-0.00452507846057415,0.1314934641122818,0.0186326764523983
2921465650987,0.3531447649002075,-10.065223693847656,1.2222399711608887,-0.012510511092841625,0.1309611052274704,0.014906140975654125
2921466888312,0.28730419278144836,-10.071209907531738,1.1827356815338135,-0.012776692397892475,0.128299281001091,0.01117960549890995
2921468125650,0.3363853394985199,-10.062829971313477,1.2186486721038818,-0.007453070487827063,0.1322920024394989,0.01650322787463665
2921469362975,0.3232172429561615,-10.04726791381836,1.2078747749328613,-0.01410759799182415,0.1306949108839035,0.0181003138422966
2921470600300,0.34356793761253357,-10.05923843383789,1.2473790645599365,-0.0181003138422966,0.129364013671875,0.01410759799182415
2921471837637,0.3172317147254944,-10.014945983886719,1.2473790645599365,-0.01996358297765255,0.1304287314414978,0.012510511092841625
2921473074962,0.33997663855552673,-9.981427192687988,1.192312479019165,-0.01943122036755085,0.1322920024394989,0.02022976242005825
2921474312300,0.31842881441116333,-9.964667320251465,1.2258312702178955,-0.01836649514734745,0.1309611052274704,0.02262539230287075
2921475549612,0.3627215623855591,-9.938331604003906,1.2114660739898682,-0.0191650390625,0.1344214528799057,0.01996358297765255
2921476786950,0.2861070930957794,-9.99100399017334,1.2186486721038818,-0.02422248013317585,0.1328243613243103,0.02129448764026165
2921478024275,0.2968810200691223,-9.952696800231934,1.1982979774475098,-0.02502102218568325,0.1322920024394989,0.02076212503015995
2921479261625,0.30286651849746704,-9.981427192687988,1.2006921768188477,-0.0228915736079216,0.1360185444355011,0.0191650390625
2921480498937,0.2717418968677521,-9.950302124023438,1.171961784362793,-0.0268842913210392,0.1394788920879364,0.02022976242005825
2921481736262,0.29568392038345337,-9.987412452697754,1.1791443824768066,-0.02794901467859745,0.1325581818819046,0.02262539230287075
2921482973625,0.3148375153541565,-9.964667320251465,1.191115379333496,-0.02422248013317585,0.1338890939950943,0.0223592109978199
2921484210950,0.2932897210121155,-9.963470458984375,1.170764684677124,-0.02741665206849575,0.1360185444355011,0.02555338479578495
2921485448275,0.2849099934101105,-9.932345390319824,1.2437877655029297,-0.0268842913210392,0.1341552734375,0.0268842913210392
2921486685600,0.3208230435848236,-9.963470458984375,1.2090718746185303,-0.0263519287109375,0.1341552734375,0.0271504707634449
2921487922937,0.2932897210121155,-9.938331604003906,1.1994950771331787,-0.02874755859375,0.1349538117647171,0.0263519287109375
2921489160275,0.2908955216407776,-9.967061996459961,1.1504138708114624,-0.0316755510866642,0.1325581818819046,0.0276828333735466
2921490397612,0.2908955216407776,-9.943120002746582,1.1875240802764893,-0.0306108258664608,0.1298963725566864,0.0271504707634449
2921491634937,0.31364041566848755,-9.965864181518555,1.1528080701828003,-0.02901373989880085,0.1328243613243103,0.02555338479578495
2921492872275,0.31962594389915466,-9.971850395202637,1.1659762859344482,-0.0327402763068676,0.1365509033203125,0.0276828333735466
2921494109587,0.32441434264183044,-9.987412452697754,1.2018892765045166,-0.02981228195130825,0.1346876323223114,0.02794901467859745
2921495346937,0.304063618183136,-9.952696800231934,1.1683704853057861,-0.0306108258664608,0.1336229145526886,0.02794901467859745
2921496584250,0.28371289372444153,-9.996989250183105,1.1180921792984009,-0.033538818359375,0.1341552734375,0.0319417305290699
2921497821600,0.29209262132644653,-9.97065258026123,1.1276689767837524,-0.038063894957304,0.1341552734375,0.0300784632563591
2921499058925,0.31962594389915466,-9.983820915222168,1.1480196714401245,-0.0375315360724926,0.1336229145526886,0.0324740931391716
2921500296262,0.3076549172401428,-10.002974510192871,1.1432312726974487,-0.0356682650744915,0.1346876323223114,0.0276828333735466
2921501533575,0.29807811975479126,-9.977835655212402,1.170764684677124,-0.0401933453977108,0.1325581818819046,0.02901373989880085
2921502770912,0.28371289372444153,-9.975441932678223,1.1240776777267456,-0.0393948033452034,0.1346876323223114,0.0306108258664608
2921504008262,0.30526071786880493,-9.996989250183105,1.1312602758407593,-0.0388624407351017,0.137881800532341,0.0324740931391716
2921505245575,0.33279404044151306,-10.02332592010498,1.138442873954773,-0.0420566126704216,0.1370832622051239,0.0338049978017807
2921506482912,0.28969842195510864,-10.02452278137207,1.1300631761550903,-0.0449846051633358,0.1314934641122818,0.02741665206849575
2921507720250,0.2693476974964142,-10.014945983886719,1.095347285270691,-0.0471140518784523,0.1306949108839035,0.0324740931391716
2921508957587,0.25498247146606445,-10.028114318847656,1.0893617868423462,-0.0465816929936409,0.1314934641122818,0.038330078125
2921510194900,0.27054479718208313,-10.012551307678223,1.1073182821273804,-0.0503082275390625,0.1301625519990921,0.0327402763068676
2921511432225,0.3280056416988373,-10.037691116333008,1.1180921792984009,-0.0492435023188591,0.1344214528799057,0.0364668108522892
2921512669575,0.2944868206977844,-10.016142845153809,1.1037269830703735,-0.0511067695915699,0.1360185444355011,0.0364668108522892
2921513906912,0.2777273952960968,-9.99220085144043,1.1001356840133667,-0.052703857421875,0.1328243613243103,0.0362006276845932
2921515144225,0.3256114423274994,-10.007762908935547,1.0965443849563599,-0.0503082275390625,0.1306949108839035,0.0401933453977108
2921516381575,0.2825157940387726,-9.974244117736816,1.136048674583435,-0.057228934019804,0.1322920024394989,0.0369991734623909
2921517618900,0.30047231912612915,-10.004172325134277,1.095347285270691,-0.0585598424077034,0.1368170827627182,0.0340711809694767
2921518856212,0.24899697303771973,-9.980230331420898,1.0989385843276978,-0.0580274797976017,0.1336229145526886,0.0399271659553051
2921520093562,0.2454056739807129,-9.96945571899414,1.1097124814987183,-0.0596245639026165,0.1336229145526886,0.0415242500603199
2921521330887,0.2777273952960968,-9.995792388916016,1.094150185585022,-0.0590922012925148,0.1336229145526886,0.0415242500603199
2921522568225,0.28371289372444153,-9.949105262756348,1.0833762884140015,-0.0606892891228199,0.1338890939950943,0.0401933453977108
2921523805562,0.29568392038345337,-9.911994934082031,1.1037269830703735,-0.0614878311753273,0.133090540766716,0.0452507846057415
2921525042887,0.25737667083740234,-9.943120002746582,1.1097124814987183,-0.0585598424077034,0.1346876323223114,0.0460493303835392
2921526280225,0.23702597618103027,-9.889249801635742,1.0773907899856567,-0.0678761824965477,0.1344214528799057,0.0457831472158432
2921527517562,0.2406172752380371,-9.895236015319824,1.07379949092865,-0.06707763671875,0.1288316547870636,0.0497758649289608
2921528754875,0.1975216418504715,-9.926360130310059,1.0977414846420288,-0.0625525563955307,0.1298963725566864,0.0532362200319767
2921529992237,0.24420857429504395,-9.90361499786377,1.0690110921859741,-0.0673438161611557,0.1264360249042511,0.0521714948117733
2921531229537,0.1951274424791336,-9.886856079101562,1.048660397529602,-0.0678761824965477,0.1261698454618454,0.0505744069814682
2921532466875,0.22505496442317963,-9.874884605407715,1.1037269830703735,-0.0697394460439682,0.1333567351102829,0.0558980293571949
2921533704212,0.21428105235099792,-9.90361499786377,1.0354923009872437,-0.0697394460439682,0.1290978342294693,0.0596245639026165
2921534941537,0.1759738326072693,-9.90122127532959,1.0199298858642578,-0.0734659805893898,0.1338890939950943,0.0582936592400074
2921536178875,0.21428105235099792,-9.883264541625977,1.013944387435913,-0.0700056254863739,0.1349538117647171,0.0606892891228199
2921537416212,0.2106897532939911,-9.876082420349121,1.0342952013015747,-0.0724012553691864,0.1304287314414978,0.0561642125248909
2921538653550,0.20470423996448517,-9.874884605407715,0.993593692779541,-0.0692070871591568,0.133090540766716,0.0582936592400074
2921539890862,0.21787235140800476,-9.871294021606445,1.0450690984725952,-0.0686747208237648,0.1333567351102829,0.0569627545773983
2921541128200,0.2082955539226532,-9.892841339111328,0.9792284965515137,-0.0745307058095932,0.1301625519990921,0.0566965714097023
2921542365550,0.2214636653661728,-9.873687744140625,0.9540894031524658,-0.0724012553691864,0.1344214528799057,0.0612216517329216
2921543602875,0.26815059781074524,-9.938331604003906,0.9744400978088379,-0.0734659805893898,0.1341552734375,0.057228934019804
2921544840187,0.22026655077934265,-9.955090522766113,0.99479079246521,-0.0726674422621727,0.1352199912071228,0.0590922012925148
2921546077525,0.2190694510936737,-10.012551307678223,1.0438719987869263,-0.0694732666015625,0.133090540766716,0.0588260218501091
2921547314875,0.2190694510936737,-9.943120002746582,1.0091559886932373,-0.0694732666015625,0.1304287314414978,0.0593583844602108
2921548552200,0.25258827209472656,-9.946710586547852,1.016338586807251,-0.071868896484375,0.1280331015586853,0.0604231096804142
2921549789537,0.23582887649536133,-9.923966407775879,1.0307037830352783,-0.0734659805893898,0.1259036511182785,0.057228934019804
2921551026875,0.21188685297966003,-9.90122127532959,1.0211269855499268,-0.0769263356924057,0.1312272846698761,0.0582936592400074
2921552264200,0.23822307586669922,-9.896432876586914,1.0330979824066162,-0.0798543319106102,0.1280331015586853,0.0614878311753273
2921553501525,0.23582887649536133,-9.915586471557617,1.0378865003585815,-0.0811852365732193,0.1269683837890625,0.0577612966299057
2921554738850,0.22266076505184174,-9.883264541625977,0.9959878921508789,-0.0803866907954216,0.133090540766716,0.0569627545773983
2921555976175,0.20231004059314728,-9.891644477844238,0.9624691009521484,-0.0806528702378273,0.1349538117647171,0.0654805526137352
2921557213537,0.21667525172233582,-9.831789016723633,1.0031704902648926,-0.0753292515873909,0.1248389333486557,0.0614878311753273
2921558450850,0.17477671802043915,-9.872490882873535,0.9780313968658447,-0.0801205113530159,0.124040387570858,0.0588260218501091
2921559688187,0.16400282084941864,-9.890447616577148,0.993593692779541,-0.0790557861328125,0.1256374716758728,0.0625525563955307
2921560925525,0.11252748221158981,-9.816226959228516,0.9612720012664795,-0.0803866907954216,0.1187167689204216,0.062286376953125
2921562162862,0.08978256583213806,-9.81263542175293,0.94930100440979,-0.0830485001206398,0.1227094829082489,0.0617540143430233
2921563400187,0.08499415963888168,-9.80904483795166,0.9361328482627869,-0.0806528702378273,0.1285654753446579,0.0628187358379364
2921564637500,0.07900865375995636,-9.804256439208984,0.9445126056671143,-0.0793219655752182,0.1248389333486557,0.0633511021733284
2921565874837,0.09935937076807022,-9.81263542175293,0.9445126056671143,-0.0798543319106102,0.1251051127910614,0.0686747208237648
2921567112175,0.07302315533161163,-9.815030097961426,0.9457097053527832,-0.0830485001206398,0.1275007426738739,0.0710703507065773
2921568349500,0.10175357013940811,-9.847352027893066,0.9409212470054626,-0.0793219655752182,0.1277669221162796,0.0638834610581398
2921569586850,0.07781155407428741,-9.793481826782227,0.9229647517204285,-0.0825161412358284,0.1277669221162796,0.0630849227309227
2921570824187,0.05267243832349777,-9.807847023010254,0.9445126056671143,-0.0817175954580307,0.1360185444355011,0.0628187358379364
2921572061500,0.08738835901021957,-9.80904483795166,0.9385270476341248,-0.0774587020277977,0.1354861706495285,0.0625525563955307
2921573298837,0.026336219161748886,-9.831789016723633,0.9289502501487732,-0.0763939768075943,0.133090540766716,0.0628187358379364
2921574536150,0.040701430290937424,-9.830592155456543,0.9217676520347595,-0.0801205113530159,0.1301625519990921,0.0657467320561409
2921575773500,0.0802057608962059,-9.860519409179688,0.9409212470054626,-0.0822499617934227,0.1309611052274704,0.0676099956035614
2921577010837,0.06823474913835526,-9.864110946655273,0.8930372595787048,-0.0779910609126091,0.1346876323223114,0.0630849227309227
2921578248162,0.061052143573760986,-9.838972091674805,0.8858546614646912,-0.0795881450176239,0.1325581818819046,0.0590922012925148
2921579485487,0.08978256583213806,-9.885659217834473,0.8822633624076843,-0.0779910609126091,0.1298963725566864,0.0630849227309227
2921580722812,0.09217676520347595,-9.886856079101562,0.888248860836029,-0.076127789914608,0.1325581818819046,0.0673438161611557
2921581960150,0.0933738648891449,-9.862914085388184,0.8690952062606812,-0.0745307058095932,0.133090540766716,0.0630849227309227
2921583197500,0.0802057608962059,-9.836577415466309,0.8858546614646912,-0.076127789914608,0.1322920024394989,0.0550994873046875
2921584434850,0.10773907601833344,-9.835380554199219,0.871489405632019,-0.0785234197974205,0.1306949108839035,0.0564303919672966
2921585672150,0.05147533863782883,-9.840168952941895,0.8690952062606812,-0.0811852365732193,0.1296301931142807,0.0585598424077034
2921586909500,0.08140286058187485,-9.84376049041748,0.888248860836029,-0.0787896066904068,0.1296301931142807,0.0521714948117733
2921588146800,0.07781155407428741,-9.780314445495605,0.9014169573783875,-0.0785234197974205,0.1336229145526886,0.0585598424077034
2921589384137,0.038307227194309235,-9.816226959228516,0.8966285586357117,-0.0737321600317955,0.1304287314414978,0.0574951171875
2921590621475,0.10893617570400238,-9.791088104248047,0.9050082564353943,-0.0787896066904068,0.1285654753446579,0.0545671246945858
2921591858825,0.08738835901021957,-9.817423820495605,0.8858546614646912,-0.0827823206782341,0.1325581818819046,0.0566965714097023
2921593096150,0.038307227194309235,-9.841365814208984,0.8571242094039917,-0.0787896066904068,0.1301625519990921,0.0519053116440773
2921594333500,0.04429273307323456,-9.848548889160156,0.8475474119186401,-0.0750630721449852,0.1301625519990921,0.0468478724360466
2921595570800,0.026336219161748886,-9.856928825378418,0.8307880163192749,-0.0726674422621727,0.1304287314414978,0.0495096817612648
2921596808137,0.02274491637945175,-9.855731010437012,0.8236054182052612,-0.0790557861328125,0.1277669221162796,0.0545671246945858
2921598045500,0.017956512048840523,-9.837775230407715,0.8367735147476196,-0.0811852365732193,0.1306949108839035,0.0537685826420784
2921599282800,0.0059855044819414616,-9.873687744140625,0.7960720658302307,-0.0755954310297966,0.1288316547870636,0.0535023994743824
2921600520150,-0.02753331884741783,-9.813833236694336,0.8319851160049438,-0.0774587020277977,0.1288316547870636,0.0540347620844841
2921601757462,-0.05626374110579491,-9.861717224121094,0.8164227604866028,-0.0793219655752182,0.1309611052274704,0.0503082275390625
2921602994800,-0.05386953800916672,-9.889249801635742,0.8224083185195923,-0.0771925151348114,0.1261698454618454,0.0497758649289608
2921604232125,-0.03232172504067421,-9.871294021606445,0.8415619134902954,-0.07666015625,0.129364013671875,0.0532362200319767
2921605469475,-0.033518824726343155,-9.856928825378418,0.828393816947937,-0.0758616104722023,0.1408098042011261,0.0519053116440773
2921606706800,-0.02513911761343479,-9.873687744140625,0.7984662652015686,-0.0777248814702034,0.1338890939950943,0.0460493303835392
2921607944137,-0.05027823522686958,-9.871294021606445,0.8188169598579407,-0.0782572403550148,0.1328243613243103,0.0460493303835392
2921609181487,-0.04908113554120064,-9.819818496704102,0.8367735147476196,-0.0755954310297966,0.1309611052274704,0.0460493303835392
2921610418800,-0.04668693244457245,-9.830592155456543,0.8343793153762817,-0.0787896066904068,0.1368170827627182,0.0463155098259449
2921611656137,-0.013168109580874443,-9.870096206665039,0.7769184708595276,-0.0801205113530159,0.137881800532341,0.0465816929936409
2921612893475,-0.0035913025494664907,-9.822212219238281,0.811634361743927,-0.0779910609126091,0.1354861706495285,0.047646414488554
2921614130800,0.0059855044819414616,-9.854534149169922,0.7936778664588928,-0.076127789914608,0.1360185444355011,0.0423227921128273
2921615368125,-0.02753331884741783,-9.835380554199219,0.8678981065750122,-0.0721350759267807,0.1392127126455307,0.0412580706179142
2921616605462,-0.05386953800916672,-9.799468040466309,0.8188169598579407,-0.0774587020277977,0.1400112509727478,0.0436537005007267
2921617842800,-0.02992752194404602,-9.795876502990723,0.8044517636299133,-0.081451416015625,0.1402774304151535,0.0452507846057415
2921619080137,0.015562310814857483,-9.795876502990723,0.7817068696022034,-0.07666015625,0.137881800532341,0.0444522425532341
2921620317450,-0.021547814831137657,-9.765949249267578,0.7541735172271729,-0.0721350759267807,0.1424068808555603,0.0415242500603199
2921621554787,-0.008379706181585789,-9.757569313049316,0.7829039692878723,-0.07666015625,0.1400112509727478,0.0412580706179142
2921622792112,0.019153613597154617,-9.726444244384766,0.7817068696022034,-0.0745307058095932,0.1362847238779068,0.0409918874502182
2921624029450,-0.02992752194404602,-9.707290649414062,0.7757213711738586,-0.071336530148983,0.1346876323223114,0.0415242500603199
2921625266800,-0.014365210197865963,-9.696516990661621,0.7841010689735413,-0.0747968852519989,0.1408098042011261,0.0391286201775074
2921626504112,-0.02274491637945175,-9.709685325622559,0.767341673374176,-0.0710703507065773,0.1413421630859375,0.0377977155148983
2921627741450,0.0011971008498221636,-9.676166534423828,0.8008604645729065,-0.0692070871591568,0.1442701518535614,0.038330078125
2921628978775,0.0586579404771328,-9.690531730651855,0.7565677165985107,-0.071336530148983,0.14373779296875,0.0396609827876091
2921630216100,0.031124621629714966,-9.672574996948242,0.7326257228851318,-0.0676099956035614,0.1434716135263443,0.038330078125
2921631453450,0.011971008963882923,-9.660603523254395,0.7481880187988281,-0.0641496405005455,0.1453348845243454,0.0338049978017807
2921632690787,0.009576806798577309,-9.670180320739746,0.7601590752601624,-0.0628187358379364,0.1416083425283432,0.03087700717151165
2921633928125,-0.0035913025494664907,-9.645041465759277,0.7613561749458313,-0.0612216517329216,0.1421407014131546,0.0316755510866642
2921635165462,-0.031124621629714966,-9.645041465759277,0.7433996200561523,-0.0636172816157341,0.1429392546415329,0.0271504707634449
2921636402775,0.002394201699644327,-9.677363395690918,0.7625532746315002,-0.0569627545773983,0.1442701518535614,0.0306108258664608
2921637640125,-0.02513911761343479,-9.66299819946289,0.7457938194274902,-0.0561642125248909,0.1416083425283432,0.02741665206849575
2921638877450,-0.010773907415568829,-9.683348655700684,0.7230489253997803,-0.0588260218501091,0.1410759836435318,0.02874755859375
2921640114762,-0.05027823522686958,-9.660603523254395,0.7050924301147461,-0.0540347620844841,0.1416083425283432,0.02661811001598835
2921641352125,-0.04788403585553169,-9.645041465759277,0.727837324142456,-0.0532362200319767,0.1442701518535614,0.0282151959836483
2921642589437,-0.026336219161748886,-9.672574996948242,0.751779317855835,-0.0497758649289608,0.14373779296875,0.02661811001598835
2921643826762,-0.05147533863782883,-9.616311073303223,0.7314286231994629,-0.0511067695915699,0.1432054340839386,0.01996358297765255
2921645064100,-0.05267243832349777,-9.671378135681152,0.7086837291717529,-0.0473802350461483,0.1402774304151535,0.02076212503015995
2921646301437,-0.07182604819536209,-9.671378135681152,0.7218518257141113,-0.0439198799431324,0.1376156210899353,0.02315775491297245
2921647538762,-0.035913024097681046,-9.636661529541016,0.6979097723960876,-0.0441860631108284,0.1392127126455307,0.02022976242005825
2921648776087,-0.028730420395731926,-9.684545516967773,0.645237386226654,-0.0417904332280159,0.1429392546415329,0.013042873702943325
2921650013425,-0.015562310814857483,-9.646238327026367,0.6955155730247498,-0.038063894957304,0.1429392546415329,0.0138414166867733
2921651250762,-0.015562310814857483,-9.66419506072998,0.7362170219421387,-0.0412580706179142,0.1424068808555603,0.01117960549890995
2921652488100,0.02992752194404602,-9.680954933166504,0.7469909191131592,-0.0388624407351017,0.1495937705039978,0.00984870083630085
2921653725437,-0.011971008963882923,-9.676166534423828,0.7182605266571045,-0.0362006276845932,0.1509246826171875,0.00958251953125
2921654962762,-0.019153613597154617,-9.658209800720215,0.6931213736534119,-0.03087700717151165,0.148529052734375,0.0053236219100654125
2921656200087,0.015562310814857483,-9.671378135681152,0.727837324142456,-0.0311431884765625,0.1487952321767807,0.005057440605014563
2921657437437,0.06464345008134842,-9.696516990661621,0.730231523513794,-0.02981228195130825,0.1506585031747818,0.0029279920272529125
2921658674750,0.03711012750864029,-9.601945877075195,0.729034423828125,-0.033538818359375,0.147464320063591,-0.0071868896484375
2921659912100,0.031124621629714966,-9.648633003234863,0.7038953304290771,-0.02874755859375,0.1408098042011261,-0.005057440605014563
2921661149425,0.035913024097681046,-9.622296333312988,0.7194576263427734,-0.02741665206849575,0.1471981406211853,-0.0042588976211845875
2921662386750,0.038307227194309235,-9.618705749511719,0.729034423828125,-0.02741665206849575,0.1482628732919693,-0.00958251953125
2921663624087,0.008379706181585789,-9.57201862335205,0.6799532771110535,-0.02369011752307415,0.1487952321767807,-0.01117960549890995
2921664861425,0.06464345008134842,-9.586383819580078,0.7457938194274902,-0.023956298828125,0.1471981406211853,-0.012776692397892475
2921666098737,0.02992752194404602,-9.600749015808105,0.7697358727455139,-0.0220930315554142,0.1445363312959671,-0.01783413253724575
2921667336087,0.02753331884741783,-9.576807022094727,0.6955155730247498,-0.0191650390625,0.1397450715303421,-0.02129448764026165
2921668573425,0.0035913025494664907,-9.575610160827637,0.7314286231994629,-0.01783413253724575,0.1429392546415329,-0.01996358297765255
2921669810750,0.0035913025494664907,-9.568427085876465,0.7386112213134766,-0.010913425125181675,0.1448025107383728,-0.0252872034907341
2921671048062,-0.014365210197865963,-9.567230224609375,0.7050924301147461,-0.012510511092841625,0.14373779296875,-0.03034464456140995
2921672285425,0.004788403399288654,-9.567230224609375,0.706289529800415,-0.007985432632267475,0.1477305144071579,-0.0322079136967659
2921673522737,-0.0347159244120121,-9.53969669342041,0.6584054827690125,-0.0053236219100654125,0.1466657817363739,-0.0324740931391716
2921674760087,-0.026336219161748886,-9.550470352172852,0.6428431868553162,-0.0015970865497365594,0.1445363312959671,-0.0322079136967659
2921675997412,-0.04908113554120064,-9.510966300964355,0.6739677786827087,0.0,0.1442701518535614,-0.02901373989880085
2921677234737,-0.02753331884741783,-9.542091369628906,0.6332663297653198,0.0066545275039970875,0.1453348845243454,-0.02874755859375
2921678472075,-0.008379706181585789,-9.583989143371582,0.6536170840263367,0.0066545275039970875,0.1448025107383728,-0.0359344482421875
2921679709412,0.009576806798577309,-9.545681953430176,0.6272808313369751,0.007985432632267475,0.142673060297966,-0.0393948033452034
2921680946737,0.002394201699644327,-9.569623947143555,0.6380547285079956,0.00958251953125,0.1440039724111557,-0.0417904332280159
2921682184075,-0.02274491637945175,-9.59835433959961,0.6129156351089478,0.008251613937318325,0.1458672434091568,-0.0423227921128273
2921683421425,-0.011971008963882923,-9.551668167114258,0.6512228846549988,0.01117960549890995,0.1456010639667511,-0.0460493303835392
2921684658737,-0.0059855044819414616,-9.545681953430176,0.690727174282074,0.014906140975654125,0.1450686901807785,-0.0439198799431324
2921685896062,-0.0035913025494664907,-9.5624418258667,0.669179379940033,0.013309055007994175,0.1442701518535614,-0.0465816929936409
2921687133412,0.004788403399288654,-9.530119895935059,0.6991068720817566,0.01703559048473835,0.1440039724111557,-0.0452507846057415
2921688370737,0.019153613597154617,-9.544485092163086,0.7015011310577393,0.0204959437251091,0.1448025107383728,-0.0409918874502182
2921689608062,-0.013168109580874443,-9.498995780944824,0.6931213736534119,0.0220930315554142,0.1453348845243454,-0.0481787770986557
2921690845412,0.028730420395731926,-9.550470352172852,0.6979097723960876,0.02315775491297245,0.1413421630859375,-0.0529700368642807
2921692082737,0.02513911761343479,-9.514557838439941,0.667982280254364,0.02555338479578495,0.14373779296875,-0.0521714948117733
2921693320062,0.05746084079146385,-9.518149375915527,0.6967126727104187,0.02794901467859745,0.1440039724111557,-0.0471140518784523
2921694557400,0.10295067727565765,-9.516951560974121,0.6835445761680603,0.02901373989880085,0.14373779296875,-0.0540347620844841
2921695794725,0.06464345008134842,-9.513360977172852,0.6811503767967224,0.0282151959836483,0.1463996022939682,-0.0537685826420784
2921697032062,0.05386953800916672,-9.514557838439941,0.6440402865409851,0.0322079136967659,0.1445363312959671,-0.0537685826420784
2921698269387,0.07781155407428741,-9.496601104736328,0.7038953304290771,0.0362006276845932,0.1413421630859375,-0.0519053116440773
2921699506737,0.07900865375995636,-9.544485092163086,0.6440402865409851,0.0396609827876091,0.1410759836435318,-0.052437674254179
2921700744062,0.090979665517807,-9.531316757202148,0.6631938815116882,0.0407257080078125,0.1386803537607193,-0.0508405901491642
2921701981387,0.07182604819536209,-9.543288230895996,0.645237386226654,0.0425889752805233,0.1370832622051239,-0.0553656667470932
2921703218725,0.07781155407428741,-9.567230224609375,0.6476315855979919,0.0468478724360466,0.1349538117647171,-0.0561642125248909
2921704456050,0.05386953800916672,-9.616311073303223,0.6536170840263367,0.0497758649289608,0.1296301931142807,-0.0513729527592659
2921705693400,0.05027823522686958,-9.62947940826416,0.6607996821403503,0.0532362200319767,0.1325581818819046,-0.0548333041369915
2921706930725,0.08978256583213806,-9.643844604492188,0.6440402865409851,0.0561642125248909,0.1341552734375,-0.0556318499147892
2921708168075,0.07062894850969315,-9.639056205749512,0.6560112833976746,0.057228934019804,0.133090540766716,-0.0577612966299057
2921709405387,0.04429273307323456,-9.696516990661621,0.6919242739677429,0.0548333041369915,0.1285654753446579,-0.0556318499147892
2921710642737,0.09457096457481384,-9.712079048156738,0.6919242739677429,0.0574951171875,0.1296301931142807,-0.0503082275390625
2921711880037,0.12210428714752197,-9.734824180603027,0.6488286852836609,0.057228934019804,0.129364013671875,-0.0601569265127182
2921713117387,0.14604631066322327,-9.774328231811523,0.6763619780540466,0.0596245639026165,0.129364013671875,-0.0609554722905159
2921714354725,0.07302315533161163,-9.804256439208984,0.6153098344802856,0.0569627545773983,0.1280331015586853,-0.0593583844602108
2921715592062,0.08259996026754379,-9.84495735168457,0.6811503767967224,0.0574951171875,0.1285654753446579,-0.0628187358379364
2921716829375,0.09457096457481384,-9.804256439208984,0.6560112833976746,0.0604231096804142,0.1251051127910614,-0.0614878311753273
2921718066725,0.09935937076807022,-9.837775230407715,0.6512228846549988,0.0606892891228199,0.1221771240234375,-0.0614878311753273
2921719304062,0.10893617570400238,-9.86770248413086,0.6715735793113708,0.0617540143430233,0.1259036511182785,-0.0649481862783432
2921720541375,0.10055647045373917,-9.855731010437012,0.6667851805686951,0.057228934019804,0.1272345632314682,-0.062020193785429
2921721778712,0.09816227108240128,-9.850942611694336,0.6991068720817566,0.0585598424077034,0.1251051127910614,-0.0657467320561409
2921723016037,0.1412578970193863,-9.90361499786377,0.6991068720817566,0.0614878311753273,0.1224433034658432,-0.066545270383358
2921724253362,0.1843535304069519,-9.896432876586914,0.706289529800415,0.0625525563955307,0.1224433034658432,-0.0636172816157341
2921725490725,0.11971008777618408,-9.883264541625977,0.6787561774253845,0.0577612966299057,0.1211123988032341,-0.0673438161611557
2921726728050,0.10654197633266449,-9.882067680358887,0.689530074596405,0.0588260218501091,0.1219109445810318,-0.0716027170419693
2921727965362,0.1041477769613266,-9.913191795349121,0.7050924301147461,0.0588260218501091,0.1200476735830307,-0.0724012553691864
2921729202700,0.11252748221158981,-9.854534149169922,0.7386112213134766,0.0503082275390625,0.119249127805233,-0.0729336217045784
2921730440050,0.11013327538967133,-9.892841339111328,0.7481880187988281,0.0513729527592659,0.1179182231426239,-0.0750630721449852
2921731677387,0.11252748221158981,-9.856928825378418,0.7410054206848145,0.0537685826420784,0.1179182231426239,-0.0787896066904068
2921732914687,0.07182604819536209,-9.821015357971191,0.7122750282287598,0.0516391322016716,0.1211123988032341,-0.080919049680233
2921734152037,0.1496376097202301,-9.81024169921875,0.7122750282287598,0.0487111397087574,0.1173858642578125,-0.0873074010014534
2921735389375,0.14245499670505524,-9.805453300476074,0.7098808288574219,0.0513729527592659,0.1125946044921875,-0.0873074010014534
2921736626712,0.15442600846290588,-9.7791166305542,0.7038953304290771,0.0452507846057415,0.1179182231426239,-0.0897030308842659
2921737864050,0.12330138683319092,-9.72285270690918,0.690727174282074,0.04791259765625,0.1128607839345932,-0.0907677561044693
2921739101362,0.1256955862045288,-9.714473724365234,0.6727706789970398,0.0540347620844841,0.1155225932598114,-0.0897030308842659
2921740338700,0.14365209639072418,-9.68574333190918,0.7254431247711182,0.0465816929936409,0.1171196848154068,-0.0958251953125
2921741576050,0.13287819921970367,-9.671378135681152,0.7134721279144287,0.0447184219956398,0.1136593297123909,-0.1043429896235466
2921742813375,0.18555063009262085,-9.611522674560547,0.7098808288574219,0.0540347620844841,0.1125946044921875,-0.1032782644033432
2921744050675,0.16759411990642548,-9.600749015808105,0.7876923680305481,0.0553656667470932,0.1091342493891716,-0.1051415354013443
2921745288037,0.1867477297782898,-9.570821762084961,0.7110779285430908,0.0545671246945858,0.1083357036113739,-0.1120622381567955
2921746525350,0.21428105235099792,-9.569623947143555,0.7374141216278076,0.0545671246945858,0.1088680699467659,-0.1131269633769989
2921747762700,0.15682020783424377,-9.519346237182617,0.729034423828125,0.0558980293571949,0.1072709783911705,-0.1109975129365921
2921749000037,0.18555063009262085,-9.478644371032715,0.7529764175415039,0.0598907470703125,0.1056738942861557,-0.1152564138174057
2921750237375,0.2298433631658554,-9.488221168518066,0.7493851184844971,0.0604231096804142,0.1046091690659523,-0.1232418492436409
2921751474687,0.21547815203666687,-9.485827445983887,0.7625532746315002,0.0614878311753273,0.1088680699467659,-0.1259036511182785
2921752712037,0.21547815203666687,-9.441534042358398,0.7709329724311829,0.0673438161611557,0.1067386195063591,-0.1264360249042511
2921753949337,0.21787235140800476,-9.479841232299805,0.7457938194274902,0.0702718123793602,0.1040768101811409,-0.1314934641122818
2921755186712,0.21787235140800476,-9.454702377319336,0.7984662652015686,0.0750630721449852,0.1008826345205307,-0.1336229145526886
2921756424025,0.22266076505184174,-9.440337181091309,0.788889467716217,0.07666015625,0.104875348508358,-0.1368170827627182
2921757661337,0.2753331959247589,-9.469067573547363,0.812831461429596,0.0846455842256546,0.1040768101811409,-0.1405436247587204
2921758898700,0.28371289372444153,-9.433155059814453,0.767341673374176,0.0873074010014534,0.0966237336397171,-0.1456010639667511
2921760136025,0.2585738003253937,-9.481039047241211,0.7829039692878723,0.090501569211483,0.0942281037569046,-0.148529052734375
2921761373350,0.3208230435848236,-9.465476036071777,0.7829039692878723,0.0960913747549057,0.0998179093003273,-0.1490614116191864
2921762610687,0.28969842195510864,-9.454702377319336,0.8104372620582581,0.0974222794175148,0.0955590158700943,-0.1503923237323761
2921763848012,0.3280056416988373,-9.496601104736328,0.849941611289978,0.1008826345205307,0.0968899205327034,-0.1525217741727829
2921765085350,0.3232172429561615,-9.491812705993652,0.8044517636299133,0.1035444438457489,0.0984870046377182,-0.1509246826171875
2921766322675,0.3423708379268646,-9.530119895935059,0.8451532125473022,0.1088680699467659,0.0968899205327034,-0.1554497629404068
2921767560025,0.3148375153541565,-9.558850288391113,0.8176198601722717,0.1123284250497818,0.0928971990942955,-0.1533203125
2921768797350,0.28969842195510864,-9.580398559570312,0.8607155084609985,0.1133931428194046,0.0928971990942955,-0.1583777517080307
2921770034675,0.3315969407558441,-9.601945877075195,0.812831461429596,0.1184505894780159,0.0944942906498909,-0.1599748432636261
2921771272012,0.333991140127182,-9.576807022094727,0.8774749040603638,0.1227094829082489,0.0902353897690773,-0.1639675498008728
2921772509362,0.33758243918418884,-9.578003883361816,0.849941611289978,0.1221771240234375,0.0867750346660614,-0.1647661030292511
2921773746675,0.36990416049957275,-9.592369079589844,0.8583213090896606,0.1261698454618454,0.0859764963388443,-0.1703559011220932
2921774984012,0.39145198464393616,-9.622296333312988,0.8655039072036743,0.1288316547870636,0.0811852365732193,-0.1692911684513092
2921776221337,0.3758896589279175,-9.625887870788574,0.910993754863739,0.1264360249042511,0.0849117711186409,-0.1703559011220932
2921777458662,0.3711012601852417,-9.63187313079834,0.8942343592643738,0.1301625519990921,0.0785234197974205,-0.1706220805644989
2921778696012,0.3926490843296051,-9.646238327026367,0.9133879542350769,0.1301625519990921,0.0806528702378273,-0.171420618891716
2921779933337,0.3974374830722809,-9.639056205749512,0.8523358106613159,0.1349538117647171,0.0801205113530159,-0.1764780580997467
2921781170662,0.4213795065879822,-9.641449928283691,0.8978256583213806,0.1346876323223114,0.0753292515873909,-0.1767442524433136
2921782408000,0.39624038338661194,-9.633070945739746,0.8978256583213806,0.1376156210899353,0.0747968852519989,-0.1746148020029068
2921783645337,0.3902548849582672,-9.640253067016602,0.93254154920578,0.1445363312959671,0.0726674422621727,-0.1767442524433136
2921784882662,0.4345476031303406,-9.68694019317627,0.9002198576927185,0.1501261442899704,0.071868896484375,-0.1796722412109375
2921786120000,0.4189853072166443,-9.639056205749512,0.9085995554924011,0.1519894003868103,0.0676099956035614,-0.1748809814453125
2921787357337,0.46088382601737976,-9.703699111938477,0.8954314589500427,0.1538526713848114,0.0684085413813591,-0.1754133403301239
2921788594675,0.44532153010368347,-9.648633003234863,0.9289502501487732,0.1562483012676239,0.0662790909409523,-0.1751471608877182
2921789831987,0.4812345504760742,-9.66299819946289,0.9445126056671143,0.1530541330575943,0.0652143657207489,-0.1791398823261261
2921791069337,0.4213795065879822,-9.648633003234863,0.9624691009521484,0.1559821218252182,0.0596245639026165,-0.1770104318857193
2921792306662,0.4465186297893524,-9.615114212036133,0.9696516990661621,0.1637013703584671,0.0580274797976017,-0.1738162487745285
2921793544000,0.456095427274704,-9.622296333312988,0.9840168952941895,0.1623704731464386,0.0596245639026165,-0.1711544394493103
2921794781325,0.456095427274704,-9.59596061706543,0.9528923034667969,0.1621042937040329,0.0609554722905159,-0.1764780580997467
2921796018662,0.45489832758903503,-9.59835433959961,0.9792284965515137,0.1607733815908432,0.0588260218501091,-0.1740824282169342
2921797256000,0.4596867263317108,-9.617507934570312,0.9995791912078857,0.16290283203125,0.0561642125248909,-0.1724853515625
2921798493337,0.48482584953308105,-9.592369079589844,0.9923965930938721,0.1660970002412796,0.0582936592400074,-0.1732838898897171
2921799730662,0.48482584953308105,-9.568427085876465,1.0199298858642578,0.1692911684513092,0.0604231096804142,-0.1743486225605011
2921800967987,0.4692635238170624,-9.533711433410645,1.0031704902648926,0.167694091796875,0.0529700368642807,-0.1730177104473114
2921802205325,0.4644751250743866,-9.549273490905762,1.0522516965866089,0.1724853515625,0.0487111397087574,-0.1708882600069046
2921803442662,0.4908113479614258,-9.53969669342041,1.0342952013015747,0.1735500693321228,0.0529700368642807,-0.1730177104473114
2921804680000,0.49320554733276367,-9.50498104095459,1.0271124839782715,0.1716867983341217,0.0561642125248909,-0.1799384206533432
2921805917300,0.50876784324646,-9.510966300964355,1.05105459690094,0.1759456992149353,0.0532362200319767,-0.1748809814453125
2921807154662,0.47884035110473633,-9.491812705993652,1.0031704902648926,0.185794398188591,0.0492435023188591,-0.1740824282169342
2921808391987,0.5063736438751221,-9.531316757202148,0.9780313968658447,0.1887224018573761,0.0473802350461483,-0.176211878657341
2921809629350,0.50876784324646,-9.544485092163086,1.0259153842926025,0.1871253103017807,0.0495096817612648,-0.1743486225605011
2921810866675,0.5231330990791321,-9.5624418258667,1.0307037830352783,0.1935136616230011,0.0439198799431324,-0.1756795197725296
2921812104000,0.4884171485900879,-9.56124496459961,1.0295066833496094,0.1959092915058136,0.0444522425532341,-0.1799384206533432
2921813341312,0.50876784324646,-9.589975357055664,1.0271124839782715,0.1929812878370285,0.0463155098259449,-0.1743486225605011
2921814578650,0.5231330990791321,-9.588777542114258,1.013944387435913,0.1969740092754364,0.0460493303835392,-0.1740824282169342
2921815815962,0.5291185975074768,-9.607931137084961,1.072602391242981,0.1975063681602478,0.0465816929936409,-0.1794060617685318
2921817053325,0.47884035110473633,-9.611522674560547,1.05105459690094,0.1940460205078125,0.0439198799431324,-0.1815355122089386
2921818290637,0.4991910457611084,-9.633070945739746,1.091755986213684,0.1929812878370285,0.04791259765625,-0.1833987683057785
2921819527987,0.5279214978218079,-9.634267807006836,1.1348515748977661,0.1983049213886261,0.0495096817612648,-0.1847296804189682
2921820765337,0.5434837937355042,-9.658209800720215,1.0893617868423462,0.2025638073682785,0.0439198799431324,-0.185794398188591
2921822002650,0.5339069962501526,-9.690531730651855,1.091755986213684,0.1983049213886261,0.0396609827876091,-0.1863267719745636
2921823240000,0.585382342338562,-9.667786598205566,1.115697979927063,0.2004343569278717,0.0417904332280159,-0.1833987683057785
2921824477300,0.569819986820221,-9.684545516967773,1.0809820890426636,0.2022976279258728,0.0391286201775074,-0.1815355122089386
2921825714650,0.5638344883918762,-9.700108528137207,1.0989385843276978,0.2038947194814682,0.0399271659553051,-0.1847296804189682
2921826951987,0.5961562395095825,-9.715670585632324,1.1097124814987183,0.2014990895986557,0.0324740931391716,-0.1818016916513443
2921828189300,0.5590460896492004,-9.724050521850586,1.0905588865280151,0.2028299868106842,0.0391286201775074,-0.181003138422966
2921829426637,0.5722141861915588,-9.768342971801758,1.1025298833847046,0.2028299868106842,0.0372653529047966,-0.1815355122089386
2921830663975,0.585382342338562,-9.818621635437012,1.113303780555725,0.1996358186006546,0.0362006276845932,-0.1788736879825592
2921831901300,0.5662286877632141,-9.77791976928711,1.0893617868423462,0.1996358186006546,0.0343373604118824,-0.1746148020029068
2921833138625,0.5829881429672241,-9.780314445495605,1.1432312726974487,0.2038947194814682,0.0319417305290699,-0.1783413290977478
2921834375975,0.5781997442245483,-9.821015357971191,1.1420341730117798,0.1993696391582489,0.033272635191679,-0.1780751496553421
2921835613275,0.5805939435958862,-9.816226959228516,1.1468225717544556,0.1977725476026535,0.0372653529047966,-0.1778089702129364
2921836850637,0.5781997442245483,-9.830592155456543,1.1635820865631104,0.1975063681602478,0.0346035435795784,-0.1730177104473114
2921838087975,0.5638344883918762,-9.816226959228516,1.1528080701828003,0.1991034597158432,0.02901373989880085,-0.1735500693321228
2921839325287,0.6248866319656372,-9.853337287902832,1.1851298809051514,0.1959092915058136,0.0327402763068676,-0.171420618891716
2921840562625,0.6033388376235962,-9.813833236694336,1.1671733856201172,0.1975063681602478,0.03087700717151165,-0.176211878657341
2921841799987,0.5434837937355042,-9.832986831665039,1.1839327812194824,0.1921827495098114,0.033272635191679,-0.1746148020029068
2921843037312,0.6212953329086304,-9.84376049041748,1.1803414821624756,0.191650390625,0.0359344482421875,-0.1703559011220932
2921844274625,0.5961562395095825,-9.816226959228516,1.2401964664459229,0.1927151083946228,0.0306108258664608,-0.171420618891716
2921845511987,0.5997475385665894,-9.84376049041748,1.193509578704834,0.1956430971622467,0.02901373989880085,-0.1730177104473114
2921846749312,0.6368576288223267,-9.821015357971191,1.237802267074585,0.1972401887178421,0.02794901467859745,-0.1708882600069046
2921847986637,0.6045359373092651,-9.816226959228516,1.2018892765045166,0.1892547607421875,0.0319417305290699,-0.1732838898897171
2921849223950,0.6308721303939819,-9.84615421295166,1.1611878871917725,0.1908518373966217,0.03087700717151165,-0.1684926301240921
2921850461300,0.5913678407669067,-9.884461402893066,1.216254472732544,0.1876576691865921,0.0292799212038517,-0.1671617329120636
2921851698637,0.6212953329086304,-9.908403396606445,1.170764684677124,0.1873914897441864,0.0324740931391716,-0.1671617329120636
2921852935975,0.6488286852836609,-9.897629737854004,1.1994950771331787,0.1892547607421875,0.0306108258664608,-0.1663631796836853
2921854173287,0.6189011335372925,-9.906009674072266,1.2078747749328613,0.1833987683057785,0.0215606689453125,-0.1631690114736557
2921855410625,0.6727706789970398,-9.939528465270996,1.2294225692749023,0.1812693178653717,0.0282151959836483,-0.1621042937040329
2921856647950,0.5997475385665894,-9.946710586547852,1.2042834758758545,0.18206787109375,0.0268842913210392,-0.1631690114736557
2921857885287,0.6308721303939819,-9.961075782775879,1.2234370708465576,0.1815355122089386,0.0271504707634449,-0.1642337292432785
2921859122625,0.6619967818260193,-9.945513725280762,1.2294225692749023,0.1794060617685318,0.02608574740588665,-0.1597086638212204
2921860359950,0.6224924325942993,-9.949105262756348,1.2521674633026123,0.1804707795381546,0.02182685025036335,-0.1535864919424057
2921861597287,0.6512228846549988,-10.019734382629395,1.1899182796478271,0.1780751496553421,0.02422248013317585,-0.1559821218252182
2921862834625,0.6524199843406677,-9.986215591430664,1.2473790645599365,0.176211878657341,0.02741665206849575,-0.1490614116191864
2921864071950,0.5781997442245483,-9.996989250183105,1.2330138683319092,0.1743486225605011,0.02901373989880085,-0.1557159423828125
2921865309300,0.6260837316513062,-9.975441932678223,1.256955862045288,0.1719529926776886,0.02661811001598835,-0.1559821218252182
2921866546625,0.6811503767967224,-9.998186111450195,1.2557587623596191,0.1668955385684967,0.0244886614382267,-0.1458672434091568
2921867783950,0.6332663297653198,-10.016142845153809,1.2521674633026123,0.1698235422372818,0.02422248013317585,-0.1421407014131546
2921869021287,0.5913678407669067,-9.974244117736816,1.2952631711959839,0.167694091796875,0.0223592109978199,-0.1453348845243454
2921870258625,0.6392518877983093,-9.99339771270752,1.3012486696243286,0.1594424694776535,0.02422248013317585,-0.1448025107383728
2921871495950,0.6476315855979919,-9.96945571899414,1.2749123573303223,0.1660970002412796,0.023956298828125,-0.1432054340839386
2921872733275,0.6045359373092651,-9.940725326538086,1.3215993642807007,0.1652984619140625,0.0215606689453125,-0.1400112509727478
2921873970625,0.6500257849693298,-9.913191795349121,1.3024457693099976,0.1599748432636261,0.0247548408806324,-0.1373494416475296
2921875207937,0.6332663297653198,-9.876082420349121,1.2988544702529907,0.1530541330575943,0.0196974016726017,-0.1309611052274704
2921876445287,0.6787561774253845,-9.898826599121094,1.3299790620803833,0.152255579829216,0.023956298828125,-0.1288316547870636
2921877682625,0.6727706789970398,-9.8784761428833,1.2964602708816528,0.1594424694776535,0.02901373989880085,-0.1306949108839035
2921878919950,0.7146692276000977,-9.888052940368652,1.3299790620803833,0.1621042937040329,0.0244886614382267,-0.1298963725566864
2921880157287,0.6751648783683777,-9.849745750427246,1.3204022645950317,0.1597086638212204,0.02022976242005825,-0.12457275390625
2921881394600,0.6667851805686951,-9.837775230407715,1.3527239561080933,0.1599748432636261,0.0247548408806324,-0.1243065744638443
2921882631925,0.6584054827690125,-9.852140426635742,1.3060370683670044,0.1623704731464386,0.02502102218568325,-0.1227094829082489
2921883869275,0.7086837291717529,-9.854534149169922,1.3443442583084106,0.1621042937040329,0.0258195661008358,-0.1203138530254364
2921885106600,0.7541735172271729,-9.84376049041748,1.3443442583084106,0.1538526713848114,0.02022976242005825,-0.1181844025850296
2921886343937,0.7086837291717529,-9.831789016723633,1.3718775510787964,0.1554497629404068,0.02369011752307415,-0.1205800324678421
2921887581275,0.6835445761680603,-9.835380554199219,1.3227964639663696,0.1482628732919693,0.0247548408806324,-0.1211123988032341
2921888818587,0.6584054827690125,-9.884461402893066,1.3263877630233765,0.1538526713848114,0.02502102218568325,-0.1227094829082489
2921890055950,0.6811503767967224,-9.856928825378418,1.3551181554794312,0.1546512097120285,0.02315775491297245,-0.12457275390625
2921891293275,0.729034423828125,-9.848548889160156,1.3311761617660522,0.1562483012676239,0.0215606689453125,-0.1200476735830307
2921892530612,0.6428431868553162,-9.841365814208984,1.3754688501358032,0.1546512097120285,0.02794901467859745,-0.1216447576880455
2921893767937,0.6787561774253845,-9.906009674072266,1.3778630495071411,0.1495937705039978,0.023956298828125,-0.1187167689204216
2921895005275,0.6153098344802856,-9.939528465270996,1.3994109630584717,0.1479966938495636,0.02608574740588665,-0.1139255091547966
2921896242587,0.6799532771110535,-9.95748519897461,1.357512354850769,0.1495937705039978,0.02502102218568325,-0.114457868039608
2921897479950,0.7206547260284424,-9.994595527648926,1.4317326545715332,0.1490614116191864,0.02262539230287075,-0.114457868039608
2921898717262,0.7050924301147461,-9.987412452697754,1.3515268564224243,0.1490614116191864,0.0162370465695858,-0.1136593297123909
2921899954612,0.7230489253997803,-10.019734382629395,1.3251906633377075,0.1535864919424057,0.02022976242005825,-0.1128607839345932
2921901191950,0.6607996821403503,-10.004172325134277,1.3455413579940796,0.1463996022939682,0.0244886614382267,-0.1141916885972023
2921902429275,0.7158663272857666,-10.002974510192871,1.3922282457351685,0.1453348845243454,0.02422248013317585,-0.109666608273983
2921903666600,0.6919242739677429,-10.070012092590332,1.3611036539077759,0.1511908620595932,0.0215606689453125,-0.1056738942861557
2921904903937,0.7589619159698486,-10.042479515075684,1.3994109630584717,0.1501261442899704,0.01650322787463665,-0.1038106232881546
2921906141275,0.7194576263427734,-10.078392028808594,1.4018051624298096,0.1413421630859375,0.02502102218568325,-0.1014149934053421
2921907378600,0.727837324142456,-10.068815231323242,1.4030022621154785,0.14373779296875,0.0191650390625,-0.0976884588599205
2921908615912,0.6799532771110535,-10.065223693847656,1.4101848602294922,0.1397450715303421,0.0210283063352108,-0.0971560999751091
2921909853262,0.7122750282287598,-10.11430549621582,1.4185645580291748,0.1373494416475296,0.01889885775744915,-0.0974222794175148
2921911090600,0.6919242739677429,-10.077195167541504,1.4185645580291748,0.1346876323223114,0.0173017717897892,-0.0894368439912796
2921912327912,0.669179379940033,-10.092757225036621,1.4628572463989258,0.1333567351102829,0.01703559048473835,-0.0899692103266716
2921913565275,0.6823474764823914,-10.11789608001709,1.3946224451065063,0.1376156210899353,0.01783413253724575,-0.0897030308842659
2921914802600,0.6763619780540466,-10.111910820007324,1.414973258972168,0.138946533203125,0.01703559048473835,-0.0878397598862648
2921916039912,0.6919242739677429,-10.095151901245117,1.4257471561431885,0.129364013671875,0.01650322787463665,-0.0833146795630455
2921917277275,0.6835445761680603,-10.102334022521973,1.3970166444778442,0.1264360249042511,0.0181003138422966,-0.076127789914608
2921918514587,0.6979097723960876,-10.11550235748291,1.4413094520568848,0.1312272846698761,0.01756795309484005,-0.0739983469247818
2921919751937,0.6727706789970398,-10.121487617492676,1.3634978532791138,0.1267022043466568,0.01889885775744915,-0.0753292515873909
2921920989250,0.7098808288574219,-10.125079154968262,1.3682862520217896,0.1259036511182785,0.0173017717897892,-0.0689409002661705
2921922226587,0.7206547260284424,-10.155006408691406,1.3910311460494995,0.1221771240234375,0.0162370465695858,-0.0697394460439682
2921923463925,0.7218518257141113,-10.145429611206055,1.4305355548858643,0.1229756623506546,0.01783413253724575,-0.0697394460439682
2921924701262,0.7122750282287598,-10.14782428741455,1.4053964614868164,0.1168534979224205,0.01889885775744915,-0.0676099956035614
2921925938600,0.7230489253997803,-10.157401084899902,1.3970166444778442,0.1168534979224205,0.02076212503015995,-0.0609554722905159
2921927175937,0.729034423828125,-10.176554679870605,1.4101848602294922,0.1139255091547966,0.01836649514734745,-0.0604231096804142
2921928413250,0.6979097723960876,-10.153809547424316,1.4089877605438232,0.1136593297123909,0.01703559048473835,-0.0553656667470932
2921929650600,0.6584054827690125,-10.193313598632812,1.4209587574005127,0.1070047989487648,0.0186326764523983,-0.0503082275390625
2921930887925,0.6476315855979919,-10.139444351196289,1.4221558570861816,0.1091342493891716,0.0138414166867733,-0.0553656667470932
2921932125250,0.645237386226654,-10.156203269958496,1.4281413555145264,0.1024797186255455,0.01357523538172245,-0.0513729527592659
2921933362587,0.6919242739677429,-10.176554679870605,1.3862427473068237,0.1003502756357193,0.0173017717897892,-0.0511067695915699
2921934599912,0.707486629486084,-10.135852813720703,1.4006080627441406,0.100084088742733,0.02022976242005825,-0.0495096817612648
2921935837237,0.7122750282287598,-10.125079154968262,1.4329297542572021,0.0958251953125,0.0210283063352108,-0.0492435023188591
2921937074600,0.7026982307434082,-10.105925559997559,1.4437036514282227,0.0976884588599205,0.02022976242005825,-0.0471140518784523
2921938311925,0.690727174282074,-10.055646896362305,1.4544775485992432,0.0918324738740921,0.015172322280704975,-0.0415242500603199
2921939549262,0.7098808288574219,-10.042479515075684,1.4664485454559326,0.0859764963388443,0.0138414166867733,-0.0407257080078125
2921940786562,0.7194576263427734,-10.016142845153809,1.4413094520568848,0.0833146795630455,0.01783413253724575,-0.043121337890625
2921942023925,0.6943184733390808,-9.950302124023438,1.4640543460845947,0.0859764963388443,0.0252872034907341,-0.043121337890625
2921943261237,0.7134721279144287,-9.996989250183105,1.4951789379119873,0.0854441300034523,0.0223592109978199,-0.0409918874502182
2921944498600,0.6631938815116882,-9.909601211547852,1.4544775485992432,0.0841132253408432,0.0210283063352108,-0.0375315360724926
2921945735912,0.7050924301147461,-9.963470458984375,1.4472949504852295,0.085710309445858,0.0186326764523983,-0.0359344482421875
2921946973250,0.7230489253997803,-9.917980194091797,1.4664485454559326,0.0817175954580307,0.02555338479578495,-0.02874755859375
2921948210587,0.7481880187988281,-9.880870819091797,1.4676456451416016,0.0750630721449852,0.02741665206849575,-0.0340711809694767
2921949447912,0.7086837291717529,-9.84615421295166,1.4844050407409668,0.0779910609126091,0.0234239362180233,-0.038330078125
2921950685250,0.706289529800415,-9.860519409179688,1.4772224426269531,0.0777248814702034,0.0223592109978199,-0.0354020856320858
2921951922612,0.7350199222564697,-9.848548889160156,1.4939818382263184,0.071336530148983,0.02315775491297245,-0.0351359061896801
2921953159925,0.7182605266571045,-9.862914085388184,1.4460978507995605,0.0771925151348114,0.033272635191679,-0.0452507846057415
2921954397237,0.7242460250854492,-9.856928825378418,1.4496891498565674,0.0771925151348114,0.0276828333735466,-0.0423227921128273
2921955634575,0.6967126727104187,-9.907206535339355,1.4688427448272705,0.0750630721449852,0.02022976242005825,-0.0362006276845932
2921956871937,0.706289529800415,-9.864110946655273,1.4305355548858643,0.0745307058095932,0.0324740931391716,-0.0327402763068676
2921958109250,0.6607996821403503,-9.911994934082031,1.4532804489135742,0.0702718123793602,0.0292799212038517,-0.0343373604118824
2921959346587,0.690727174282074,-9.910798072814941,1.4736311435699463,0.0739983469247818,0.0306108258664608,-0.0364668108522892
2921960583925,0.6727706789970398,-9.916783332824707,1.4460978507995605,0.0753292515873909,0.0292799212038517,-0.0327402763068676
2921961821237,0.6919242739677429,-9.916783332824707,1.4832079410552979,0.0684085413813591,0.02981228195130825,-0.0306108258664608
2921963058575,0.7003040313720703,-9.955090522766113,1.4257471561431885,0.066545270383358,0.0324740931391716,-0.0324740931391716
2921964295912,0.7015011310577393,-9.940725326538086,1.4628572463989258,0.0692070871591568,0.0340711809694767,-0.0369991734623909
2921965533262,0.727837324142456,-10.02332592010498,1.4676456451416016,0.0700056254863739,0.0295461006462574,-0.0354020856320858
2921966770600,0.7362170219421387,-10.032902717590332,1.456871747970581,0.0633511021733284,0.0311431884765625,-0.0276828333735466
2921968007912,0.7038953304290771,-10.010157585144043,1.4652514457702637,0.0585598424077034,0.0338049978017807,-0.02901373989880085
2921969245262,0.7386112213134766,-10.089165687561035,1.4640543460845947,0.0617540143430233,0.0327402763068676,-0.0292799212038517
2921970482575,0.7110779285430908,-10.101137161254883,1.4472949504852295,0.0585598424077034,0.0338049978017807,-0.02901373989880085
2921971719912,0.7206547260284424,-10.109517097473145,1.4317326545715332,0.0585598424077034,0.0314093679189682,-0.02981228195130825
2921972957262,0.7433996200561523,-10.1382474899292,1.4903905391693115,0.052703857421875,0.03034464456140995,-0.0306108258664608
2921974194587,0.751779317855835,-10.146626472473145,1.4652514457702637,0.0484449602663517,0.0319417305290699,-0.02262539230287075
2921975431912,0.7254431247711182,-10.14902114868164,1.4975731372833252,0.0495096817612648,0.0268842913210392,-0.02022976242005825
2921976669250,0.7122750282287598,-10.11789608001709,1.4724340438842773,0.0455169677734375,0.02901373989880085,-0.0210283063352108
2921977906575,0.729034423828125,-10.099940299987793,1.502361536026001,0.0409918874502182,0.02608574740588665,-0.0210283063352108
2921979143912,0.729034423828125,-10.107122421264648,1.4975731372833252,0.0391286201775074,0.0300784632563591,-0.0186326764523983
2921980381237,0.7410054206848145,-10.144232749938965,1.479616641998291,0.0364668108522892,0.0234239362180233,-0.0114457868039608
2921981618575,0.7445967197418213,-10.095151901245117,1.4712369441986084,0.0327402763068676,0.0327402763068676,-0.010647243820130825
2921982855900,0.6979097723960876,-10.11550235748291,1.4484920501708984,0.02874755859375,0.0319417305290699,-0.0077192517928779125
2921984093237,0.7218518257141113,-10.070012092590332,1.4867992401123047,0.02848137728869915,0.02901373989880085,-0.0071868896484375
2921985330575,0.7206547260284424,-10.079588890075684,1.460463047027588,0.0244886614382267,0.02848137728869915,-0.0015970865497365594
2921986567900,0.690727174282074,-10.08437728881836,1.4484920501708984,0.0162370465695858,0.0330064557492733,0.0005323622026480734
2921987805237,0.7086837291717529,-10.093954086303711,1.4856021404266357,0.010114881210029125,0.033538818359375,-0.0002661811013240367
2921989042575,0.7098808288574219,-10.053253173828125,1.4508862495422363,0.01597086526453495,0.0300784632563591,0.003460354171693325
2921990279912,0.6979097723960876,-10.074800491333008,1.4496891498565674,0.01410759799182415,0.0351359061896801,0.0026618109550327063
2921991517237,0.7314286231994629,-10.050858497619629,1.5131354331970215,0.00692070834338665,0.0348697230219841,-0.0002661811013240367
2921992754575,0.7362170219421387,-10.032902717590332,1.4628572463989258,0.0023956298828125,0.0356682650744915,0.0077192517928779125
2921993991912,0.7374141216278076,-10.012551307678223,1.455674648284912,0.0013309054775163531,0.0311431884765625,0.013042873702943325
2921995229237,0.7529764175415039,-9.987412452697754,1.5095441341400146,0.0023956298828125,0.0324740931391716,0.015438503585755825
2921996466575,0.7146692276000977,-10.014945983886719,1.5167267322540283,0.0029279920272529125,0.0314093679189682,0.01836649514734745
2921997703887,0.7146692276000977,-9.927556991577148,1.4676456451416016,0.0,0.0324740931391716,0.0215606689453125
2921998941250,0.6991068720817566,-9.943120002746582,1.50355863571167,-0.007985432632267475,0.0359344482421875,0.02182685025036335
2922000178575,0.7601590752601624,-9.922768592834473,1.5286978483200073,-0.0066545275039970875,0.0295461006462574,0.0220930315554142
2922001415900,0.7577648162841797,-9.908403396606445,1.4748282432556152,-0.00452507846057415,0.0327402763068676,0.0263519287109375
2922002653237,0.7386112213134766,-9.913191795349121,1.45806884765625,-0.007985432632267475,0.033272635191679,0.02741665206849575
2922003890575,0.7386112213134766,-9.917980194091797,1.4987702369689941,-0.0119781494140625,0.02981228195130825,0.0292799212038517
2922005127900,0.7422025203704834,-9.849745750427246,1.4832079410552979,-0.01597086526453495,0.02901373989880085,0.02981228195130825
2922006365237,0.7182605266571045,-9.880870819091797,1.4496891498565674,-0.0167694091796875,0.0292799212038517,0.0362006276845932
2922007602575,0.7589619159698486,-9.890447616577148,1.4891934394836426,-0.012776692397892475,0.02555338479578495,0.0393948033452034
2922008839887,0.7469909191131592,-9.922768592834473,1.434126853942871,-0.01756795309484005,0.0314093679189682,0.0327402763068676
2922010077262,0.7362170219421387,-9.944316864013672,1.437718152999878,-0.0191650390625,0.0268842913210392,0.0375315360724926
2922011314575,0.7625532746315002,-9.922768592834473,1.3634978532791138,-0.01756795309484005,0.02981228195130825,0.042855154722929
2922012551912,0.7314286231994629,-9.953893661499023,1.416170358657837,-0.02022976242005825,0.02794901467859745,0.0412580706179142
2922013789225,0.767341673374176,-9.950302124023438,1.455674648284912,-0.02555338479578495,0.02661811001598835,0.0423227921128273
2922015026587,0.7362170219421387,-9.952696800231934,1.413776159286499,-0.02502102218568325,0.0300784632563591,0.0439198799431324
2922016263900,0.7410054206848145,-10.001777648925781,1.4425065517425537,-0.02794901467859745,0.02794901467859745,0.0484449602663517
2922017501237,0.7637503743171692,-9.986215591430664,1.4209587574005127,-0.0338049978017807,0.02422248013317585,0.0505744069814682
2922018738575,0.7948749661445618,-9.999383926391602,1.436521053314209,-0.0263519287109375,0.02369011752307415,0.0516391322016716
2922019975900,0.7697358727455139,-10.017339706420898,1.4173674583435059,-0.03087700717151165,0.02608574740588665,0.0558980293571949
2922021213237,0.767341673374176,-10.008960723876953,1.4449007511138916,-0.0356682650744915,0.02874755859375,0.0588260218501091
2922022450562,0.7362170219421387,-10.004172325134277,1.436521053314209,-0.038063894957304,0.0157046839594841,0.0558980293571949
2922023687900,0.7769184708595276,-10.008960723876953,1.4317326545715332,-0.0385962575674057,0.0173017717897892,0.062286376953125
2922024925237,0.7769184708595276,-10.038887977600098,1.456871747970581,-0.0375315360724926,0.0215606689453125,0.0628187358379364
2922026162575,0.7589619159698486,-10.0580415725708,1.4185645580291748,-0.0393948033452034,0.0167694091796875,0.0641496405005455
2922027399912,0.7649474740028381,-10.043676376342773,1.437718152999878,-0.0415242500603199,0.02076212503015995,0.0625525563955307
2922028637225,0.689530074596405,-10.035296440124512,1.4317326545715332,-0.0452507846057415,0.01943122036755085,0.0633511021733284
2922029874575,0.7445967197418213,-10.046070098876953,1.4616601467132568,-0.0492435023188591,0.02182685025036335,0.0697394460439682
2922031111887,0.7457938194274902,-10.043676376342773,1.414973258972168,-0.0468478724360466,0.014906140975654125,0.0657467320561409
2922032349237,0.751779317855835,-10.049661636352539,1.3934253454208374,-0.0465816929936409,0.013042873702943325,0.0630849227309227
2922033586550,0.7182605266571045,-10.098742485046387,1.4329297542572021,-0.052703857421875,0.01357523538172245,0.0689409002661705
2922034823912,0.7206547260284424,-10.08198356628418,1.4401123523712158,-0.0638834610581398,0.01117960549890995,0.0721350759267807
2922036061237,0.7086837291717529,-10.054450035095215,1.3910311460494995,-0.0652143657207489,0.01117960549890995,0.071868896484375
2922037298575,0.6991068720817566,-10.079588890075684,1.3862427473068237,-0.0596245639026165,0.010647243820130825,0.0753292515873909
2922038535900,0.6979097723960876,-10.070012092590332,1.3718775510787964,-0.0673438161611557,0.01224433071911335,0.076127789914608
2922039773237,0.727837324142456,-10.068815231323242,1.357512354850769,-0.0652143657207489,0.006122165359556675,0.0785234197974205
2922041010587,0.7026982307434082,-10.070012092590332,1.3180080652236938,-0.0681423619389534,0.004791259765625,0.0747968852519989
2922042247900,0.7326257228851318,-9.99339771270752,1.3706804513931274,-0.0753292515873909,0.004791259765625,0.0758616104722023
2922043485212,0.7038953304290771,-10.049661636352539,1.4077906608581543,-0.0753292515873909,0.005057440605014563,0.0747968852519989
2922044722562,0.7338228225708008,-10.022128105163574,1.3754688501358032,-0.0753292515873909,0.0090501569211483,0.0833146795630455
2922045959887,0.7194576263427734,-10.004172325134277,1.3527239561080933,-0.0774587020277977,0.0010647244052961469,0.0787896066904068
2922047197237,0.6883329749107361,-9.985018730163574,1.3275848627090454,-0.0790557861328125,-0.0053236219100654125,0.0782572403550148
2922048434575,0.707486629486084,-9.988609313964844,1.380257248878479,-0.080919049680233,-0.0018632676219567657,0.0769263356924057
2922049671900,0.6859387755393982,-9.9586820602417,1.3551181554794312,-0.0833146795630455,-0.003460354171693325,0.0817175954580307
2922050909237,0.690727174282074,-9.987412452697754,1.3946224451065063,-0.0835808664560318,-0.003460354171693325,0.0833146795630455
2922052146575,0.7182605266571045,-9.955090522766113,1.3527239561080933,-0.0843794047832489,-0.0013309054775163531,0.0811852365732193
2922053383900,0.6763619780540466,-9.909601211547852,1.3239935636520386,-0.0825161412358284,-0.008517795242369175,0.0817175954580307
2922054621250,0.6835445761680603,-9.928754806518555,1.337161660194397,-0.0870412141084671,-0.005589802749454975,0.0846455842256546
2922055858550,0.6512228846549988,-9.932345390319824,1.3682862520217896,-0.0934295654296875,-0.0026618109550327063,0.0873074010014534
2922057095912,0.6584054827690125,-9.9000244140625,1.3084312677383423,-0.0886383056640625,-0.005057440605014563,0.0817175954580307
2922058333225,0.6428431868553162,-9.891644477844238,1.3503297567367554,-0.0891706645488739,-0.01171196810901165,0.0801205113530159
2922059570587,0.6572083830833435,-9.886856079101562,1.3479355573654175,-0.0913001149892807,-0.01171196810901165,0.0881059393286705
2922060807912,0.6500257849693298,-9.880870819091797,1.2737152576446533,-0.0942281037569046,-0.012510511092841625,0.0801205113530159
2922062045225,0.6404489874839783,-9.861717224121094,1.314416766166687,-0.0915662944316864,-0.010913425125181675,0.0870412141084671
2922063282575,0.6129156351089478,-9.827000617980957,1.3024457693099976,-0.0907677561044693,-0.0063883461989462376,0.0878397598862648
2922064519887,0.5913678407669067,-9.882067680358887,1.290474772453308,-0.0931633859872818,-0.008251613937318325,0.0798543319106102
2922065757212,0.5650315880775452,-9.870096206665039,1.2773066759109497,-0.0902353897690773,-0.0167694091796875,0.0785234197974205
2922066994550,0.6093243360519409,-9.855731010437012,1.2880805730819702,-0.0899692103266716,-0.01756795309484005,0.0811852365732193
2922068231875,0.629675030708313,-9.882067680358887,1.2785037755966187,-0.0915662944316864,-0.013042873702943325,0.0793219655752182
2922069469212,0.6655880808830261,-9.864110946655273,1.238999366760254,-0.0915662944316864,-0.015172322280704975,0.0801205113530159
2922070706562,0.5805939435958862,-9.86650562286377,1.237802267074585,-0.0928971990942955,-0.0157046839594841,0.0803866907954216
2922071943887,0.5829881429672241,-9.873687744140625,1.2785037755966187,-0.0886383056640625,-0.01889885775744915,0.0822499617934227
2922073181225,0.6057330369949341,-9.856928825378418,1.3000515699386597,-0.0883721262216568,-0.0215606689453125,0.0825161412358284
2922074418550,0.5781997442245483,-9.84376049041748,1.256955862045288,-0.0960913747549057,-0.01357523538172245,0.0798543319106102
2922075655887,0.5949591398239136,-9.872490882873535,1.3048399686813354,-0.095292828977108,-0.01996358297765255,0.0822499617934227
2922076893225,0.629675030708313,-9.897629737854004,1.3000515699386597,-0.0926310196518898,-0.0181003138422966,0.0811852365732193
2922078130550,0.5817910432815552,-9.90361499786377,1.2437877655029297,-0.0992855504155159,-0.0181003138422966,0.0774587020277977
2922079367900,0.5793968439102173,-9.93354320526123,1.2497732639312744,-0.0968899205327034,-0.012776692397892475,0.0787896066904068
2922080605225,0.5829881429672241,-9.925163269042969,1.216254472732544,-0.0950266495347023,-0.014906140975654125,0.0846455842256546
2922081842562,0.5746083855628967,-9.877279281616211,1.2737152576446533,-0.0987531840801239,-0.0210283063352108,0.0822499617934227
2922083079887,0.6189011335372925,-9.882067680358887,1.2497732639312744,-0.0982208251953125,-0.0263519287109375,0.0790557861328125
2922084317212,0.5829881429672241,-9.880870819091797,1.1994950771331787,-0.0987531840801239,-0.0215606689453125,0.0803866907954216
2922085554550,0.5781997442245483,-9.913191795349121,1.2258312702178955,-0.1019473597407341,-0.0181003138422966,0.0795881450176239
2922086791925,0.608127236366272,-9.858125686645508,1.2318167686462402,-0.1035444438457489,-0.02422248013317585,0.0819837749004364
2922088029237,0.5722141861915588,-9.858125686645508,1.2270283699035645,-0.1040768101811409,-0.0220930315554142,0.0827823206782341
2922089266562,0.6129156351089478,-9.859322547912598,1.2797008752822876,-0.1064724400639534,-0.023956298828125,0.081451416015625
2922090503900,0.6021417379379272,-9.828198432922363,1.1994950771331787,-0.1051415354013443,-0.0316755510866642,0.0798543319106102
2922091741237,0.5722141861915588,-9.880870819091797,1.2425906658172607,-0.1099327951669693,-0.0252872034907341,0.0769263356924057
2922092978562,0.5925649404525757,-9.914389610290527,1.2306196689605713,-0.1064724400639534,-0.0311431884765625,0.080919049680233
2922094215887,0.6105214357376099,-9.847352027893066,1.2437877655029297,-0.1059400737285614,-0.0343373604118824,0.081451416015625
2922095453212,0.5650315880775452,-9.829395294189453,1.2114660739898682,-0.1070047989487648,-0.0314093679189682,0.0843794047832489
2922096690575,0.5614402890205383,-9.829395294189453,1.1875240802764893,-0.109666608273983,-0.03087700717151165,0.0811852365732193
2922097927887,0.5578489899635315,-9.832986831665039,1.194706678390503,-0.1104651540517807,-0.0319417305290699,0.0835808664560318
2922099165212,0.5327098965644836,-9.855731010437012,1.1743559837341309,-0.1080695241689682,-0.0292799212038517,0.0777248814702034
2922100402550,0.5315127968788147,-9.816226959228516,1.1791443824768066,-0.1112636998295784,-0.0319417305290699,0.0763939768075943
2922101639900,0.5279214978218079,-9.77791976928711,1.1791443824768066,-0.1139255091547966,-0.0348697230219841,0.0801205113530159
2922102877212,0.5722141861915588,-9.75517463684082,1.2102689743041992,-0.1080695241689682,-0.0375315360724926,0.0833146795630455
2922104114550,0.5554547905921936,-9.782708168029785,1.216254472732544,-0.1080695241689682,-0.0369991734623909,0.0803866907954216
2922105351900,0.5410895943641663,-9.767146110534668,1.215057373046875,-0.1139255091547966,-0.0393948033452034,0.0801205113530159
2922106589237,0.4991910457611084,-9.749189376831055,1.192312479019165,-0.1125946044921875,-0.0409918874502182,0.0803866907954216
2922107826550,0.5027823448181152,-9.77672290802002,1.138442873954773,-0.1075371652841568,-0.042855154722929,0.0793219655752182
2922109063887,0.569819986820221,-9.800664901733398,1.1671733856201172,-0.1062062531709671,-0.0457831472158432,0.0819837749004364
2922110301225,0.5183447003364563,-9.771934509277344,1.1671733856201172,-0.1040768101811409,-0.0473802350461483,0.0777248814702034
2922111538562,0.5279214978218079,-9.768342971801758,1.1803414821624756,-0.109666608273983,-0.0471140518784523,0.0758616104722023
2922112775875,0.5267243981361389,-9.781511306762695,1.1611878871917725,-0.109666608273983,-0.0412580706179142,0.076127789914608
2922114013212,0.5063736438751221,-9.764751434326172,1.138442873954773,-0.10540771484375,-0.0423227921128273,0.071868896484375
2922115250550,0.5207388997077942,-9.80904483795166,1.1085153818130493,-0.1088680699467659,-0.0452507846057415,0.0684085413813591
2922116487887,0.5351040959358215,-9.783905029296875,1.115697979927063,-0.1080695241689682,-0.0447184219956398,0.0729336217045784
2922117725212,0.5315127968788147,-9.805453300476074,1.1552022695541382,-0.1088680699467659,-0.0417904332280159,0.0697394460439682
2922118962562,0.5506663918495178,-9.771934509277344,1.2198457717895508,-0.1059400737285614,-0.0471140518784523,0.0734659805893898
2922120199887,0.5398924946784973,-9.787496566772461,1.171961784362793,-0.1062062531709671,-0.047646414488554,0.0737321600317955
2922121437212,0.5530605912208557,-9.724050521850586,1.1743559837341309,-0.1056738942861557,-0.0516391322016716,0.066545270383358
2922122674550,0.5015852451324463,-9.720458984375,1.1468225717544556,-0.1091342493891716,-0.047646414488554,0.062286376953125
2922123911900,0.50876784324646,-9.710882186889648,1.1216834783554077,-0.1046091690659523,-0.0487111397087574,0.0646820068359375
2922125149237,0.4812345504760742,-9.670180320739746,1.1276689767837524,-0.1040768101811409,-0.0500420443713665,0.0678761824965477
2922126386550,0.4920084476470947,-9.670180320739746,1.1252747774124146,-0.1051415354013443,-0.0553656667470932,0.0689409002661705
2922127623887,0.47165775299072266,-9.657012939453125,1.092953085899353,-0.1067386195063591,-0.0582936592400074,0.0686747208237648
2922128861225,0.5027823448181152,-9.68933391571045,1.1444283723831177,-0.1030120849609375,-0.0561642125248909,0.0676099956035614
2922130098550,0.4800374507904053,-9.671378135681152,1.138442873954773,-0.0992855504155159,-0.0521714948117733,0.0668114572763443
2922131335887,0.4728548526763916,-9.649829864501953,1.091755986213684,-0.0976884588599205,-0.0516391322016716,0.0638834610581398
2922132573212,0.43933600187301636,-9.678560256958008,1.0785878896713257,-0.0987531840801239,-0.0548333041369915,0.0625525563955307
2922133810562,0.4572925269603729,-9.72165584564209,1.114500880241394,-0.0955590158700943,-0.0590922012925148,0.0668114572763443
2922135047875,0.4513070285320282,-9.727641105651855,1.0666168928146362,-0.0958251953125,-0.0540347620844841,0.0593583844602108
2922136285225,0.45489832758903503,-9.72165584564209,1.0785878896713257,-0.0942281037569046,-0.0580274797976017,0.0660129114985466
2922137522562,0.45848962664604187,-9.740809440612793,1.0857704877853394,-0.0918324738740921,-0.0556318499147892,0.0700056254863739
2922138759875,0.456095427274704,-9.783905029296875,1.0546458959579468,-0.0881059393286705,-0.0532362200319767,0.0577612966299057
2922139997225,0.4465186297893524,-9.747992515563965,1.0749965906143188,-0.0934295654296875,-0.0564303919672966,0.0617540143430233
2922141234562,0.4345476031303406,-9.801861763000488,1.0354923009872437,-0.0926310196518898,-0.0564303919672966,0.0697394460439682
2922142471900,0.4058171808719635,-9.77672290802002,1.05105459690094,-0.0881059393286705,-0.0561642125248909,0.0596245639026165
2922143709212,0.4441244304180145,-9.792284965515137,1.0235211849212646,-0.0859764963388443,-0.0582936592400074,0.0633511021733284
2922144946587,0.395043283700943,-9.81024169921875,1.0103530883789062,-0.0870412141084671,-0.0625525563955307,0.0625525563955307
2922146183900,0.40701428055763245,-9.774328231811523,0.9959878921508789,-0.0881059393286705,-0.0540347620844841,0.0660129114985466
2922147421225,0.45489832758903503,-9.813833236694336,1.0115501880645752,-0.0870412141084671,-0.0604231096804142,0.0652143657207489
2922148658550,0.4967968463897705,-9.799468040466309,0.9780313968658447,-0.0923648402094841,-0.0641496405005455,0.0636172816157341
2922149895887,0.4213795065879822,-9.805453300476074,1.0366894006729126,-0.090501569211483,-0.0617540143430233,0.0614878311753273
2922151133225,0.4273650050163269,-9.799468040466309,1.0354923009872437,-0.0851779505610466,-0.0614878311753273,0.0646820068359375
2922152370550,0.45010992884635925,-9.793481826782227,1.0462661981582642,-0.0920986607670784,-0.0638834610581398,0.0678761824965477
2922153607862,0.4465186297893524,-9.795876502990723,1.0187327861785889,-0.0875735804438591,-0.0625525563955307,0.0649481862783432
2922154845237,0.4345476031303406,-9.767146110534668,1.0307037830352783,-0.0883721262216568,-0.0614878311753273,0.0638834610581398
2922156082562,0.42616790533065796,-9.77552604675293,1.0211269855499268,-0.091033935546875,-0.0644158273935318,0.0612216517329216
2922157319887,0.43933600187301636,-9.767146110534668,1.0223240852355957,-0.0881059393286705,-0.0678761824965477,0.0662790909409523
2922158557212,0.4704606235027313,-9.743204116821289,0.9792284965515137,-0.0851779505610466,-0.0689409002661705,0.0673438161611557
2922159794562,0.46806642413139343,-9.750386238098145,1.0414777994155884,-0.0894368439912796,-0.066545270383358,0.0657467320561409
2922161031887,0.43933600187301636,-9.72285270690918,0.9995791912078857,-0.0889044851064682,-0.0638834610581398,0.0625525563955307
2922162269237,0.456095427274704,-9.691728591918945,1.0271124839782715,-0.0883721262216568,-0.0641496405005455,0.0569627545773983
2922163506550,0.4513070285320282,-9.714473724365234,1.0283095836639404,-0.0870412141084671,-0.0654805526137352,0.0606892891228199
2922164743887,0.4441244304180145,-9.727641105651855,1.013944387435913,-0.0873074010014534,-0.066545270383358,0.0604231096804142
2922165981225,0.4513070285320282,-9.658209800720215,0.9852139949798584,-0.0891706645488739,-0.0662790909409523,0.0598907470703125
2922167218550,0.4596867263317108,-9.677363395690918,0.993593692779541,-0.0859764963388443,-0.0657467320561409,0.0585598424077034
2922168455887,0.4692635238170624,-9.636661529541016,0.9768342971801758,-0.0803866907954216,-0.0662790909409523,0.0577612966299057
2922169693225,0.46327802538871765,-9.66299819946289,0.9672574996948242,-0.0790557861328125,-0.0705379918217659,0.0577612966299057
2922170930562,0.42616790533065796,-9.679757118225098,1.0103530883789062,-0.0870412141084671,-0.0686747208237648,0.0553656667470932
2922172167875,0.47165775299072266,-9.635464668273926,0.9804255962371826,-0.0819837749004364,-0.0710703507065773,0.0545671246945858
2922173405225,0.4668693244457245,-9.606734275817871,0.9804255962371826,-0.0803866907954216,-0.0734659805893898,0.0548333041369915
2922174642550,0.4728548526763916,-9.579200744628906,0.9624691009521484,-0.0798543319106102,-0.0724012553691864,0.0508405901491642
2922175879900,0.4800374507904053,-9.567230224609375,1.0055646896362305,-0.0737321600317955,-0.0710703507065773,0.0495096817612648
2922177117212,0.395043283700943,-9.564835548400879,0.9768342971801758,-0.0745307058095932,-0.0726674422621727,0.0492435023188591
2922178354550,0.39384618401527405,-9.570821762084961,0.973242998123169,-0.0750630721449852,-0.0697394460439682,0.0516391322016716
2922179591900,0.4465186297893524,-9.570821762084961,1.0079588890075684,-0.0724012553691864,-0.076127789914608,0.0460493303835392
2922180829237,0.4465186297893524,-9.566033363342285,1.0295066833496094,-0.0692070871591568,-0.0790557861328125,0.0423227921128273
2922182066550,0.44173023104667664,-9.575610160827637,0.9540894031524658,-0.0668114572763443,-0.0777248814702034,0.0447184219956398
2922183303900,0.45848962664604187,-9.563638687133789,0.9828197956085205,-0.0652143657207489,-0.071868896484375,0.043121337890625
2922184541225,0.43335050344467163,-9.567230224609375,0.9768342971801758,-0.0630849227309227,-0.0716027170419693,0.042855154722929
2922185778562,0.45848962664604187,-9.576807022094727,0.9780313968658447,-0.0630849227309227,-0.0755954310297966,0.0415242500603199
2922187015900,0.3842693865299225,-9.579200744628906,0.950498104095459,-0.0673438161611557,-0.0745307058095932,0.0423227921128273
2922188253225,0.35913026332855225,-9.575610160827637,0.9409212470054626,-0.0593583844602108,-0.0787896066904068,0.0404595248401165
2922189490550,0.3627215623855591,-9.580398559570312,0.9600749015808105,-0.0564303919672966,-0.0758616104722023,0.0404595248401165
2922190727900,0.3818751871585846,-9.585186958312988,0.9373299479484558,-0.0604231096804142,-0.0742645263671875,0.042855154722929
2922191965225,0.37229835987091064,-9.587580680847168,0.9469068050384521,-0.0577612966299057,-0.0745307058095932,0.042855154722929
2922193202550,0.3387795388698578,-9.636661529541016,0.9361328482627869,-0.0511067695915699,-0.0742645263671875,0.0447184219956398
2922194439887,0.3902548849582672,-9.625887870788574,0.8858546614646912,-0.0497758649289608,-0.0801205113530159,0.0417904332280159
2922195677225,0.363918662071228,-9.624691009521484,0.8810662031173706,-0.0529700368642807,-0.081451416015625,0.0367329902946949
2922196914550,0.33279404044151306,-9.678560256958008,0.8810662031173706,-0.0511067695915699,-0.0763939768075943,0.0385962575674057
2922198151887,0.3711012601852417,-9.657012939453125,0.9217676520347595,-0.0505744069814682,-0.0737321600317955,0.0367329902946949
2922199389237,0.35434186458587646,-9.679757118225098,0.9169792532920837,-0.04791259765625,-0.0774587020277977,0.0415242500603199
2922200626537,0.3471592366695404,-9.700108528137207,0.9481039047241211,-0.0511067695915699,-0.0777248814702034,0.0417904332280159
2922201863887,0.32680854201316833,-9.757569313049316,0.9373299479484558,-0.0558980293571949,-0.0705379918217659,0.0364668108522892
2922203101225,0.3411737382411957,-9.724050521850586,0.9433155059814453,-0.0545671246945858,-0.0710703507065773,0.0356682650744915
2922204338550,0.3603273630142212,-9.718064308166504,0.9684545993804932,-0.0503082275390625,-0.0745307058095932,0.0412580706179142
2922205575887,0.3315969407558441,-9.757569313049316,0.9133879542350769,-0.0540347620844841,-0.076127789914608,0.0367329902946949
2922206813200,0.3423708379268646,-9.763554573059082,0.933738648891449,-0.0543009415268898,-0.0686747208237648,0.0346035435795784
2922208050550,0.31603461503982544,-9.744400978088379,0.9205705523490906,-0.0513729527592659,-0.0750630721449852,0.0356682650744915
2922209287912,0.3280056416988373,-9.702502250671387,0.9241618514060974,-0.0529700368642807,-0.0729336217045784,0.02981228195130825
2922210525225,0.3711012601852417,-9.68694019317627,0.9385270476341248,-0.0487111397087574,-0.0758616104722023,0.0338049978017807
2922211762575,0.3842693865299225,-9.77552604675293,0.9433155059814453,-0.0513729527592659,-0.0758616104722023,0.0367329902946949
2922212999900,0.3447650372982025,-9.738415718078613,0.9193734526634216,-0.0537685826420784,-0.0750630721449852,0.0351359061896801
2922214237225,0.36750996112823486,-9.702502250671387,0.9062053561210632,-0.0535023994743824,-0.076127789914608,0.0369991734623909
2922215474562,0.3495534360408783,-9.71926212310791,0.9133879542350769,-0.0484449602663517,-0.07666015625,0.033538818359375
2922216711900,0.36152446269989014,-9.706093788146973,0.9313444495201111,-0.0417904332280159,-0.0737321600317955,0.0396609827876091
2922217949225,0.35913026332855225,-9.695320129394531,0.9253589510917664,-0.0473802350461483,-0.0726674422621727,0.0362006276845932
2922219186562,0.3315969407558441,-9.71926212310791,0.9062053561210632,-0.0463155098259449,-0.0734659805893898,0.0346035435795784
2922220423887,0.3387795388698578,-9.7420072555542,0.9038111567497253,-0.0412580706179142,-0.0763939768075943,0.0340711809694767
2922221661225,0.32680854201316833,-9.749189376831055,0.8463503122329712,-0.0404595248401165,-0.0745307058095932,0.0338049978017807
2922222898550,0.31124621629714966,-9.718064308166504,0.9050082564353943,-0.0441860631108284,-0.0742645263671875,0.0295461006462574
2922224135887,0.3363853394985199,-9.744400978088379,0.9074024558067322,-0.0433875173330307,-0.076127789914608,0.0327402763068676
2922225373225,0.3172317147254944,-9.72165584564209,0.8966285586357117,-0.0409918874502182,-0.0739983469247818,0.0340711809694767
2922226610562,0.33997663855552673,-9.720458984375,0.93254154920578,-0.0417904332280159,-0.0747968852519989,0.0306108258664608
2922227847887,0.32441434264183044,-9.697713851928711,0.9277531504631042,-0.0385962575674057,-0.0734659805893898,0.0327402763068676
2922229085225,0.3292027413845062,-9.716867446899414,0.9253589510917664,-0.0377977155148983,-0.0726674422621727,0.0322079136967659
2922230322575,0.25498247146606445,-9.704896926879883,0.9540894031524658,-0.0399271659553051,-0.071868896484375,0.0346035435795784
2922231559887,0.2849099934101105,-9.713275909423828,0.9193734526634216,-0.0399271659553051,-0.0737321600317955,0.02794901467859745
2922232797212,0.2968810200691223,-9.684545516967773,0.9133879542350769,-0.0348697230219841,-0.0700056254863739,0.02741665206849575
2922234034550,0.30286651849746704,-9.690531730651855,0.9564836025238037,-0.0359344482421875,-0.0654805526137352,0.03034464456140995
2922235271887,0.30885201692581177,-9.695320129394531,0.9552865028381348,-0.0356682650744915,-0.0684085413813591,0.02874755859375
2922236509225,0.33997663855552673,-9.72165584564209,0.910993754863739,-0.0327402763068676,-0.0700056254863739,0.0282151959836483
2922237746562,0.31842881441116333,-9.672574996948242,0.9062053561210632,-0.02981228195130825,-0.0660129114985466,0.02741665206849575
2922238983900,0.3208230435848236,-9.72165584564209,0.8786720037460327,-0.0316755510866642,-0.0638834610581398,0.0271504707634449
2922240221225,0.33039984107017517,-9.700108528137207,0.9050082564353943,-0.02874755859375,-0.0641496405005455,0.0268842913210392
2922241458537,0.3315969407558441,-9.71926212310791,0.910993754863739,-0.02874755859375,-0.0684085413813591,0.03034464456140995
2922242695900,0.33997663855552673,-9.691728591918945,0.9564836025238037,-0.02502102218568325,-0.0700056254863739,0.0300784632563591
2922243933212,0.3256114423274994,-9.720458984375,0.9193734526634216,-0.0191650390625,-0.0678761824965477,0.02661811001598835
2922245170562,0.3447650372982025,-9.677363395690918,0.9409212470054626,-0.0244886614382267,-0.0649481862783432,0.02182685025036335
2922246407925,0.33518823981285095,-9.709685325622559,0.912190854549408,-0.02741665206849575,-0.0660129114985466,0.02315775491297245
2922247645237,0.3555389642715454,-9.6989107131958,0.9852139949798584,-0.0234239362180233,-0.0636172816157341,0.02502102218568325
2922248882562,0.3172317147254944,-9.7420072555542,0.9181763529777527,-0.023956298828125,-0.0657467320561409,0.0215606689453125
2922250119875,0.31124621629714966,-9.731232643127441,0.933738648891449,-0.02315775491297245,-0.0644158273935318,0.0215606689453125
2922251357237,0.3148375153541565,-9.718064308166504,0.9564836025238037,-0.0210283063352108,-0.0646820068359375,0.02182685025036335
2922252594562,0.3208230435848236,-9.703699111938477,0.9097966551780701,-0.02741665206849575,-0.0684085413813591,0.0157046839594841
2922253831887,0.30286651849746704,-9.798270225524902,0.9229647517204285,-0.02129448764026165,-0.0649481862783432,0.01650322787463665
2922255069212,0.3208230435848236,-9.793481826782227,0.9409212470054626,-0.014373779296875,-0.0612216517329216,0.0215606689453125
2922256306550,0.36152446269989014,-9.77552604675293,0.9050082564353943,-0.0191650390625,-0.0654805526137352,0.02182685025036335
2922257543875,0.3148375153541565,-9.781511306762695,0.9289502501487732,-0.01703559048473835,-0.0652143657207489,0.01783413253724575
2922258781212,0.31603461503982544,-9.750386238098145,0.8990227580070496,-0.0191650390625,-0.062286376953125,0.01783413253724575
2922260018562,0.3124433159828186,-9.762357711791992,0.9409212470054626,-0.01756795309484005,-0.0617540143430233,0.01889885775744915
2922261255900,0.304063618183136,-9.791088104248047,0.9624691009521484,-0.01410759799182415,-0.0590922012925148,0.0228915736079216
2922262493212,0.3387795388698578,-9.77672290802002,0.9672574996948242,-0.0157046839594841,-0.062020193785429,0.01889885775744915
2922263730562,0.34596213698387146,-9.750386238098145,0.9469068050384521,-0.010381062515079975,-0.0566965714097023,0.023956298828125
2922264967900,0.31842881441116333,-9.744400978088379,0.9397241473197937,-0.00958251953125,-0.0596245639026165,0.02022976242005825
2922266205225,0.30526071786880493,-9.71926212310791,0.9636662006378174,-0.01357523538172245,-0.0593583844602108,0.0191650390625
2922267442562,0.34835633635520935,-9.716867446899414,0.9552865028381348,-0.013309055007994175,-0.0601569265127182,0.0196974016726017
2922268679887,0.32441434264183044,-9.696516990661621,0.9301473498344421,-0.01410759799182415,-0.0630849227309227,0.0181003138422966
2922269917225,0.36990416049957275,-9.697713851928711,0.93254154920578,-0.0090501569211483,-0.0641496405005455,0.0186326764523983
2922271154562,0.34835633635520935,-9.666589736938477,0.94930100440979,-0.004791259765625,-0.0606892891228199,0.01836649514734745
2922272391900,0.35075056552886963,-9.691728591918945,0.9050082564353943,-0.0039927163161337376,-0.0588260218501091,0.01597086526453495
2922273629237,0.3603273630142212,-9.682151794433594,0.9241618514060974,-0.0090501569211483,-0.0569627545773983,0.01171196810901165
2922274866562,0.3734954595565796,-9.635464668273926,0.9421183466911316,-0.0071868896484375,-0.0638834610581398,0.0119781494140625
2922276103912,0.3471592366695404,-9.695320129394531,0.9409212470054626,-0.0037265352439135313,-0.0580274797976017,0.01597086526453495
2922277341237,0.32680854201316833,-9.640253067016602,0.9648633003234863,-0.007985432632267475,-0.0588260218501091,0.0173017717897892
2922278578575,0.38067808747291565,-9.621099472045898,0.9876081943511963,-0.0071868896484375,-0.0516391322016716,0.00984870083630085
2922279815900,0.37469255924224854,-9.651026725769043,0.9696516990661621,-0.0018632676219567657,-0.0521714948117733,0.005855984054505825
2922281053225,0.3711012601852417,-9.625887870788574,0.9540894031524658,0.0010647244052961469,-0.0566965714097023,0.0053236219100654125
2922282290575,0.3519476652145386,-9.6618013381958,0.9600749015808105,-0.004791259765625,-0.0497758649289608,0.0066545275039970875
2922283527887,0.3387795388698578,-9.622296333312988,0.9576807022094727,0.0037265352439135313,-0.0558980293571949,0.00452507846057415
2922284765225,0.35434186458587646,-9.605537414550781,0.9469068050384521,0.0018632676219567657,-0.0604231096804142,0.0010647244052961469
2922286002575,0.3411737382411957,-9.606734275817871,0.94930100440979,0.0071868896484375,-0.0601569265127182,0.0005323622026480734
2922287239900,0.35673606395721436,-9.601945877075195,0.9181763529777527,0.0119781494140625,-0.0564303919672966,-0.0002661811013240367
2922288477250,0.38307228684425354,-9.592369079589844,0.9959878921508789,0.008783976547420025,-0.0550994873046875,0.0002661811013240367
2922289714562,0.3579331636428833,-9.580398559570312,0.9373299479484558,0.0077192517928779125,-0.0582936592400074,-0.0042588976211845875
2922290951900,0.3902548849582672,-9.588777542114258,0.9612720012664795,0.01410759799182415,-0.0569627545773983,-0.0031941730994731188
2922292189237,0.38307228684425354,-9.580398559570312,0.9373299479484558,0.01463996060192585,-0.057228934019804,0.0039927163161337376
2922293426575,0.3734954595565796,-9.513360977172852,0.9457097053527832,0.0138414166867733,-0.0606892891228199,0.0
2922294663912,0.3411737382411957,-9.568427085876465,0.9840168952941895,0.01783413253724575,-0.0588260218501091,-0.0114457868039608
2922295901250,0.365115761756897,-9.587580680847168,0.973242998123169,0.0215606689453125,-0.0612216517329216,-0.0077192517928779125
2922297138562,0.33758243918418884,-9.568427085876465,0.9864110946655273,0.0258195661008358,-0.0566965714097023,-0.0066545275039970875
2922298375887,0.36750996112823486,-9.621099472045898,1.0079588890075684,0.0204959437251091,-0.057228934019804,-0.007985432632267475
2922299613237,0.3758896589279175,-9.581595420837402,0.9756371974945068,0.0311431884765625,-0.0630849227309227,-0.008783976547420025
2922300850562,0.3770867586135864,-9.578003883361816,1.0007762908935547,0.0314093679189682,-0.0561642125248909,-0.0066545275039970875
2922302087900,0.3495534360408783,-9.606734275817871,1.0187327861785889,0.02981228195130825,-0.0532362200319767,-0.0138414166867733
2922303325225,0.39145198464393616,-9.606734275817871,1.0247182846069336,0.02981228195130825,-0.0569627545773983,-0.01357523538172245
2922304562587,0.3411737382411957,-9.612719535827637,0.9923965930938721,0.0324740931391716,-0.0588260218501091,-0.01117960549890995
2922305799900,0.33039984107017517,-9.621099472045898,0.9648633003234863,0.0377977155148983,-0.0598907470703125,-0.01171196810901165
2922307037237,0.3292027413845062,-9.690531730651855,0.993593692779541,0.0396609827876091,-0.0609554722905159,-0.010114881210029125
2922308274575,0.33758243918418884,-9.682151794433594,0.9696516990661621,0.0396609827876091,-0.0612216517329216,-0.014373779296875
2922309511900,0.3579331636428833,-9.668983459472656,0.9780313968658447,0.042855154722929,-0.0598907470703125,-0.012776692397892475
2922310749250,0.3627215623855591,-9.714473724365234,1.0127472877502441,0.0457831472158432,-0.0566965714097023,-0.0138414166867733
2922311986575,0.33518823981285095,-9.750386238098145,0.9600749015808105,0.0473802350461483,-0.0566965714097023,-0.010913425125181675
2922313223900,0.31842881441116333,-9.77672290802002,0.9792284965515137,0.0452507846057415,-0.0593583844602108,-0.0090501569211483
2922314461250,0.3447650372982025,-9.763554573059082,0.9900023937225342,0.0468478724360466,-0.0585598424077034,-0.01783413253724575
2922315698575,0.36990416049957275,-9.764751434326172,0.9361328482627869,0.0471140518784523,-0.0566965714097023,-0.01889885775744915
2922316935912,0.35075056552886963,-9.763554573059082,1.015141487121582,0.0481787770986557,-0.0561642125248909,-0.01650322787463665
2922318173237,0.34835633635520935,-9.840168952941895,0.9995791912078857,0.052437674254179,-0.0636172816157341,-0.0167694091796875
2922319410587,0.37828385829925537,-9.822212219238281,1.0247182846069336,0.0513729527592659,-0.0612216517329216,-0.0167694091796875
2922320647912,0.3902548849582672,-9.855731010437012,0.950498104095459,0.0503082275390625,-0.0537685826420784,-0.01410759799182415
2922321885237,0.37229835987091064,-9.860519409179688,0.9780313968658447,0.0503082275390625,-0.0580274797976017,-0.01783413253724575
2922323122575,0.3902548849582672,-9.894038200378418,0.9804255962371826,0.0500420443713665,-0.0625525563955307,-0.01756795309484005
2922324359925,0.3974374830722809,-9.90241813659668,0.9995791912078857,0.0505744069814682,-0.0598907470703125,-0.012510511092841625
2922325597237,0.42018240690231323,-9.915586471557617,1.0043675899505615,0.0511067695915699,-0.0590922012925148,-0.01357523538172245
2922326834587,0.3902548849582672,-9.904812812805176,1.0211269855499268,0.0495096817612648,-0.0580274797976017,-0.0210283063352108
2922328071900,0.3998316824436188,-9.971850395202637,1.0761936902999878,0.0489773228764534,-0.0609554722905159,-0.02076212503015995
2922329309237,0.4034229815006256,-9.926360130310059,1.0462661981582642,0.0495096817612648,-0.0596245639026165,-0.014906140975654125
2922330546575,0.424970805644989,-9.926360130310059,1.070208191871643,0.0513729527592659,-0.0649481862783432,-0.01783413253724575
2922331783925,0.4489128291606903,-9.914389610290527,0.9971849918365479,0.0457831472158432,-0.0644158273935318,-0.01703559048473835
2922333021250,0.37229835987091064,-9.876082420349121,1.0079588890075684,0.04791259765625,-0.0649481862783432,-0.0215606689453125
2922334258575,0.3663128614425659,-9.894038200378418,1.070208191871643,0.0497758649289608,-0.0625525563955307,-0.02608574740588665
2922335495912,0.36152446269989014,-9.932345390319824,1.0833762884140015,0.0460493303835392,-0.0625525563955307,-0.0244886614382267
2922336733237,0.35434186458587646,-9.916783332824707,1.0857704877853394,0.0444522425532341,-0.0617540143430233,-0.0295461006462574
2922337970575,0.34835633635520935,-9.920374870300293,1.049857497215271,0.0487111397087574,-0.0644158273935318,-0.03087700717151165
2922339207925,0.35434186458587646,-9.917980194091797,1.0438719987869263,0.0404595248401165,-0.0569627545773983,-0.033272635191679
2922340445250,0.2944868206977844,-9.9371337890625,1.0642226934432983,0.0409918874502182,-0.0590922012925148,-0.0319417305290699
2922341682562,0.3531447649002075,-9.956287384033203,1.0235211849212646,0.0455169677734375,-0.0617540143430233,-0.038330078125
2922342919912,0.34835633635520935,-9.925163269042969,1.0342952013015747,0.0423227921128273,-0.0585598424077034,-0.038330078125
2922344157237,0.304063618183136,-9.9371337890625,1.049857497215271,0.0433875173330307,-0.0633511021733284,-0.0369991734623909
2922345394587,0.35434186458587646,-9.938331604003906,1.0534487962722778,0.0452507846057415,-0.0660129114985466,-0.03034464456140995
2922346631912,0.3627215623855591,-9.93474006652832,1.0402806997299194,0.0439198799431324,-0.0628187358379364,-0.0351359061896801
2922347869237,0.31364041566848755,-9.941922187805176,1.0366894006729126,0.0404595248401165,-0.0628187358379364,-0.0396609827876091
2922349106600,0.333991140127182,-9.93474006652832,1.0390836000442505,0.0393948033452034,-0.0654805526137352,-0.0399271659553051
2922350343912,0.365115761756897,-9.929951667785645,1.0247182846069336,0.0407257080078125,-0.0649481862783432,-0.0369991734623909
2922351581250,0.3842693865299225,-9.979032516479492,1.0462661981582642,0.0359344482421875,-0.0612216517329216,-0.0388624407351017
2922352818575,0.3818751871585846,-9.971850395202637,1.091755986213684,0.0343373604118824,-0.0585598424077034,-0.0412580706179142
2922354055912,0.4034229815006256,-9.955090522766113,1.0390836000442505,0.0346035435795784,-0.0614878311753273,-0.0404595248401165
2922355293250,0.4058171808719635,-9.940725326538086,1.0618284940719604,0.0364668108522892,-0.0638834610581398,-0.0385962575674057
2922356530587,0.4141969084739685,-9.950302124023438,1.047463297843933,0.0346035435795784,-0.0614878311753273,-0.042855154722929
2922357767912,0.4405331015586853,-9.908403396606445,1.0354923009872437,0.0306108258664608,-0.0588260218501091,-0.0471140518784523
2922359005250,0.456095427274704,-9.882067680358887,1.072602391242981,0.0314093679189682,-0.0574951171875,-0.0489773228764534
2922360242575,0.42377370595932007,-9.911994934082031,1.1109095811843872,0.0338049978017807,-0.0609554722905159,-0.0481787770986557
2922361479912,0.39145198464393616,-9.926360130310059,1.071405291557312,0.0306108258664608,-0.0654805526137352,-0.043121337890625
2922362717250,0.456095427274704,-9.907206535339355,1.1480196714401245,0.0314093679189682,-0.0625525563955307,-0.0393948033452034
2922363954587,0.4429273307323456,-9.932345390319824,1.0905588865280151,0.0311431884765625,-0.0588260218501091,-0.047646414488554
2922365191900,0.43694180250167847,-9.892841339111328,1.1336544752120972,0.0319417305290699,-0.0545671246945858,-0.0481787770986557
2922366429237,0.4620809257030487,-9.864110946655273,1.1480196714401245,0.0327402763068676,-0.0553656667470932,-0.0492435023188591
2922367666587,0.424970805644989,-9.885659217834473,1.1061211824417114,0.0292799212038517,-0.0582936592400074,-0.0484449602663517
2922368903912,0.43335050344467163,-9.848548889160156,1.1097124814987183,0.0300784632563591,-0.0614878311753273,-0.0457831472158432
2922370141237,0.41060560941696167,-9.795876502990723,1.1528080701828003,0.0316755510866642,-0.0601569265127182,-0.0503082275390625
2922371378600,0.4273650050163269,-9.816226959228516,1.1312602758407593,0.03087700717151165,-0.0590922012925148,-0.0468478724360466
2922372615912,0.46088382601737976,-9.797073364257812,1.137245774269104,0.02901373989880085,-0.0588260218501091,-0.0473802350461483
2922373853262,0.4345476031303406,-9.799468040466309,1.1216834783554077,0.03087700717151165,-0.0553656667470932,-0.0492435023188591
2922375090587,0.48482584953308105,-9.77552604675293,1.1073182821273804,0.02901373989880085,-0.0601569265127182,-0.0439198799431324
2922376327925,0.44771572947502136,-9.765949249267578,1.1252747774124146,0.0263519287109375,-0.0574951171875,-0.0457831472158432
2922377565237,0.4381389021873474,-9.792284965515137,1.1228805780410767,0.0258195661008358,-0.0588260218501091,-0.0460493303835392
2922378802600,0.4991910457611084,-9.815030097961426,1.1192892789840698,0.03087700717151165,-0.0614878311753273,-0.04791259765625
2922380039900,0.4944026470184326,-9.786299705505371,1.0797849893569946,0.033272635191679,-0.0628187358379364,-0.0441860631108284
2922381277262,0.48243165016174316,-9.728838920593262,1.116895079612732,0.0276828333735466,-0.0614878311753273,-0.0455169677734375
2922382514600,0.4836287498474121,-9.72285270690918,1.1456254720687866,0.0282151959836483,-0.0604231096804142,-0.0447184219956398
2922383751912,0.4836287498474121,-9.744400978088379,1.1456254720687866,0.0311431884765625,-0.062286376953125,-0.0455169677734375
2922384989237,0.5327098965644836,-9.724050521850586,1.1097124814987183,0.0295461006462574,-0.0612216517329216,-0.0521714948117733
2922386226575,0.4908113479614258,-9.715670585632324,1.0773907899856567,0.02874755859375,-0.062020193785429,-0.0487111397087574
2922387463950,0.48243165016174316,-9.726444244384766,1.1432312726974487,0.0351359061896801,-0.0660129114985466,-0.0404595248401165
2922388701250,0.4920084476470947,-9.727641105651855,1.1552022695541382,0.0348697230219841,-0.0548333041369915,-0.0436537005007267
2922389938587,0.49559974670410156,-9.684545516967773,1.1623849868774414,0.0354020856320858,-0.0596245639026165,-0.0465816929936409
2922391175925,0.5063736438751221,-9.672574996948242,1.1887211799621582,0.0340711809694767,-0.0609554722905159,-0.0439198799431324
2922392413250,0.4776432514190674,-9.666589736938477,1.1647791862487793,0.033272635191679,-0.0625525563955307,-0.0404595248401165
2922393650575,0.4668693244457245,-9.636661529541016,1.171961784362793,0.0316755510866642,-0.0625525563955307,-0.0409918874502182
2922394887925,0.5063736438751221,-9.666589736938477,1.1623849868774414,0.0343373604118824,-0.0641496405005455,-0.0452507846057415
2922396125250,0.4812345504760742,-9.653421401977539,1.115697979927063,0.0354020856320858,-0.0604231096804142,-0.0436537005007267
2922397362587,0.47405195236206055,-9.6618013381958,1.1480196714401245,0.0343373604118824,-0.0633511021733284,-0.042855154722929
2922398599925,0.48482584953308105,-9.62828254699707,1.1456254720687866,0.0396609827876091,-0.0633511021733284,-0.0377977155148983
2922399837262,0.4776432514190674,-9.700108528137207,1.1563994884490967,0.043121337890625,-0.0662790909409523,-0.0404595248401165
2922401074587,0.4572925269603729,-9.703699111938477,1.1516109704971313,0.0444522425532341,-0.0582936592400074,-0.0417904332280159
2922402311925,0.47644615173339844,-9.737218856811523,1.1504138708114624,0.0433875173330307,-0.0543009415268898,-0.0385962575674057
2922403549262,0.4596867263317108,-9.718064308166504,1.1827356815338135,0.0447184219956398,-0.0561642125248909,-0.0404595248401165
2922404786587,0.46088382601737976,-9.736021041870117,1.2030863761901855,0.04791259765625,-0.0606892891228199,-0.0362006276845932
2922406023937,0.43694180250167847,-9.738415718078613,1.1743559837341309,0.047646414488554,-0.0577612966299057,-0.0369991734623909
2922407261250,0.4572925269603729,-9.733627319335938,1.216254472732544,0.052437674254179,-0.0580274797976017,-0.0346035435795784
2922408498575,0.4967968463897705,-9.769539833068848,1.1647791862487793,0.0436537005007267,-0.0574951171875,-0.0396609827876091
2922409735925,0.48243165016174316,-9.773131370544434,1.1504138708114624,0.0425889752805233,-0.0537685826420784,-0.0362006276845932
2922410973250,0.4441244304180145,-9.75397777557373,1.1791443824768066,0.0447184219956398,-0.0497758649289608,-0.038330078125
2922412210600,0.48722004890441895,-9.797073364257812,1.1671733856201172,0.047646414488554,-0.0543009415268898,-0.0364668108522892
2922413447950,0.4082113802433014,-9.822212219238281,1.114500880241394,0.0471140518784523,-0.0516391322016716,-0.0338049978017807
2922414685262,0.424970805644989,-9.84256362915039,1.1252747774124146,0.0511067695915699,-0.0540347620844841,-0.0324740931391716
2922415922600,0.4429273307323456,-9.852140426635742,1.1420341730117798,0.0460493303835392,-0.0566965714097023,-0.02901373989880085
2922417159925,0.4405331015586853,-9.86650562286377,1.1659762859344482,0.0460493303835392,-0.0495096817612648,-0.0372653529047966
2922418397262,0.44771572947502136,-9.90241813659668,1.1540051698684692,0.0495096817612648,-0.0487111397087574,-0.0322079136967659
2922419634600,0.4668693244457245,-9.84495735168457,1.1623849868774414,0.0487111397087574,-0.0500420443713665,-0.02874755859375
2922420871925,0.4429273307323456,-9.914389610290527,1.1767501831054688,0.0471140518784523,-0.04791259765625,-0.03034464456140995
2922422109275,0.4429273307323456,-9.927556991577148,1.2054805755615234,0.0495096817612648,-0.0444522425532341,-0.0292799212038517
2922423346600,0.43694180250167847,-9.981427192687988,1.1504138708114624,0.0463155098259449,-0.0460493303835392,-0.02794901467859745
2922424583912,0.43335050344467163,-10.007762908935547,1.1552022695541382,0.047646414488554,-0.0457831472158432,-0.02369011752307415
2922425821250,0.4668693244457245,-9.996989250183105,1.1971008777618408,0.0484449602663517,-0.0452507846057415,-0.02608574740588665
2922427058600,0.47644615173339844,-10.004172325134277,1.1851298809051514,0.0516391322016716,-0.0425889752805233,-0.0228915736079216
2922428295925,0.42377370595932007,-10.020931243896484,1.1959037780761719,0.0471140518784523,-0.0391286201775074,-0.0220930315554142
2922429533262,0.48243165016174316,-10.007762908935547,1.2042834758758545,0.043121337890625,-0.0412580706179142,-0.02901373989880085
2922430770600,0.44532153010368347,-10.02452278137207,1.2102689743041992,0.0473802350461483,-0.0417904332280159,-0.0220930315554142
2922432007925,0.4537012279033661,-10.029311180114746,1.1683704853057861,0.038063894957304,-0.0420566126704216,-0.02794901467859745
2922433245275,0.5195418000221252,-10.008960723876953,1.170764684677124,0.0441860631108284,-0.0377977155148983,-0.02555338479578495
2922434482612,0.4967968463897705,-10.001777648925781,1.217451572418213,0.0417904332280159,-0.0348697230219841,-0.02422248013317585
2922435719937,0.49799394607543945,-10.035296440124512,1.194706678390503,0.0338049978017807,-0.0356682650744915,-0.0220930315554142
2922436957275,0.50876784324646,-9.980230331420898,1.2222399711608887,0.0346035435795784,-0.0391286201775074,-0.01943122036755085
2922438194587,0.5099649429321289,-10.02452278137207,1.2497732639312744,0.0375315360724926,-0.0327402763068676,-0.02022976242005825
2922439431912,0.5183447003364563,-9.971850395202637,1.1994950771331787,0.0338049978017807,-0.0354020856320858,-0.02129448764026165
2922440669275,0.4812345504760742,-9.99100399017334,1.2186486721038818,0.0348697230219841,-0.0340711809694767,-0.0234239362180233
2922441906600,0.5027823448181152,-9.93354320526123,1.2641384601593018,0.0372653529047966,-0.0282151959836483,-0.01756795309484005
2922443143962,0.5279214978218079,-9.876082420349121,1.2797008752822876,0.0314093679189682,-0.02555338479578495,-0.01783413253724575
2922444381262,0.49799394607543945,-9.945513725280762,1.2401964664459229,0.0319417305290699,-0.02608574740588665,-0.02182685025036335
2922445618612,0.48243165016174316,-9.93474006652832,1.2461819648742676,0.0338049978017807,-0.0295461006462574,-0.0204959437251091
2922446855937,0.4812345504760742,-9.908403396606445,1.2485761642456055,0.0359344482421875,-0.0338049978017807,-0.01703559048473835
2922448093262,0.4920084476470947,-9.840168952941895,1.2509703636169434,0.0369991734623909,-0.02794901467859745,-0.013042873702943325
2922449330600,0.5422866940498352,-9.853337287902832,1.258152961730957,0.0367329902946949,-0.0220930315554142,-0.015438503585755825
2922450567937,0.5039794445037842,-9.80904483795166,1.2832921743392944,0.0364668108522892,-0.023956298828125,-0.0162370465695858
2922451805275,0.49320554733276367,-9.81143856048584,1.294066071510315,0.0319417305290699,-0.0263519287109375,-0.0181003138422966
2922453042600,0.5386953949928284,-9.77672290802002,1.2952631711959839,0.0364668108522892,-0.02262539230287075,-0.010913425125181675
2922454279937,0.5339069962501526,-9.704896926879883,1.2988544702529907,0.0367329902946949,-0.0204959437251091,-0.01171196810901165
2922455517287,0.48482584953308105,-9.715670585632324,1.2713210582733154,0.0351359061896801,-0.0186326764523983,-0.0196974016726017
2922456754612,0.5135562419891357,-9.715670585632324,1.3204022645950317,0.0412580706179142,-0.0181003138422966,-0.01703559048473835
2922457991950,0.52552729845047,-9.691728591918945,1.2964602708816528,0.0420566126704216,-0.02022976242005825,-0.01650322787463665
2922459229275,0.5542576909065247,-9.690531730651855,1.2785037755966187,0.0460493303835392,-0.0173017717897892,-0.013042873702943325
2922460466625,0.5267243981361389,-9.720458984375,1.2892776727676392,0.0449846051633358,-0.01650322787463665,-0.0138414166867733
2922461703962,0.5363011956214905,-9.720458984375,1.3060370683670044,0.043121337890625,-0.01357523538172245,-0.01703559048473835
2922462941275,0.5267243981361389,-9.727641105651855,1.2964602708816528,0.0455169677734375,-0.01171196810901165,-0.02182685025036335
2922464178625,0.45489832758903503,-9.732430458068848,1.2856863737106323,0.047646414488554,-0.014373779296875,-0.0138414166867733
2922465415975,0.5135562419891357,-9.72165584564209,1.2413935661315918,0.0436537005007267,-0.0157046839594841,-0.0157046839594841
2922466653312,0.5207388997077942,-9.746795654296875,1.2653355598449707,0.0452507846057415,-0.010647243820130825,-0.0157046839594841
2922467890637,0.4967968463897705,-9.780314445495605,1.3012486696243286,0.0487111397087574,-0.0077192517928779125,-0.015172322280704975
2922469127962,0.4967968463897705,-9.822212219238281,1.2653355598449707,0.0529700368642807,-0.0090501569211483,-0.012776692397892475
2922470365275,0.5051765441894531,-9.829395294189453,1.2773066759109497,0.0505744069814682,-0.0090501569211483,-0.01224433071911335
2922471602637,0.5111620426177979,-9.886856079101562,1.2785037755966187,0.0508405901491642,-0.005057440605014563,-0.015438503585755825
2922472839950,0.45010992884635925,-9.86650562286377,1.2737152576446533,0.0508405901491642,-0.005057440605014563,-0.0196974016726017
2922474077287,0.4920084476470947,-9.943120002746582,1.236605167388916,0.047646414488554,-0.0053236219100654125,-0.0173017717897892
2922475314625,0.48243165016174316,-9.976638793945312,1.238999366760254,0.0497758649289608,-0.0015970865497365594,-0.00958251953125
