timestamp_ns,accel_x,accel_y,accel_z,gyro_x,gyro_y,gyro_z
17859340122700,3.1280245780944824,-7.967903137207031,4.964377403259277,0.0063883461989462376,0.0220930315554142,-0.00931633822619915
17859341359825,3.1304187774658203,-7.99184513092041,4.954800605773926,0.0077192517928779125,0.0157046839594841,-0.00452507846057415
17859342596962,3.137601375579834,-7.983465671539307,5.020640850067139,0.0066545275039970875,0.0162370465695858,-0.0114457868039608
17859343834075,3.095702886581421,-7.9846625328063965,5.0014872550964355,0.007453070487827063,0.01703559048473835,-0.0114457868039608
17859345071212,3.179499864578247,-7.976283073425293,4.972756862640381,0.0077192517928779125,0.01650322787463665,-0.00452507846057415
17859346308350,3.1004912853240967,-8.002618789672852,4.991910457611084,0.007985432632267475,0.0173017717897892,0.0005323622026480734
17859347545462,3.0825347900390625,-7.975085735321045,4.990713596343994,0.0066545275039970875,0.01836649514734745,-0.0018632676219567657
17859348782587,3.1316158771514893,-7.983465671539307,4.981136798858643,0.0090501569211483,0.02502102218568325,-0.006122165359556675
17859350019737,3.090914487838745,-7.982268333435059,4.972756862640381,0.008517795242369175,0.0234239362180233,-0.006122165359556675
17859351256862,3.1459810733795166,-8.006210327148438,4.971560001373291,0.01224433071911335,0.02315775491297245,-0.005057440605014563
17859352494000,3.114856481552124,-8.000225067138672,4.977545261383057,0.00958251953125,0.02555338479578495,-0.0026618109550327063
17859353731112,3.1699230670928955,-8.027758598327637,4.953603267669678,0.012510511092841625,0.0247548408806324,-0.007985432632267475
17859354968250,3.136404275894165,-7.977479934692383,5.006275653839111,0.010114881210029125,0.02502102218568325,-0.0066545275039970875
17859356205387,3.1483752727508545,-8.020575523376465,4.981136798858643,0.007985432632267475,0.02555338479578495,-0.00452507846057415
17859357442500,3.1316158771514893,-8.042123794555664,4.911705017089844,0.015172322280704975,0.0258195661008358,-0.0039927163161337376
17859358679637,3.139995574951172,-8.015787124633789,4.9619832038879395,0.013042873702943325,0.0268842913210392,-0.0029279920272529125
17859359916775,3.137601375579834,-8.019378662109375,5.003881454467773,0.0077192517928779125,0.02555338479578495,-0.0037265352439135313
17859361153900,3.1016883850097656,-8.02416706085205,4.948814868927002,0.0119781494140625,0.0311431884765625,-0.0063883461989462376
17859362391012,3.1316158771514893,-8.044517517089844,4.942829608917236,0.01463996060192585,0.02901373989880085,-0.007453070487827063
17859363628150,3.1304187774658203,-8.036138534545898,4.9799394607543945,0.013042873702943325,0.02741665206849575,-0.0053236219100654125
17859364865287,3.1435868740081787,-8.040926933288574,4.9619832038879395,0.010114881210029125,0.03034464456140995,-0.006122165359556675
17859366102412,3.1268274784088135,-8.072051048278809,4.9619832038879395,0.00931633822619915,0.0311431884765625,-0.007453070487827063
17859367339550,3.1507694721221924,-7.982268333435059,4.973954200744629,0.0138414166867733,0.02741665206849575,-0.0071868896484375
17859368576675,3.1735143661499023,-8.007407188415527,4.982333660125732,0.015172322280704975,0.0295461006462574,-0.005589802749454975
17859369813800,3.205836057662964,-8.040926933288574,4.99550199508667,0.010913425125181675,0.0351359061896801,0.0002661811013240367
17859371050950,3.132812976837158,-8.0145902633667,4.9835309982299805,0.01117960549890995,0.0306108258664608,-0.0007985432748682797
17859372288050,3.184288263320923,-8.02656078338623,4.972756862640381,0.01171196810901165,0.0282151959836483,-0.004791259765625
17859373525225,3.1663317680358887,-8.062474250793457,4.988319396972656,0.01171196810901165,0.0330064557492733,-0.005589802749454975
17859374762325,3.162740468978882,-8.034940719604492,4.993107795715332,0.012510511092841625,0.0330064557492733,-0.005057440605014563
17859375999450,3.135207176208496,-8.005013465881348,5.002684593200684,0.010381062515079975,0.0375315360724926,-0.0053236219100654125
17859377236587,3.155557870864868,-8.02536392211914,4.969165802001953,0.0114457868039608,0.0367329902946949,-0.0066545275039970875
17859378473700,3.1675288677215576,-8.040926933288574,4.941632270812988,0.0162370465695858,0.0340711809694767,-0.0013309054775163531
17859379710837,3.1747114658355713,-7.994239330291748,4.999093055725098,0.01650322787463665,0.0276828333735466,-0.0010647244052961469
17859380947987,3.227383852005005,-7.993042469024658,4.967968463897705,0.01224433071911335,0.0311431884765625,-0.0002661811013240367
17859382185125,3.1902737617492676,-8.052897453308105,4.971560001373291,0.0186326764523983,0.0316755510866642,-0.0029279920272529125
17859383422225,3.185485363006592,-8.01339340209961,4.99669885635376,0.01756795309484005,0.033538818359375,-0.0026618109550327063
17859384659362,3.1914708614349365,-8.02416706085205,5.007472991943359,0.01996358297765255,0.0263519287109375,-0.0010647244052961469
17859385896487,3.1950621604919434,-8.033743858337402,4.99550199508667,0.014373779296875,0.0359344482421875,-0.007453070487827063
17859387133625,3.2130186557769775,-8.002618789672852,4.98472785949707,0.00984870083630085,0.0324740931391716,-0.0015970865497365594
17859388370762,3.222595453262329,-8.018181800842285,5.050568580627441,0.0162370465695858,0.0276828333735466,-0.0042588976211845875
17859389607875,3.1962592601776123,-8.019378662109375,4.993107795715332,0.01597086526453495,0.0276828333735466,0.0
17859390845012,3.1483752727508545,-8.042123794555664,4.994304656982422,0.01650322787463665,0.0295461006462574,-0.0005323622026480734
17859392082150,3.185485363006592,-8.073247909545898,4.935647010803223,0.01889885775744915,0.02794901467859745,-0.005589802749454975
17859393319275,3.163937568664551,-8.030152320861816,5.000290393829346,0.0157046839594841,0.0282151959836483,-0.00692070834338665
17859394556400,3.177105665206909,-8.033743858337402,5.000290393829346,0.0167694091796875,0.02874755859375,0.0002661811013240367
17859395793537,3.1663317680358887,-8.074445724487305,4.942829608917236,0.0162370465695858,0.0271504707634449,-0.0029279920272529125
17859397030662,3.185485363006592,-8.036138534545898,4.954800605773926,0.01756795309484005,0.02794901467859745,-0.0063883461989462376
17859398267787,3.179499864578247,-8.044517517089844,4.982333660125732,0.0119781494140625,0.0362006276845932,-0.0066545275039970875
17859399504937,3.160346269607544,-8.08282470703125,4.98472785949707,0.012776692397892475,0.0300784632563591,-0.006122165359556675
17859400742050,3.1699230670928955,-8.054094314575195,4.954800605773926,0.01650322787463665,0.02608574740588665,-0.01410759799182415
17859401979175,3.178302764892578,-8.038532257080078,4.981136798858643,0.01597086526453495,0.02874755859375,-0.008783976547420025
17859403216312,3.141192674636841,-8.007407188415527,4.932055473327637,0.01171196810901165,0.0247548408806324,-0.0090501569211483
17859404453437,3.137601375579834,-8.075642585754395,4.957194805145264,0.015438503585755825,0.0268842913210392,-0.010913425125181675
17859405690575,3.1878795623779297,-8.067262649536133,4.976348400115967,0.02022976242005825,0.02741665206849575,-0.01117960549890995
17859406927687,3.222595453262329,-8.076839447021484,4.985925197601318,0.0162370465695858,0.0263519287109375,-0.0090501569211483
17859408164825,3.1926679611206055,-8.054094314575195,4.945223808288574,0.015172322280704975,0.0271504707634449,-0.0090501569211483
17859409401962,3.2178070545196533,-8.073247909545898,4.981136798858643,0.01410759799182415,0.01996358297765255,-0.007985432632267475
17859410639087,3.183091163635254,-8.050503730773926,5.007472991943359,0.0204959437251091,0.01943122036755085,-0.0029279920272529125
17859411876225,3.204638957977295,-8.040926933288574,4.973954200744629,0.0210283063352108,0.02076212503015995,-0.004791259765625
17859413113362,3.2082302570343018,-8.074445724487305,4.99550199508667,0.01756795309484005,0.0228915736079216,-0.00958251953125
17859414350487,3.2597055435180664,-8.073247909545898,4.99550199508667,0.01943122036755085,0.01703559048473835,-0.0066545275039970875
17859415587625,3.1878795623779297,-8.095993041992188,4.977545261383057,0.01943122036755085,0.01783413253724575,-0.007985432632267475
17859416824762,3.226186752319336,-8.040926933288574,4.991910457611084,0.01756795309484005,0.02182685025036335,-0.01224433071911335
17859418061875,3.2154128551483154,-8.050503730773926,4.987122058868408,0.01889885775744915,0.01650322787463665,-0.00931633822619915
17859419299012,3.2118215560913086,-8.066065788269043,4.99669885635376,0.02129448764026165,0.0138414166867733,-0.0090501569211483
17859420536137,3.1926679611206055,-8.062474250793457,5.015852451324463,0.0173017717897892,0.015172322280704975,-0.0066545275039970875
17859421773287,3.199850559234619,-8.042123794555664,5.021838188171387,0.02129448764026165,0.01463996060192585,-0.0066545275039970875
17859423010400,3.222595453262329,-8.064868927001953,5.011064052581787,0.02502102218568325,0.01224433071911335,-0.0066545275039970875
17859424247525,3.203441858291626,-8.078036308288574,4.990713596343994,0.0215606689453125,0.01410759799182415,-0.0071868896484375
17859425484662,3.2118215560913086,-8.069657325744629,5.017049789428711,0.01703559048473835,0.00931633822619915,-0.004791259765625
17859426721800,3.250128746032715,-8.072051048278809,4.991910457611084,0.0173017717897892,0.010647243820130825,-0.00931633822619915
17859427958912,3.242946147918701,-8.063671112060547,5.0014872550964355,0.0223592109978199,0.010647243820130825,-0.0053236219100654125
17859429196037,3.22139835357666,-8.01339340209961,5.014655590057373,0.0215606689453125,0.00984870083630085,-0.005855984054505825
17859430433175,3.2321722507476807,-8.02536392211914,4.970362663269043,0.01996358297765255,0.010114881210029125,-0.008251613937318325
17859431670300,3.223792552947998,-8.052897453308105,5.002684593200684,0.01996358297765255,0.005855984054505825,-0.0090501569211483
17859432907425,3.2309751510620117,-8.058882713317871,4.99550199508667,0.02022976242005825,0.005855984054505825,-0.0077192517928779125
17859434144587,3.2094273567199707,-8.084022521972656,5.013458251953125,0.01996358297765255,0.008251613937318325,-0.007453070487827063
17859435381700,3.2537200450897217,-8.063671112060547,5.027823448181152,0.02076212503015995,0.0066545275039970875,-0.006122165359556675
17859436618837,3.2154128551483154,-8.093599319458008,4.95001220703125,0.015438503585755825,0.005057440605014563,-0.0066545275039970875
17859437855975,3.202244758605957,-8.117541313171387,4.9835309982299805,0.014373779296875,0.0021294488105922937,-0.010381062515079975
17859439093100,3.1890766620635986,-8.112752914428711,4.987122058868408,0.015438503585755825,0.00452507846057415,-0.010114881210029125
17859440330225,3.227383852005005,-8.101978302001953,5.019443988800049,0.01703559048473835,0.007453070487827063,-0.010381062515079975
17859441567350,3.1938650608062744,-8.092401504516602,4.993107795715332,0.0173017717897892,0.0071868896484375,-0.00984870083630085
17859442804487,3.1962592601776123,-8.13908863067627,5.045780181884766,0.01650322787463665,0.0031941730994731188,-0.010913425125181675
17859444041612,3.1950621604919434,-8.180987358093262,5.014655590057373,0.01224433071911335,0.003460354171693325,-0.014906140975654125
17859445278712,3.2321722507476807,-8.163030624389648,5.035006046295166,0.008517795242369175,0.003460354171693325,-0.01410759799182415
17859446515850,3.203441858291626,-8.177395820617676,4.997896194458008,0.010913425125181675,0.0026618109550327063,-0.0167694091796875
17859447752975,3.228580951690674,-8.234856605529785,5.033809185028076,0.0077192517928779125,-0.0007985432748682797,-0.015438503585755825
17859448990112,3.181894063949585,-8.226476669311523,4.985925197601318,0.010913425125181675,-0.0021294488105922937,-0.01783413253724575
17859450227262,3.2333693504333496,-8.243236541748047,5.024232387542725,0.0031941730994731188,0.0013309054775163531,-0.01597086526453495
17859451464387,3.222595453262329,-8.20492935180664,4.997896194458008,0.0026618109550327063,0.0053236219100654125,-0.0138414166867733
17859452701500,3.2118215560913086,-8.189367294311523,4.975151062011719,0.0029279920272529125,0.0063883461989462376,-0.01756795309484005
17859453938637,3.1699230670928955,-8.164227485656738,5.011064052581787,-0.0026618109550327063,0.0013309054775163531,-0.01836649514734745
17859455175775,3.1890766620635986,-8.180987358093262,5.027823448181152,-0.006122165359556675,-0.0015970865497365594,-0.0204959437251091
17859456412912,3.1723172664642334,-8.17021369934082,5.056553840637207,-0.0029279920272529125,0.0010647244052961469,-0.0162370465695858
17859457650025,3.227383852005005,-8.183381080627441,5.03021764755249,-0.0026618109550327063,-0.0010647244052961469,-0.012776692397892475
17859458887175,3.227383852005005,-8.14028549194336,5.015852451324463,-0.0071868896484375,-0.003460354171693325,-0.01410759799182415
17859460124312,3.2369606494903564,-8.123526573181152,5.038597583770752,-0.00958251953125,0.003460354171693325,-0.0162370465695858
17859461361425,3.224989652633667,-8.058882713317871,5.000290393829346,-0.0090501569211483,0.0018632676219567657,-0.01650322787463665
17859462598562,3.161543369293213,-8.090007781982422,5.076904773712158,-0.010381062515079975,0.0010647244052961469,-0.0181003138422966
17859463835675,3.1938650608062744,-8.020575523376465,5.035006046295166,-0.0077192517928779125,0.0023956298828125,-0.01463996060192585
17859465072800,3.2142157554626465,-8.033743858337402,5.0266265869140625,-0.0066545275039970875,0.0005323622026480734,-0.0138414166867733
17859466309925,3.222595453262329,-8.032546997070312,5.012261390686035,-0.0023956298828125,-0.0023956298828125,-0.01463996060192585
17859467547075,3.199850559234619,-8.02536392211914,5.024232387542725,-0.0026618109550327063,-0.0031941730994731188,-0.0119781494140625
17859468784200,3.204638957977295,-8.054094314575195,5.024232387542725,-0.003460354171693325,-0.0031941730994731188,-0.01117960549890995
17859470021337,3.199850559234619,-8.012195587158203,5.0290207862854,-0.00452507846057415,-0.0042588976211845875,-0.013309055007994175
17859471258462,3.226186752319336,-8.002618789672852,5.035006046295166,-0.007985432632267475,-0.0007985432748682797,-0.008783976547420025
17859472495575,3.2190041542053223,-7.987056732177734,5.035006046295166,-0.007453070487827063,0.0042588976211845875,-0.003460354171693325
17859473732725,3.227383852005005,-7.970297336578369,5.017049789428711,-0.00692070834338665,-0.0013309054775163531,-0.0042588976211845875
17859474969837,3.1902737617492676,-7.976283073425293,5.0266265869140625,-0.008517795242369175,-0.0029279920272529125,-0.0042588976211845875
17859476206987,3.2082302570343018,-7.989450931549072,5.043385982513428,-0.0010647244052961469,0.0010647244052961469,-0.0010647244052961469
17859477444112,3.2178070545196533,-7.996633529663086,5.007472991943359,-0.0023956298828125,-0.0026618109550327063,0.0005323622026480734
17859478681250,3.1866824626922607,-8.000225067138672,5.017049789428711,-0.0018632676219567657,-0.0005323622026480734,-0.003460354171693325
17859479918362,3.204638957977295,-8.021772384643555,5.033809185028076,-0.0007985432748682797,-0.0005323622026480734,-0.00452507846057415
17859481155500,3.2190041542053223,-8.001421928405762,5.007472991943359,-0.0005323622026480734,0.0002661811013240367,-0.0002661811013240367
17859482392637,3.1890766620635986,-8.020575523376465,4.99550199508667,-0.0039927163161337376,0.0026618109550327063,0.0005323622026480734
17859483629775,3.1866824626922607,-7.995436668395996,5.003881454467773,-0.0015970865497365594,0.0013309054775163531,-0.0005323622026480734
17859484866912,3.1687259674072266,-8.020575523376465,5.081693172454834,0.0021294488105922937,0.0013309054775163531,0.0018632676219567657
17859486104025,3.2154128551483154,-8.033743858337402,5.0481743812561035,0.0018632676219567657,0.003460354171693325,0.0023956298828125
17859487341137,3.1938650608062744,-8.020575523376465,5.003881454467773,-0.0031941730994731188,0.0023956298828125,0.0042588976211845875
17859488578287,3.2142157554626465,-8.012195587158203,5.039794445037842,0.0029279920272529125,0.004791259765625,0.0031941730994731188
17859489815425,3.1747114658355713,-8.028955459594727,5.024232387542725,0.0042588976211845875,0.008517795242369175,0.00452507846057415
17859491052550,3.2620997428894043,-8.005013465881348,5.017049789428711,-0.0026618109550327063,0.0042588976211845875,0.0053236219100654125
17859492289675,3.1902737617492676,-8.009801864624023,5.058948040008545,0.0,-0.0007985432748682797,0.013042873702943325
17859493526800,3.226186752319336,-7.989450931549072,5.037400245666504,0.0029279920272529125,-0.0013309054775163531,0.005589802749454975
17859494763937,3.1651346683502197,-8.002618789672852,5.085284233093262,0.0042588976211845875,0.0015970865497365594,0.005855984054505825
17859496001062,3.207033157348633,-8.027758598327637,5.057751178741455,0.0013309054775163531,0.0042588976211845875,0.0066545275039970875
17859497238200,3.199850559234619,-7.989450931549072,5.027823448181152,0.0021294488105922937,0.0039927163161337376,0.012510511092841625
17859498475325,3.1950621604919434,-7.9631147384643555,5.009867191314697,0.0042588976211845875,0.005855984054505825,0.01224433071911335
17859499712450,3.177105665206909,-8.012195587158203,4.991910457611084,0.005855984054505825,0.008251613937318325,0.0037265352439135313
17859500949587,3.179499864578247,-8.000225067138672,5.04218864440918,0.005855984054505825,0.005855984054505825,0.0071868896484375
17859502186725,3.1866824626922607,-7.976283073425293,5.033809185028076,0.004791259765625,0.0039927163161337376,0.012510511092841625
17859503423837,3.1974563598632812,-7.975085735321045,5.002684593200684,0.005589802749454975,0.007453070487827063,0.00931633822619915
17859504660975,3.180696964263916,-7.9643120765686035,4.999093055725098,0.005855984054505825,0.007453070487827063,0.0063883461989462376
17859505898112,3.19865345954895,-7.967903137207031,5.023035049438477,0.0066545275039970875,0.0063883461989462376,0.010381062515079975
17859507135237,3.2106244564056396,-7.95832633972168,5.0290207862854,0.010114881210029125,0.00692070834338665,0.01703559048473835
17859508372362,3.2369606494903564,-8.034940719604492,4.971560001373291,0.0090501569211483,0.00931633822619915,0.01836649514734745
17859509609500,3.199850559234619,-7.99184513092041,5.011064052581787,0.0077192517928779125,0.0077192517928779125,0.01597086526453495
17859510846612,3.199850559234619,-7.977479934692383,5.008669853210449,0.00931633822619915,0.0119781494140625,0.013309055007994175
17859512083750,3.1926679611206055,-7.995436668395996,5.0050787925720215,0.01224433071911335,0.0114457868039608,0.007985432632267475
17859513320887,3.1723172664642334,-7.996633529663086,5.036203384399414,0.01224433071911335,0.0053236219100654125,0.00984870083630085
17859514558025,3.2118215560913086,-8.009801864624023,5.017049789428711,0.008251613937318325,0.0119781494140625,0.01756795309484005
17859515795175,3.1962592601776123,-7.999027729034424,5.021838188171387,0.00692070834338665,0.010647243820130825,0.010381062515079975
17859517032287,3.1926679611206055,-8.043320655822754,4.985925197601318,0.0066545275039970875,0.013309055007994175,0.0114457868039608
17859518269400,3.220201253890991,-8.028955459594727,4.978742599487305,0.0026618109550327063,0.012776692397892475,0.013042873702943325
17859519506537,3.207033157348633,-8.039729118347168,4.971560001373291,0.0090501569211483,0.010114881210029125,0.00692070834338665
17859520743662,3.1747114658355713,-8.027758598327637,5.033809185028076,0.008517795242369175,0.00958251953125,0.0077192517928779125
17859521980787,3.227383852005005,-8.050503730773926,5.024232387542725,0.00931633822619915,0.01357523538172245,0.0063883461989462376
17859523217950,3.2106244564056396,-8.043320655822754,5.002684593200684,0.007453070487827063,0.012776692397892475,0.0138414166867733
17859524455062,3.1902737617492676,-8.066065788269043,5.0481743812561035,0.003460354171693325,0.012510511092841625,0.007453070487827063
17859525692187,3.2094273567199707,-8.051700592041016,5.0014872550964355,0.005589802749454975,0.01224433071911335,0.005589802749454975
17859526929325,3.205836057662964,-8.088810920715332,4.989516258239746,0.010381062515079975,0.013309055007994175,0.00931633822619915
17859528166450,3.1878795623779297,-8.018181800842285,5.020640850067139,0.0114457868039608,0.010647243820130825,0.010913425125181675
17859529403575,3.2393548488616943,-8.073247909545898,4.993107795715332,0.0066545275039970875,0.012510511092841625,0.007453070487827063
17859530640712,3.1902737617492676,-8.061277389526367,4.971560001373291,0.0031941730994731188,0.0173017717897892,0.00452507846057415
17859531877837,3.207033157348633,-8.034940719604492,4.993107795715332,0.0021294488105922937,0.0204959437251091,0.007453070487827063
17859533114975,3.223792552947998,-8.097189903259277,5.021838188171387,0.0039927163161337376,0.013309055007994175,0.010114881210029125
17859534352100,3.2297780513763428,-8.044517517089844,5.023035049438477,0.0037265352439135313,0.01357523538172245,0.008783976547420025
17859535589225,3.2190041542053223,-8.052897453308105,5.009867191314697,0.007985432632267475,0.010381062515079975,0.0090501569211483
17859536826350,3.2130186557769775,-8.04571533203125,5.015852451324463,0.0037265352439135313,0.013309055007994175,0.0119781494140625
17859538063512,3.245340347290039,-8.04691219329834,5.058948040008545,0.0037265352439135313,0.01463996060192585,0.010381062515079975
17859539300637,3.2369606494903564,-8.04810905456543,5.0254292488098145,0.0007985432748682797,0.015438503585755825,0.010381062515079975
17859540537775,3.2573113441467285,-7.994239330291748,5.054159641265869,0.00452507846057415,0.008783976547420025,0.008783976547420025
17859541774887,3.248931646347046,-8.060080528259277,5.0481743812561035,0.0029279920272529125,0.0090501569211483,0.008783976547420025
17859543012025,3.22139835357666,-8.044517517089844,5.012261390686035,0.003460354171693325,0.010913425125181675,0.0090501569211483
17859544249150,3.2178070545196533,-8.068459510803223,5.033809185028076,0.0042588976211845875,0.013042873702943325,0.0119781494140625
17859545486275,3.2632968425750732,-8.000225067138672,5.003881454467773,0.00692070834338665,0.01357523538172245,0.01463996060192585
17859546723425,3.24414324760437,-8.016983985900879,5.017049789428711,0.0026618109550327063,0.010913425125181675,0.01410759799182415
17859547960537,3.2525229454040527,-8.04810905456543,5.027823448181152,0.005057440605014563,0.014373779296875,0.01357523538172245
17859549197662,3.2321722507476807,-7.996633529663086,5.031414985656738,0.0066545275039970875,0.012510511092841625,0.01597086526453495
17859550434812,3.2297780513763428,-8.04930591583252,5.0481743812561035,0.008251613937318325,0.008783976547420025,0.0181003138422966
17859551671925,3.2525229454040527,-8.0145902633667,5.023035049438477,0.004791259765625,0.008783976547420025,0.010381062515079975
17859552909062,3.2417490482330322,-8.010998725891113,5.002684593200684,0.00931633822619915,0.007985432632267475,0.0204959437251091
17859554146187,3.250128746032715,-8.04810905456543,5.018246650695801,0.008517795242369175,0.006122165359556675,0.01889885775744915
17859555383312,3.2585084438323975,-8.028955459594727,5.032611846923828,0.007985432632267475,0.0013309054775163531,0.014906140975654125
17859556620462,3.272873640060425,-8.039729118347168,4.990713596343994,0.0071868896484375,0.0026618109550327063,0.02076212503015995
17859557857575,3.2884361743927,-8.016983985900879,5.057751178741455,0.0039927163161337376,0.007453070487827063,0.01836649514734745
17859559094725,3.2848448753356934,-8.001421928405762,5.007472991943359,0.0042588976211845875,0.0031941730994731188,0.01943122036755085
17859560331837,3.2585084438323975,-8.016983985900879,5.027823448181152,0.006122165359556675,0.003460354171693325,0.0186326764523983
17859561568962,3.2369606494903564,-8.009801864624023,4.9835309982299805,0.007985432632267475,0.0013309054775163531,0.02076212503015995
17859562806100,3.2860419750213623,-8.022970199584961,5.015852451324463,0.0077192517928779125,0.0029279920272529125,0.0181003138422966
17859564043250,3.2381577491760254,-7.979874134063721,5.0266265869140625,0.005855984054505825,-0.0005323622026480734,0.01783413253724575
17859565280362,3.2405519485473633,-7.999027729034424,5.0266265869140625,0.0077192517928779125,0.0029279920272529125,0.0210283063352108
17859566517500,3.2525229454040527,-7.994239330291748,5.021838188171387,0.010381062515079975,0.0066545275039970875,0.0228915736079216
17859567754625,3.2345664501190186,-8.036138534545898,5.017049789428711,0.0071868896484375,-0.0031941730994731188,0.0215606689453125
17859568991750,3.203441858291626,-8.042123794555664,4.982333660125732,0.005855984054505825,-0.004791259765625,0.02022976242005825
17859570228887,3.2381577491760254,-8.031350135803223,5.012261390686035,0.0066545275039970875,-0.0037265352439135313,0.02182685025036335
17859571466012,3.2369606494903564,-8.051700592041016,5.023035049438477,0.00984870083630085,-0.0026618109550327063,0.02315775491297245
17859572703137,3.272873640060425,-8.02536392211914,4.993107795715332,0.010381062515079975,-0.004791259765625,0.0271504707634449
17859573940275,3.227383852005005,-8.031350135803223,4.977545261383057,0.006122165359556675,-0.00452507846057415,0.02555338479578495
17859575177400,3.251325845718384,-8.050503730773926,4.999093055725098,0.00452507846057415,-0.0021294488105922937,0.02022976242005825
17859576414550,3.1950621604919434,-8.054094314575195,5.024232387542725,0.0015970865497365594,-0.0077192517928779125,0.0210283063352108
17859577651650,3.224989652633667,-8.050503730773926,5.021838188171387,-0.0005323622026480734,-0.007453070487827063,0.0247548408806324
17859578888800,3.223792552947998,-8.070854187011719,4.981136798858643,0.00452507846057415,-0.0037265352439135313,0.02369011752307415
17859580125937,3.2106244564056396,-8.038532257080078,4.988319396972656,0.0018632676219567657,-0.006122165359556675,0.02502102218568325
17859581363075,3.2106244564056396,-8.050503730773926,5.024232387542725,-0.003460354171693325,-0.0119781494140625,0.02076212503015995
17859582600175,3.220201253890991,-8.031350135803223,5.007472991943359,0.0018632676219567657,-0.01117960549890995,0.02315775491297245
17859583837312,3.1902737617492676,-8.030152320861816,4.988319396972656,0.0005323622026480734,-0.010381062515079975,0.02608574740588665
17859585074437,3.2154128551483154,-8.010998725891113,5.023035049438477,-0.0026618109550327063,-0.0066545275039970875,0.02262539230287075
17859586311612,3.2417490482330322,-8.050503730773926,4.99550199508667,0.0005323622026480734,-0.0119781494140625,0.02502102218568325
17859587548700,3.2094273567199707,-8.019378662109375,4.98472785949707,0.0,-0.01357523538172245,0.02076212503015995
17859588785850,3.2369606494903564,-8.009801864624023,5.009867191314697,0.0023956298828125,-0.0157046839594841,0.0228915736079216
17859590022975,3.2106244564056396,-7.976283073425293,5.043385982513428,0.003460354171693325,-0.0119781494140625,0.0234239362180233
17859591260100,3.2094273567199707,-8.040926933288574,5.0290207862854,0.0053236219100654125,-0.00958251953125,0.02315775491297245
17859592497237,3.226186752319336,-8.028955459594727,4.98472785949707,0.007453070487827063,-0.0162370465695858,0.0220930315554142
17859593734362,3.184288263320923,-7.99184513092041,5.009867191314697,0.0077192517928779125,-0.0228915736079216,0.02608574740588665
17859594971487,3.2106244564056396,-8.003816604614258,5.0254292488098145,0.010647243820130825,-0.0223592109978199,0.023956298828125
17859596208625,3.203441858291626,-8.030152320861816,5.008669853210449,0.0053236219100654125,-0.01996358297765255,0.02182685025036335
17859597445762,3.1914708614349365,-8.003816604614258,5.024232387542725,0.0026618109550327063,-0.014906140975654125,0.0204959437251091
17859598682887,3.177105665206909,-8.028955459594727,5.033809185028076,0.0029279920272529125,-0.0196974016726017,0.02315775491297245
17859599920037,3.205836057662964,-8.04930591583252,5.003881454467773,0.0007985432748682797,-0.02022976242005825,0.02369011752307415
17859601157137,3.1902737617492676,-8.040926933288574,5.000290393829346,0.00452507846057415,-0.02022976242005825,0.0223592109978199
17859602394262,3.1723172664642334,-8.070854187011719,5.019443988800049,0.010114881210029125,-0.02608574740588665,0.0204959437251091
17859603631412,3.2142157554626465,-8.051700592041016,5.0481743812561035,0.008251613937318325,-0.02661811001598835,0.02422248013317585
17859604868550,3.177105665206909,-8.040926933288574,5.0014872550964355,0.0114457868039608,-0.0220930315554142,0.02794901467859745
17859606105650,3.207033157348633,-8.04810905456543,5.0266265869140625,0.0042588976211845875,-0.02022976242005825,0.0234239362180233
17859607342800,3.1699230670928955,-8.039729118347168,5.079298973083496,0.004791259765625,-0.0220930315554142,0.023956298828125
17859608579925,3.1663317680358887,-8.032546997070312,5.037400245666504,0.007453070487827063,-0.03034464456140995,0.0268842913210392
17859609817050,3.1890766620635986,-8.044517517089844,5.012261390686035,0.0023956298828125,-0.02661811001598835,0.0252872034907341
17859611054187,3.1902737617492676,-8.019378662109375,5.0469770431518555,0.0063883461989462376,-0.0228915736079216,0.02422248013317585
17859612291312,3.1914708614349365,-8.003816604614258,5.002684593200684,0.00984870083630085,-0.0244886614382267,0.0247548408806324
17859613528437,3.178302764892578,-8.016983985900879,4.994304656982422,0.0090501569211483,-0.0196974016726017,0.0223592109978199
17859614765587,3.220201253890991,-8.018181800842285,4.957194805145264,0.0010647244052961469,-0.02076212503015995,0.0210283063352108
17859616002725,3.137601375579834,-7.989450931549072,5.003881454467773,0.008783976547420025,-0.023956298828125,0.01943122036755085
17859617239850,3.1495723724365234,-8.02536392211914,4.970362663269043,0.0119781494140625,-0.0247548408806324,0.02369011752307415
17859618476975,3.1747114658355713,-7.99064826965332,5.024232387542725,0.005589802749454975,-0.02901373989880085,0.02315775491297245
17859619714112,3.157952070236206,-8.033743858337402,5.018246650695801,0.0013309054775163531,-0.0295461006462574,0.01783413253724575
17859620951237,3.1519665718078613,-8.019378662109375,4.993107795715332,0.008251613937318325,-0.02369011752307415,0.0167694091796875
17859622188375,3.159149169921875,-8.051700592041016,4.989516258239746,0.0021294488105922937,-0.0196974016726017,0.0119781494140625
17859623425512,3.1016883850097656,-8.034940719604492,4.945223808288574,0.006122165359556675,-0.02182685025036335,0.01357523538172245
17859624662637,3.141192674636841,-8.054094314575195,5.003881454467773,0.005589802749454975,-0.02502102218568325,0.0162370465695858
17859625899787,3.094505786895752,-8.072051048278809,4.989516258239746,0.0077192517928779125,-0.0258195661008358,0.01410759799182415
17859627136875,3.155557870864868,-8.038532257080078,4.93923807144165,-0.0026618109550327063,-0.0268842913210392,0.0138414166867733
17859628374012,3.154360771179199,-8.032546997070312,5.021838188171387,0.0021294488105922937,-0.0247548408806324,0.012510511092841625
17859629611150,3.1088709831237793,-8.073247909545898,4.99550199508667,0.0063883461989462376,-0.023956298828125,0.010647243820130825
17859630848287,3.1232361793518066,-8.08043098449707,4.987122058868408,0.00452507846057415,-0.02369011752307415,0.01224433071911335
17859632085400,3.1244332790374756,-8.037335395812988,4.973954200744629,0.0066545275039970875,-0.0252872034907341,0.01357523538172245
17859633322550,3.1304187774658203,-8.02536392211914,5.008669853210449,0.0077192517928779125,-0.0271504707634449,0.01410759799182415
17859634559662,3.1100680828094482,-8.020575523376465,5.003881454467773,0.0013309054775163531,-0.02661811001598835,0.008783976547420025
17859635796800,3.118447780609131,-8.0145902633667,5.014655590057373,0.0005323622026480734,-0.0252872034907341,0.0053236219100654125
17859637033950,3.1459810733795166,-8.003816604614258,5.018246650695801,0.007453070487827063,-0.01783413253724575,0.0090501569211483
17859638271075,3.095702886581421,-8.038532257080078,4.991910457611084,0.0042588976211845875,-0.01889885775744915,0.0071868896484375
17859639508187,3.111265182495117,-8.022970199584961,5.023035049438477,0.0015970865497365594,-0.0215606689453125,0.0053236219100654125
17859640745325,3.1196448802948,-7.969100475311279,5.006275653839111,0.005589802749454975,-0.0210283063352108,0.0042588976211845875
17859641982437,3.1220390796661377,-7.979874134063721,5.020640850067139,0.0042588976211845875,-0.0138414166867733,0.0039927163161337376
17859643219575,3.1244332790374756,-7.937975883483887,5.014655590057373,0.0114457868039608,-0.02129448764026165,0.008783976547420025
17859644456725,3.117250680923462,-7.935581684112549,5.03021764755249,0.0063883461989462376,-0.0223592109978199,0.005589802749454975
17859645693837,3.1100680828094482,-7.954735279083252,5.036203384399414,0.004791259765625,-0.015172322280704975,0.0005323622026480734
17859646930987,3.113659381866455,-7.931990146636963,5.000290393829346,0.010913425125181675,-0.015172322280704975,0.0066545275039970875
17859648168112,3.136404275894165,-7.9643120765686035,5.0266265869140625,0.012776692397892475,-0.0186326764523983,0.0077192517928779125
17859649405237,3.1471781730651855,-7.965508937835693,5.024232387542725,0.013309055007994175,-0.01597086526453495,0.0018632676219567657
17859650642362,3.1052796840667725,-7.931990146636963,5.019443988800049,0.008251613937318325,-0.01650322787463665,0.0013309054775163531
17859651879500,3.1016883850097656,-7.989450931549072,5.023035049438477,0.01410759799182415,-0.013309055007994175,0.0077192517928779125
17859653116637,3.1076738834381104,-7.967903137207031,4.98472785949707,0.01650322787463665,-0.0186326764523983,0.005855984054505825
17859654353750,3.1208419799804688,-7.987056732177734,4.99550199508667,0.01357523538172245,-0.013309055007994175,0.0037265352439135313
17859655590887,3.0837318897247314,-7.947552680969238,5.007472991943359,0.01463996060192585,-0.015172322280704975,0.0015970865497365594
17859656828025,3.1196448802948,-8.012195587158203,4.942829608917236,0.0157046839594841,-0.01597086526453495,0.0077192517928779125
17859658065150,3.1076738834381104,-7.989450931549072,5.000290393829346,0.0157046839594841,-0.0138414166867733,0.0053236219100654125
17859659302275,3.1028854846954346,-7.99184513092041,5.0050787925720215,0.0162370465695858,-0.0162370465695858,0.0053236219100654125
17859660539400,3.138798475265503,-7.971494674682617,4.976348400115967,0.0119781494140625,-0.013042873702943325,0.008251613937318325
17859661776537,3.1052796840667725,-7.979874134063721,5.015852451324463,0.012776692397892475,-0.01410759799182415,0.0053236219100654125
17859663013687,3.092111587524414,-8.028955459594727,5.006275653839111,0.0167694091796875,-0.01463996060192585,0.0066545275039970875
17859664250825,3.114856481552124,-8.032546997070312,5.013458251953125,0.0181003138422966,-0.01171196810901165,0.010913425125181675
17859665487937,3.132812976837158,-7.995436668395996,5.020640850067139,0.02315775491297245,-0.0114457868039608,0.008517795242369175
17859666725062,3.136404275894165,-8.016983985900879,5.018246650695801,0.0210283063352108,-0.0119781494140625,0.008783976547420025
17859667962187,3.095702886581421,-7.975085735321045,4.987122058868408,0.0162370465695858,-0.00958251953125,0.008783976547420025
17859669199325,3.0765492916107178,-8.001421928405762,4.997896194458008,0.01996358297765255,-0.0037265352439135313,0.00958251953125
17859670436462,3.116053581237793,-8.000225067138672,5.037400245666504,0.02262539230287075,-0.007453070487827063,0.0077192517928779125
17859671673587,3.1040825843811035,-8.006210327148438,5.050568580627441,0.01703559048473835,-0.013309055007994175,0.0037265352439135313
17859672910712,3.0992941856384277,-7.981071472167969,5.031414985656738,0.0173017717897892,-0.0023956298828125,0.010913425125181675
17859674147850,3.113659381866455,-7.979874134063721,5.035006046295166,0.01650322787463665,-0.005855984054505825,0.00931633822619915
17859675384975,3.0873231887817383,-8.001421928405762,4.99669885635376,0.0157046839594841,-0.0037265352439135313,0.003460354171693325
17859676622112,3.1196448802948,-8.030152320861816,4.99669885635376,0.0223592109978199,-0.0026618109550327063,0.00958251953125
17859677859250,3.0992941856384277,-7.961917877197266,4.989516258239746,0.0173017717897892,-0.0042588976211845875,0.010913425125181675
17859679096350,3.1064767837524414,-7.993042469024658,5.033809185028076,0.02022976242005825,-0.0018632676219567657,0.012510511092841625
17859680333487,3.0873231887817383,-7.975085735321045,5.052962779998779,0.02129448764026165,-0.0010647244052961469,0.010913425125181675
17859681570625,3.092111587524414,-7.9451584815979,5.049371242523193,0.02182685025036335,-0.0037265352439135313,0.0071868896484375
17859682807762,3.1016883850097656,-7.99064826965332,5.032611846923828,0.01836649514734745,0.0005323622026480734,0.0071868896484375
17859684044887,3.114856481552124,-8.018181800842285,5.0266265869140625,0.0186326764523983,0.0002661811013240367,0.0119781494140625
17859685282012,3.1292216777801514,-8.02416706085205,5.0266265869140625,0.01889885775744915,0.0013309054775163531,0.00931633822619915
17859686519162,3.134010076522827,-7.973888874053955,5.013458251953125,0.01597086526453495,0.0037265352439135313,0.008783976547420025
17859687756287,3.1088709831237793,-8.008605003356934,5.0254292488098145,0.0191650390625,0.0018632676219567657,0.0071868896484375
17859688993412,3.1064767837524414,-8.064868927001953,5.027823448181152,0.02076212503015995,0.003460354171693325,0.010114881210029125
17859690230537,3.139995574951172,-8.031350135803223,5.051765441894531,0.0173017717897892,0.0053236219100654125,0.0138414166867733
17859691467675,3.1483752727508545,-8.036138534545898,5.0050787925720215,0.0204959437251091,0.005057440605014563,0.00958251953125
17859692704800,3.136404275894165,-8.021772384643555,5.045780181884766,0.0196974016726017,0.004791259765625,0.00958251953125
17859693941925,3.1471781730651855,-8.02656078338623,5.0481743812561035,0.0186326764523983,0.0037265352439135313,0.0138414166867733
17859695179075,3.1483752727508545,-8.073247909545898,5.043385982513428,0.013042873702943325,0.0039927163161337376,0.013042873702943325
17859696416200,3.114856481552124,-8.037335395812988,5.043385982513428,0.014373779296875,0.0053236219100654125,0.013042873702943325
17859697653325,3.1220390796661377,-8.07923412322998,5.0685248374938965,0.01996358297765255,0.0090501569211483,0.01224433071911335
17859698890487,3.1471781730651855,-8.085219383239746,5.03021764755249,0.02262539230287075,0.0042588976211845875,0.0138414166867733
17859700127587,3.111265182495117,-8.034940719604492,5.0481743812561035,0.0191650390625,0.007453070487827063,0.0119781494140625
17859701364712,3.1316158771514893,-8.064868927001953,5.04099178314209,0.01597086526453495,0.010114881210029125,0.010913425125181675
17859702601850,3.1483752727508545,-8.031350135803223,5.0481743812561035,0.0162370465695858,0.014373779296875,0.0053236219100654125
17859703838962,3.163937568664551,-8.08043098449707,5.057751178741455,0.0181003138422966,0.00984870083630085,0.007985432632267475
17859705076112,3.1447839736938477,-8.060080528259277,5.032611846923828,0.0167694091796875,0.008783976547420025,0.01357523538172245
17859706313250,3.1735143661499023,-8.036138534545898,5.033809185028076,0.0204959437251091,0.00984870083630085,0.01171196810901165
17859707550362,3.1651346683502197,-8.016983985900879,5.063736438751221,0.01597086526453495,0.0119781494140625,0.008251613937318325
17859708787500,3.154360771179199,-8.027758598327637,5.04099178314209,0.01410759799182415,0.0077192517928779125,0.0119781494140625
17859710024650,3.162740468978882,-8.060080528259277,5.020640850067139,0.0173017717897892,0.010114881210029125,0.012510511092841625
17859711261762,3.154360771179199,-8.04571533203125,5.056553840637207,0.0119781494140625,0.010647243820130825,0.01224433071911335
17859712498900,3.202244758605957,-8.038532257080078,5.021838188171387,0.014373779296875,0.00958251953125,0.012776692397892475
17859713736012,3.223792552947998,-8.002618789672852,5.023035049438477,0.015172322280704975,0.012510511092841625,0.01117960549890995
17859714973175,3.179499864578247,-8.018181800842285,5.051765441894531,0.0162370465695858,0.013042873702943325,0.0119781494140625
17859716210287,3.1699230670928955,-7.996633529663086,5.057751178741455,0.010381062515079975,0.01597086526453495,0.010913425125181675
17859717447412,3.2094273567199707,-8.022970199584961,5.0685248374938965,0.01703559048473835,0.015438503585755825,0.01836649514734745
17859718684550,3.207033157348633,-7.994239330291748,5.079298973083496,0.0173017717897892,0.007985432632267475,0.015438503585755825
17859719921662,3.183091163635254,-7.993042469024658,5.07570743560791,0.014906140975654125,0.01117960549890995,0.01117960549890995
17859721158800,3.220201253890991,-8.037335395812988,5.0290207862854,0.0173017717897892,0.015172322280704975,0.01703559048473835
17859722395937,3.220201253890991,-7.997830867767334,5.080495834350586,0.010647243820130825,0.008783976547420025,0.01224433071911335
17859723633062,3.2082302570343018,-8.002618789672852,5.056553840637207,0.015438503585755825,0.012776692397892475,0.0119781494140625
17859724870200,3.204638957977295,-8.007407188415527,5.0469770431518555,0.0173017717897892,0.010913425125181675,0.01171196810901165
17859726107325,3.247734546661377,-7.9846625328063965,5.050568580627441,0.01597086526453495,0.0090501569211483,0.0114457868039608
17859727344475,3.185485363006592,-8.007407188415527,5.076904773712158,0.0157046839594841,0.010114881210029125,0.0167694091796875
17859728581587,3.250128746032715,-8.015787124633789,5.08648157119751,0.02076212503015995,0.0077192517928779125,0.01650322787463665
17859729818725,3.199850559234619,-8.007407188415527,5.0876784324646,0.02022976242005825,0.0063883461989462376,0.01703559048473835
17859731055862,3.184288263320923,-8.01339340209961,5.0900726318359375,0.01650322787463665,0.007453070487827063,0.00984870083630085
17859732292987,3.2297780513763428,-8.031350135803223,5.024232387542725,0.0210283063352108,0.0090501569211483,0.015172322280704975
17859733530112,3.2525229454040527,-8.050503730773926,5.045780181884766,0.013309055007994175,0.008783976547420025,0.01836649514734745
17859734767250,3.269282341003418,-8.02536392211914,5.092466831207275,0.010647243820130825,0.005057440605014563,0.0162370465695858
17859736004375,3.228580951690674,-8.032546997070312,5.056553840637207,0.012776692397892475,0.00692070834338665,0.0162370465695858
17859737241500,3.2345664501190186,-8.02536392211914,5.052962779998779,0.01357523538172245,0.004791259765625,0.01597086526453495
17859738478637,3.2537200450897217,-8.04810905456543,5.067327976226807,0.01410759799182415,0.0007985432748682797,0.01597086526453495
17859739715762,3.224989652633667,-8.04691219329834,5.04218864440918,0.0138414166867733,0.005855984054505825,0.0138414166867733
17859740952900,3.2357635498046875,-8.02656078338623,5.093664169311523,0.013309055007994175,0.0039927163161337376,0.01463996060192585
17859742190037,3.245340347290039,-8.043320655822754,5.061342239379883,0.015438503585755825,0.005855984054505825,0.0181003138422966
17859743427137,3.245340347290039,-8.042123794555664,5.0685248374938965,0.01357523538172245,0.00452507846057415,0.02076212503015995
17859744664287,3.19865345954895,-8.069657325744629,5.050568580627441,0.01836649514734745,-0.0029279920272529125,0.015172322280704975
17859745901437,3.2166099548339844,-8.02536392211914,5.102043628692627,0.01703559048473835,0.0015970865497365594,0.0173017717897892
17859747138550,3.224989652633667,-8.034940719604492,5.07451057434082,0.0173017717897892,-0.0015970865497365594,0.0181003138422966
17859748375675,3.2776620388031006,-8.021772384643555,5.079298973083496,0.015172322280704975,-0.0007985432748682797,0.0167694091796875
17859749612812,3.224989652633667,-8.040926933288574,5.0876784324646,0.01224433071911335,-0.0039927163161337376,0.02422248013317585
17859750849937,3.204638957977295,-8.043320655822754,5.111620903015137,0.013309055007994175,0.0018632676219567657,0.02076212503015995
17859752087075,3.2369606494903564,-8.087613105773926,5.088875770568848,0.01463996060192585,-0.0013309054775163531,0.02022976242005825
17859753324212,3.205836057662964,-8.08162784576416,5.019443988800049,0.01117960549890995,-0.00452507846057415,0.0173017717897892
17859754561337,3.247734546661377,-8.10437297821045,5.062539577484131,0.0119781494140625,-0.004791259765625,0.0247548408806324
17859755798462,3.2357635498046875,-8.073247909545898,5.073313236236572,0.014373779296875,-0.0063883461989462376,0.02182685025036335
17859757035600,3.2537200450897217,-8.064868927001953,5.066130638122559,0.0173017717897892,-0.0042588976211845875,0.0210283063352108
17859758272712,3.2142157554626465,-8.044517517089844,5.096058368682861,0.01783413253724575,-0.007985432632267475,0.01996358297765255
17859759509862,3.222595453262329,-8.037335395812988,5.1152119636535645,0.012776692397892475,-0.00958251953125,0.01650322787463665
17859760747000,3.22139835357666,-8.08282470703125,5.0697221755981445,0.0114457868039608,-0.0071868896484375,0.0181003138422966
17859761984125,3.202244758605957,-8.063671112060547,5.050568580627441,0.01117960549890995,-0.014906140975654125,0.0220930315554142
17859763221237,3.2106244564056396,-8.072051048278809,5.036203384399414,0.010647243820130825,-0.008251613937318325,0.0228915736079216
17859764458375,3.204638957977295,-8.069657325744629,5.072116374969482,0.010647243820130825,-0.00984870083630085,0.0234239362180233
17859765695512,3.2393548488616943,-8.08282470703125,5.0697221755981445,0.010647243820130825,-0.012510511092841625,0.01889885775744915
17859766932637,3.224989652633667,-8.093599319458008,5.080495834350586,0.0114457868039608,-0.012776692397892475,0.0162370465695858
17859768169775,3.2357635498046875,-8.057685852050781,5.063736438751221,0.010913425125181675,-0.00984870083630085,0.0196974016726017
17859769406912,3.222595453262329,-8.072051048278809,5.099649429321289,0.007453070487827063,-0.0114457868039608,0.02502102218568325
17859770644037,3.227383852005005,-8.105569839477539,5.07451057434082,0.00931633822619915,-0.0063883461989462376,0.0223592109978199
17859771881175,3.2381577491760254,-8.07923412322998,5.063736438751221,0.007453070487827063,-0.01117960549890995,0.0157046839594841
17859773118300,3.2369606494903564,-8.054094314575195,5.11880350112915,0.0066545275039970875,-0.015438503585755825,0.0167694091796875
17859774355425,3.2190041542053223,-8.08043098449707,5.043385982513428,0.0063883461989462376,-0.02022976242005825,0.0234239362180233
17859775592562,3.2118215560913086,-8.107964515686035,5.076904773712158,0.005589802749454975,-0.02129448764026165,0.0228915736079216
17859776829700,3.2106244564056396,-8.08282470703125,5.099649429321289,0.007453070487827063,-0.01836649514734745,0.02555338479578495
17859778066812,3.179499864578247,-8.063671112060547,5.062539577484131,0.0039927163161337376,-0.0186326764523983,0.0210283063352108
17859779303950,3.2333693504333496,-8.052897453308105,5.0469770431518555,0.0013309054775163531,-0.0157046839594841,0.0196974016726017
17859780541087,3.227383852005005,-8.078036308288574,5.0876784324646,0.0015970865497365594,-0.01703559048473835,0.023956298828125
17859781778212,3.181894063949585,-8.075642585754395,5.078101634979248,0.0042588976211845875,-0.01889885775744915,0.0204959437251091
17859783015350,3.1890766620635986,-8.061277389526367,5.081693172454834,0.008783976547420025,-0.0220930315554142,0.02608574740588665
17859784252475,3.2166099548339844,-8.073247909545898,5.0912699699401855,0.0005323622026480734,-0.0228915736079216,0.0228915736079216
17859785489600,3.2142157554626465,-8.060080528259277,5.032611846923828,-0.0042588976211845875,-0.02262539230287075,0.0220930315554142
17859786726750,3.1759085655212402,-8.08043098449707,5.020640850067139,0.0005323622026480734,-0.023956298828125,0.01996358297765255
17859787963862,3.1663317680358887,-8.020575523376465,5.094861030578613,-0.0015970865497365594,-0.02661811001598835,0.01836649514734745
17859789201012,3.183091163635254,-8.02656078338623,5.080495834350586,0.0,-0.0215606689453125,0.0247548408806324
17859790438125,3.202244758605957,-8.062474250793457,5.07451057434082,0.0023956298828125,-0.0247548408806324,0.02502102218568325
17859791675275,3.1747114658355713,-8.037335395812988,5.0876784324646,-0.0018632676219567657,-0.02555338479578495,0.02369011752307415
17859792912375,3.1519665718078613,-8.069657325744629,5.097255229949951,-0.0026618109550327063,-0.02848137728869915,0.0258195661008358
17859794149525,3.1675288677215576,-8.054094314575195,5.073313236236572,-0.0010647244052961469,-0.0276828333735466,0.02661811001598835
17859795386662,3.1675288677215576,-8.04810905456543,5.057751178741455,0.0013309054775163531,-0.02981228195130825,0.02661811001598835
17859796623787,3.1878795623779297,-8.060080528259277,5.07570743560791,-0.0010647244052961469,-0.03034464456140995,0.02661811001598835
17859797860900,3.1902737617492676,-8.066065788269043,5.070919036865234,-0.0018632676219567657,-0.0282151959836483,0.03034464456140995
17859799098037,3.2094273567199707,-8.028955459594727,5.073313236236572,0.0005323622026480734,-0.0263519287109375,0.02794901467859745
17859800335175,3.1974563598632812,-8.032546997070312,5.07570743560791,0.0005323622026480734,-0.03087700717151165,0.02741665206849575
17859801572300,3.179499864578247,-8.02656078338623,5.078101634979248,-0.005855984054505825,-0.02981228195130825,0.02608574740588665
17859802809437,3.1747114658355713,-8.044517517089844,5.064933776855469,-0.00452507846057415,-0.0306108258664608,0.02422248013317585
17859804046575,3.154360771179199,-8.055292129516602,5.063736438751221,-0.0010647244052961469,-0.0292799212038517,0.03034464456140995
17859805283700,3.1495723724365234,-8.043320655822754,5.11880350112915,0.0005323622026480734,-0.0322079136967659,0.03087700717151165
17859806520837,3.185485363006592,-8.009801864624023,5.0900726318359375,-0.0039927163161337376,-0.0322079136967659,0.02502102218568325
17859807757950,3.1435868740081787,-7.979874134063721,5.100846767425537,-0.0010647244052961469,-0.03087700717151165,0.02901373989880085
17859808995087,3.1962592601776123,-7.987056732177734,5.063736438751221,-0.0021294488105922937,-0.0314093679189682,0.0258195661008358
17859810232225,3.157952070236206,-7.9858598709106445,5.012261390686035,-0.00692070834338665,-0.0316755510866642,0.0292799212038517
17859811469362,3.1974563598632812,-8.000225067138672,5.050568580627441,-0.003460354171693325,-0.0306108258664608,0.0258195661008358
17859812706487,3.1651346683502197,-8.02536392211914,5.054159641265869,-0.0002661811013240367,-0.0324740931391716,0.02555338479578495
17859813943600,3.162740468978882,-7.999027729034424,5.0469770431518555,-0.0015970865497365594,-0.0324740931391716,0.02315775491297245
17859815180750,3.1064767837524414,-8.003816604614258,5.07570743560791,-0.004791259765625,-0.0327402763068676,0.0204959437251091
17859816417900,3.1304187774658203,-7.983465671539307,5.092466831207275,0.0005323622026480734,-0.0292799212038517,0.02022976242005825
17859817655012,3.1004912853240967,-8.001421928405762,5.052962779998779,-0.0010647244052961469,-0.0300784632563591,0.02262539230287075
17859818892137,3.092111587524414,-7.994239330291748,5.062539577484131,-0.008517795242369175,-0.033272635191679,0.02262539230287075
17859820129287,3.155557870864868,-7.981071472167969,5.036203384399414,-0.004791259765625,-0.0324740931391716,0.02182685025036335
17859821366412,3.156754970550537,-8.007407188415527,5.054159641265869,-0.005057440605014563,-0.0306108258664608,0.0223592109978199
17859822603525,3.1088709831237793,-7.996633529663086,5.07451057434082,-0.00692070834338665,-0.0306108258664608,0.0228915736079216
17859823840662,3.095702886581421,-8.005013465881348,5.038597583770752,-0.0037265352439135313,-0.0311431884765625,0.0220930315554142
17859825077800,3.117250680923462,-7.9858598709106445,5.045780181884766,-0.0042588976211845875,-0.02981228195130825,0.02022976242005825
17859826314937,3.1423897743225098,-7.989450931549072,5.055356979370117,-0.0063883461989462376,-0.0282151959836483,0.0191650390625
17859827552050,3.111265182495117,-7.9846625328063965,5.0697221755981445,-0.0053236219100654125,-0.02901373989880085,0.023956298828125
17859828789187,3.137601375579834,-7.982268333435059,5.027823448181152,-0.004791259765625,-0.02981228195130825,0.02076212503015995
17859830026312,3.0825347900390625,-7.996633529663086,5.04099178314209,-0.005589802749454975,-0.0292799212038517,0.015172322280704975
17859831263450,3.069366693496704,-8.008605003356934,5.070919036865234,-0.008251613937318325,-0.0268842913210392,0.0167694091796875
17859832500587,3.0825347900390625,-8.021772384643555,5.061342239379883,-0.0077192517928779125,-0.02794901467859745,0.02022976242005825
17859833737737,3.098097085952759,-8.032546997070312,5.07451057434082,-0.0031941730994731188,-0.02901373989880085,0.0181003138422966
17859834974850,3.071760892868042,-7.994239330291748,5.035006046295166,-0.0026618109550327063,-0.02874755859375,0.01889885775744915
17859836211975,3.0573956966400146,-8.010998725891113,5.043385982513428,-0.0042588976211845875,-0.0282151959836483,0.0196974016726017
17859837449100,3.0885202884674072,-8.01339340209961,5.063736438751221,-0.003460354171693325,-0.0276828333735466,0.01783413253724575
17859838686237,3.098097085952759,-7.997830867767334,5.0266265869140625,-0.004791259765625,-0.02608574740588665,0.02022976242005825
17859839923375,3.0825347900390625,-7.979874134063721,5.061342239379883,-0.0053236219100654125,-0.02315775491297245,0.01703559048473835
17859841160487,3.07415509223938,-7.994239330291748,5.049371242523193,-0.01171196810901165,-0.0247548408806324,0.0191650390625
17859842397637,3.1064767837524414,-7.967903137207031,5.045780181884766,-0.0029279920272529125,-0.0234239362180233,0.0162370465695858
17859843634750,3.1028854846954346,-7.959523677825928,5.0290207862854,0.0002661811013240367,-0.02422248013317585,0.010913425125181675
17859844871875,3.0765492916107178,-7.983465671539307,5.0469770431518555,-0.0031941730994731188,-0.0263519287109375,0.0162370465695858
17859846109025,3.0837318897247314,-7.951143741607666,5.03021764755249,-0.0021294488105922937,-0.02315775491297245,0.01756795309484005
17859847346175,3.094505786895752,-7.978677272796631,5.032611846923828,-0.0029279920272529125,-0.01597086526453495,0.0119781494140625
17859848583287,3.0633811950683594,-7.949946880340576,5.058948040008545,-0.004791259765625,-0.0204959437251091,0.014373779296875
17859849820425,3.094505786895752,-7.971494674682617,5.0697221755981445,0.0010647244052961469,-0.0228915736079216,0.015172322280704975
17859851057525,3.0633811950683594,-7.970297336578369,5.061342239379883,-0.0023956298828125,-0.0181003138422966,0.0114457868039608
17859852294662,3.02986216545105,-7.934384346008301,5.0290207862854,-0.00452507846057415,-0.01836649514734745,0.013042873702943325
17859853531800,3.066972494125366,-7.9631147384643555,5.052962779998779,-0.0031941730994731188,-0.0223592109978199,0.01597086526453495
17859854768937,3.0825347900390625,-7.937975883483887,5.036203384399414,0.0007985432748682797,-0.0167694091796875,0.01836649514734745
17859856006062,3.0765492916107178,-7.951143741607666,5.044582843780518,0.0018632676219567657,-0.0157046839594841,0.015172322280704975
17859857243187,3.0621840953826904,-7.940370082855225,5.052962779998779,-0.0013309054775163531,-0.00931633822619915,0.01224433071911335
17859858480325,3.069366693496704,-7.9643120765686035,5.056553840637207,0.0,-0.010913425125181675,0.0077192517928779125
17859859717462,3.0849289894104004,-7.9643120765686035,5.063736438751221,0.00452507846057415,-0.013309055007994175,0.00958251953125
17859860954600,3.053804397583008,-7.948749542236328,5.032611846923828,0.0005323622026480734,-0.01650322787463665,0.007453070487827063
17859862191712,3.023876667022705,-8.006210327148438,5.052962779998779,0.0021294488105922937,-0.013309055007994175,0.010114881210029125
17859863428862,3.071760892868042,-7.967903137207031,5.060145378112793,-0.0010647244052961469,-0.01463996060192585,0.008783976547420025
17859864665975,3.070563793182373,-7.970297336578369,5.044582843780518,0.0015970865497365594,-0.015172322280704975,0.01171196810901165
17859865903112,3.0825347900390625,-7.954735279083252,5.027823448181152,0.0039927163161337376,-0.010381062515079975,0.0090501569211483
17859867140250,3.09689998626709,-7.954735279083252,5.019443988800049,0.0018632676219567657,-0.013042873702943325,0.012776692397892475
17859868377387,3.0777463912963867,-8.009801864624023,5.033809185028076,0.0,-0.0090501569211483,0.012510511092841625
17859869614512,3.050213098526001,-7.979874134063721,5.03021764755249,0.005589802749454975,-0.008783976547420025,0.010114881210029125
17859870851662,3.0550014972686768,-7.91283655166626,5.0697221755981445,0.005589802749454975,-0.00958251953125,0.0063883461989462376
17859872088775,3.075352191925049,-7.961917877197266,5.088875770568848,0.0023956298828125,-0.008251613937318325,0.0066545275039970875
17859873325900,3.070563793182373,-7.923610687255859,5.093664169311523,0.007453070487827063,-0.0042588976211845875,0.0066545275039970875
17859874563025,3.07415509223938,-7.929595947265625,5.081693172454834,0.0042588976211845875,-0.0090501569211483,0.01171196810901165
17859875800175,3.0609869956970215,-7.95832633972168,5.07451057434082,0.0005323622026480734,-0.00931633822619915,0.010114881210029125
17859877037300,3.0645782947540283,-7.970297336578369,5.019443988800049,0.0007985432748682797,-0.0021294488105922937,0.003460354171693325
17859878274437,3.0825347900390625,-7.993042469024658,5.057751178741455,0.0042588976211845875,-0.0021294488105922937,0.006122165359556675
17859879511537,3.0873231887817383,-8.000225067138672,5.035006046295166,0.0077192517928779125,-0.005855984054505825,0.010913425125181675
17859880748662,3.0394389629364014,-7.9427642822265625,5.098452568054199,0.0077192517928779125,-0.005855984054505825,0.0090501569211483
17859881985825,3.071760892868042,-7.99064826965332,5.066130638122559,0.005057440605014563,-0.004791259765625,0.0053236219100654125
17859883222950,3.068169593811035,-7.970297336578369,4.999093055725098,0.0031941730994731188,0.0021294488105922937,0.0053236219100654125
17859884460087,3.050213098526001,-7.999027729034424,5.055356979370117,0.0007985432748682797,0.0018632676219567657,0.0029279920272529125
17859885697225,3.023876667022705,-8.022970199584961,5.067327976226807,0.005057440605014563,0.0018632676219567657,0.0005323622026480734
17859886934350,3.053804397583008,-8.036138534545898,5.062539577484131,0.0053236219100654125,0.0,0.0013309054775163531
17859888171500,3.045424699783325,-8.021772384643555,5.056553840637207,-0.0002661811013240367,0.0039927163161337376,-0.0002661811013240367
17859889408650,3.053804397583008,-8.067262649536133,5.024232387542725,0.0063883461989462376,0.0063883461989462376,0.0042588976211845875
17859890645750,3.07415509223938,-8.02536392211914,5.018246650695801,0.0031941730994731188,0.007985432632267475,0.0029279920272529125
17859891882862,3.0370447635650635,-8.031350135803223,5.0469770431518555,0.0005323622026480734,0.003460354171693325,-0.0021294488105922937
17859893120012,3.068169593811035,-8.036138534545898,5.07451057434082,0.0023956298828125,0.003460354171693325,0.0002661811013240367
17859894357125,3.071760892868042,-8.061277389526367,5.050568580627441,0.0031941730994731188,0.0021294488105922937,0.0023956298828125
17859895594262,3.092111587524414,-8.062474250793457,5.045780181884766,0.005589802749454975,0.0026618109550327063,-0.0005323622026480734
17859896831400,3.066972494125366,-8.056488990783691,5.067327976226807,0.0026618109550327063,0.012510511092841625,0.0
17859898068525,3.0861260890960693,-8.032546997070312,5.104437828063965,0.00452507846057415,0.007985432632267475,-0.003460354171693325
17859899305675,3.075352191925049,-8.028955459594727,5.088875770568848,0.0021294488105922937,0.0090501569211483,-0.0023956298828125
17859900542800,3.0765492916107178,-8.056488990783691,5.096058368682861,0.003460354171693325,0.00958251953125,-0.004791259765625
17859901779912,3.1196448802948,-8.022970199584961,5.066130638122559,0.0023956298828125,0.00958251953125,-0.007985432632267475
17859903017050,3.141192674636841,-8.072051048278809,5.038597583770752,0.0013309054775163531,0.0077192517928779125,-0.005057440605014563
17859904254187,3.1232361793518066,-8.070854187011719,5.049371242523193,0.0066545275039970875,0.0114457868039608,-0.00452507846057415
17859905491325,3.136404275894165,-8.027758598327637,5.061342239379883,0.0031941730994731188,0.00984870083630085,0.0013309054775163531
17859906728450,3.1316158771514893,-7.997830867767334,5.039794445037842,0.0037265352439135313,0.0114457868039608,-0.0013309054775163531
17859907965587,3.1220390796661377,-8.001421928405762,5.067327976226807,0.005057440605014563,0.01703559048473835,-0.0013309054775163531
17859909202700,3.1519665718078613,-8.0145902633667,5.067327976226807,0.0029279920272529125,0.01357523538172245,-0.0042588976211845875
17859910439850,3.1423897743225098,-8.000225067138672,5.07451057434082,0.0039927163161337376,0.01410759799182415,-0.004791259765625
17859911676962,3.157952070236206,-7.965508937835693,5.079298973083496,0.005855984054505825,0.01943122036755085,-0.0023956298828125
17859912914112,3.134010076522827,-8.003816604614258,5.085284233093262,0.0071868896484375,0.015438503585755825,-0.005057440605014563
17859914151225,3.1088709831237793,-7.995436668395996,5.067327976226807,0.003460354171693325,0.01117960549890995,-0.0021294488105922937
17859915388362,3.1268274784088135,-8.0145902633667,5.082890033721924,0.00958251953125,0.012776692397892475,0.0015970865497365594
17859916625475,3.1208419799804688,-8.021772384643555,5.073313236236572,0.0053236219100654125,0.00931633822619915,-0.0021294488105922937
17859917862612,3.139995574951172,-8.043320655822754,5.105635166168213,-0.0021294488105922937,0.01463996060192585,-0.00931633822619915
17859919099762,3.1495723724365234,-8.008605003356934,5.07451057434082,0.0005323622026480734,0.0186326764523983,-0.00931633822619915
17859920336887,3.141192674636841,-8.044517517089844,5.007472991943359,0.0031941730994731188,0.01703559048473835,-0.003460354171693325
17859921574012,3.1292216777801514,-8.086416244506836,5.021838188171387,0.00452507846057415,0.01756795309484005,-0.0031941730994731188
17859922811137,3.0837318897247314,-8.1139497756958,5.045780181884766,0.006122165359556675,0.01463996060192585,-0.010381062515079975
17859924048287,3.068169593811035,-8.078036308288574,5.060145378112793,0.0007985432748682797,0.014373779296875,-0.005855984054505825
17859925285437,3.118447780609131,-8.092401504516602,5.049371242523193,-0.0015970865497365594,0.01463996060192585,-0.0042588976211845875
17859926522525,3.092111587524414,-8.093599319458008,5.052962779998779,0.0026618109550327063,0.01703559048473835,-0.004791259765625
17859927759675,3.1100680828094482,-8.107964515686035,5.098452568054199,-0.0029279920272529125,0.01650322787463665,-0.007453070487827063
17859928996812,3.114856481552124,-8.131906509399414,5.084087371826172,-0.0037265352439135313,0.014373779296875,-0.00958251953125
17859930233937,3.09689998626709,-8.165425300598145,5.018246650695801,-0.0029279920272529125,0.01783413253724575,-0.01463996060192585
17859931471062,3.117250680923462,-8.158242225646973,5.0900726318359375,-0.004791259765625,0.0234239362180233,-0.0138414166867733
17859932708200,3.135207176208496,-8.133103370666504,5.0876784324646,-0.0039927163161337376,0.0247548408806324,-0.0119781494140625
17859933945312,3.1423897743225098,-8.198944091796875,5.079298973083496,-0.005057440605014563,0.0196974016726017,-0.00958251953125
17859935182462,3.1519665718078613,-8.158242225646973,5.04099178314209,-0.0063883461989462376,0.01783413253724575,-0.00958251953125
17859936419587,3.155557870864868,-8.118738174438477,5.08648157119751,-0.004791259765625,0.0181003138422966,-0.008517795242369175
17859937656737,3.156754970550537,-8.125920295715332,5.102043628692627,-0.0042588976211845875,0.01650322787463665,-0.0114457868039608
17859938893850,3.156754970550537,-8.119935035705566,5.08648157119751,-0.005057440605014563,0.0162370465695858,-0.008783976547420025
17859940130987,3.139995574951172,-8.124723434448242,5.0469770431518555,-0.0063883461989462376,0.01783413253724575,-0.0063883461989462376
17859941368125,3.154360771179199,-8.101978302001953,5.031414985656738,-0.008251613937318325,0.0191650390625,-0.0066545275039970875
17859942605250,3.161543369293213,-8.101978302001953,5.11880350112915,-0.010381062515079975,0.0210283063352108,-0.0114457868039608
17859943842387,3.1483752727508545,-8.073247909545898,5.0900726318359375,-0.00692070834338665,0.01756795309484005,-0.007453070487827063
17859945079500,3.177105665206909,-8.074445724487305,5.099649429321289,-0.0037265352439135313,0.02022976242005825,-0.0018632676219567657
17859946316625,3.1495723724365234,-8.073247909545898,5.080495834350586,-0.0021294488105922937,0.01463996060192585,-0.0010647244052961469
17859947553775,3.1256303787231445,-8.033743858337402,5.073313236236572,-0.0090501569211483,0.01650322787463665,-0.0002661811013240367
17859948790912,3.1759085655212402,-8.027758598327637,5.07570743560791,-0.008783976547420025,0.01703559048473835,-0.0005323622026480734
17859950028050,3.177105665206909,-8.02536392211914,5.078101634979248,-0.008251613937318325,0.01756795309484005,-0.0026618109550327063
17859951265175,3.185485363006592,-7.972691535949707,5.062539577484131,-0.01117960549890995,0.01996358297765255,-0.0023956298828125
17859952502312,3.2321722507476807,-8.018181800842285,5.0912699699401855,-0.0071868896484375,0.02502102218568325,-0.0010647244052961469
17859953739425,3.22139835357666,-8.007407188415527,5.052962779998779,-0.00931633822619915,0.0173017717897892,0.0
17859954976562,3.178302764892578,-7.966706275939941,5.057751178741455,-0.01117960549890995,0.010913425125181675,-0.0029279920272529125
17859956213687,3.156754970550537,-7.95832633972168,5.0481743812561035,-0.0071868896484375,0.015438503585755825,-0.0013309054775163531
17859957450825,3.204638957977295,-8.027758598327637,5.021838188171387,-0.0119781494140625,0.0167694091796875,-0.0042588976211845875
17859958687962,3.1890766620635986,-8.02416706085205,5.015852451324463,-0.007985432632267475,0.015438503585755825,-0.0029279920272529125
17859959925100,3.2082302570343018,-8.04810905456543,5.073313236236572,-0.00452507846057415,0.015438503585755825,-0.0002661811013240367
17859961162237,3.1902737617492676,-8.04810905456543,5.04099178314209,-0.00984870083630085,0.0181003138422966,-0.0010647244052961469
17859962399350,3.1459810733795166,-8.055292129516602,5.054159641265869,-0.0077192517928779125,0.01357523538172245,-0.0015970865497365594
17859963636462,3.1531636714935303,-8.064868927001953,5.017049789428711,-0.007453070487827063,0.0157046839594841,-0.0039927163161337376
17859964873600,3.137601375579834,-8.064868927001953,4.991910457611084,-0.010114881210029125,0.0167694091796875,-0.0021294488105922937
17859966110737,3.1723172664642334,-8.10437297821045,5.018246650695801,-0.01117960549890995,0.01889885775744915,-0.003460354171693325
17859967347887,3.1435868740081787,-8.13669490814209,5.015852451324463,-0.013042873702943325,0.02022976242005825,-0.004791259765625
17859968585012,3.141192674636841,-8.063671112060547,5.011064052581787,-0.015438503585755825,0.0162370465695858,-0.008251613937318325
17859969822137,3.160346269607544,-8.134300231933594,5.002684593200684,-0.013309055007994175,0.012776692397892475,-0.010381062515079975
17859971059262,3.156754970550537,-8.099584579467773,5.056553840637207,-0.012510511092841625,0.01703559048473835,-0.008517795242369175
17859972296387,3.177105665206909,-8.093599319458008,5.0290207862854,-0.0173017717897892,0.02129448764026165,-0.010913425125181675
17859973533525,3.137601375579834,-8.13669490814209,5.007472991943359,-0.02182685025036335,0.0223592109978199,-0.0119781494140625
17859974770650,3.1890766620635986,-8.141483306884766,5.003881454467773,-0.0181003138422966,0.0204959437251091,-0.01597086526453495
17859976007800,3.181894063949585,-8.091204643249512,5.037400245666504,-0.0167694091796875,0.0196974016726017,-0.013042873702943325
17859977244925,3.181894063949585,-8.091204643249512,5.044582843780518,-0.01597086526453495,0.01836649514734745,-0.010647243820130825
17859978482062,3.2094273567199707,-8.060080528259277,5.017049789428711,-0.023956298828125,0.02262539230287075,-0.0114457868039608
17859979719187,3.159149169921875,-8.056488990783691,5.050568580627441,-0.01650322787463665,0.01703559048473835,-0.01117960549890995
17859980956312,3.161543369293213,-8.04810905456543,5.051765441894531,-0.015172322280704975,0.01597086526453495,-0.0138414166867733
17859982193425,3.185485363006592,-8.02416706085205,5.002684593200684,-0.01650322787463665,0.02129448764026165,-0.008517795242369175
17859983430587,3.204638957977295,-7.953537940979004,5.031414985656738,-0.0167694091796875,0.02022976242005825,-0.0066545275039970875
17859984667712,3.1878795623779297,-8.021772384643555,5.07570743560791,-0.0186326764523983,0.02022976242005825,-0.0167694091796875
17859985904837,3.2106244564056396,-7.983465671539307,5.073313236236572,-0.015438503585755825,0.0204959437251091,-0.01357523538172245
17859987141975,3.205836057662964,-7.9451584815979,5.060145378112793,-0.014373779296875,0.01836649514734745,-0.010647243820130825
17859988379112,3.2142157554626465,-7.952341079711914,5.037400245666504,-0.0167694091796875,0.0162370465695858,-0.0119781494140625
17859989616225,3.1926679611206055,-7.959523677825928,5.049371242523193,-0.01756795309484005,0.0210283063352108,-0.013042873702943325
17859990853387,3.185485363006592,-7.965508937835693,5.024232387542725,-0.01224433071911335,0.0167694091796875,-0.012776692397892475
17859992090487,3.226186752319336,-7.934384346008301,5.045780181884766,-0.01650322787463665,0.0173017717897892,-0.01703559048473835
17859993327625,3.220201253890991,-7.916428089141846,5.060145378112793,-0.01463996060192585,0.01756795309484005,-0.0119781494140625
17859994564762,3.180696964263916,-7.931990146636963,5.033809185028076,-0.00958251953125,0.0162370465695858,-0.00692070834338665
17859995801875,3.2178070545196533,-7.903259754180908,4.988319396972656,-0.013042873702943325,0.0220930315554142,-0.01171196810901165
17859997039025,3.1735143661499023,-7.9415669441223145,5.0481743812561035,-0.010647243820130825,0.02129448764026165,-0.0114457868039608
17859998276175,3.178302764892578,-7.979874134063721,5.021838188171387,-0.0063883461989462376,0.0215606689453125,-0.01224433071911335
17859999513287,3.2321722507476807,-7.928399085998535,5.012261390686035,-0.0042588976211845875,0.0196974016726017,-0.010647243820130825
17860000750437,3.2142157554626465,-7.947552680969238,5.044582843780518,-0.007985432632267475,0.013309055007994175,-0.008783976547420025
17860001987562,3.1292216777801514,-7.954735279083252,5.014655590057373,-0.006122165359556675,0.02422248013317585,-0.01171196810901165
17860003224675,3.2178070545196533,-7.989450931549072,5.006275653839111,-0.0053236219100654125,0.02422248013317585,-0.00931633822619915
17860004461825,3.1974563598632812,-7.975085735321045,5.021838188171387,-0.0018632676219567657,0.01650322787463665,-0.007985432632267475
17860005698962,3.181894063949585,-7.970297336578369,5.008669853210449,-0.0031941730994731188,0.015172322280704975,-0.005057440605014563
17860006936087,3.19865345954895,-7.95712947845459,5.037400245666504,0.0002661811013240367,0.02022976242005825,-0.0077192517928779125
17860008173212,3.223792552947998,-8.003816604614258,5.050568580627441,0.0013309054775163531,0.0191650390625,-0.0039927163161337376
17860009410337,3.183091163635254,-7.988254070281982,4.982333660125732,0.0002661811013240367,0.0181003138422966,-0.0031941730994731188
17860010647450,3.2154128551483154,-7.989450931549072,5.0290207862854,0.0026618109550327063,0.0204959437251091,-0.003460354171693325
17860011884612,3.184288263320923,-7.959523677825928,5.057751178741455,0.0026618109550327063,0.02076212503015995,-0.0031941730994731188
17860013121762,3.2417490482330322,-8.028955459594727,5.049371242523193,0.0002661811013240367,0.02076212503015995,-0.0053236219100654125
17860014358862,3.184288263320923,-7.961917877197266,5.04099178314209,0.0002661811013240367,0.01889885775744915,-0.005057440605014563
17860015596000,3.184288263320923,-7.9427642822265625,5.023035049438477,0.0026618109550327063,0.02262539230287075,-0.0005323622026480734
17860016833137,3.2321722507476807,-8.016983985900879,5.015852451324463,0.0015970865497365594,0.0181003138422966,0.0026618109550327063
17860018070275,3.228580951690674,-7.983465671539307,5.062539577484131,0.0037265352439135313,0.0181003138422966,0.0013309054775163531
17860019307400,3.177105665206909,-7.99064826965332,5.032611846923828,-0.0026618109550327063,0.01943122036755085,0.0018632676219567657
17860020544525,3.177105665206909,-7.970297336578369,5.039794445037842,0.0002661811013240367,0.015172322280704975,0.0090501569211483
17860021781662,3.2118215560913086,-7.982268333435059,5.014655590057373,0.0,0.01463996060192585,0.0066545275039970875
17860023018787,3.1962592601776123,-7.988254070281982,4.99550199508667,-0.0010647244052961469,0.02076212503015995,0.0021294488105922937
17860024255925,3.1962592601776123,-8.012195587158203,5.043385982513428,0.0002661811013240367,0.0223592109978199,0.003460354171693325
17860025493050,3.220201253890991,-7.989450931549072,5.018246650695801,0.0007985432748682797,0.01783413253724575,0.00931633822619915
17860026730175,3.1950621604919434,-7.995436668395996,5.008669853210449,0.0042588976211845875,0.0223592109978199,0.01117960549890995
17860027967325,3.199850559234619,-8.003816604614258,4.999093055725098,0.006122165359556675,0.02182685025036335,0.008517795242369175
17860029204437,3.185485363006592,-8.033743858337402,5.014655590057373,0.0031941730994731188,0.01943122036755085,0.008517795242369175
17860030441575,3.1914708614349365,-8.001421928405762,4.993107795715332,0.0007985432748682797,0.0247548408806324,0.0042588976211845875
17860031678700,3.2190041542053223,-8.051700592041016,5.036203384399414,0.0021294488105922937,0.0258195661008358,0.00452507846057415
17860032915850,3.1699230670928955,-8.078036308288574,5.0254292488098145,0.0002661811013240367,0.02369011752307415,0.004791259765625
17860034152987,3.1304187774658203,-8.067262649536133,5.009867191314697,-0.0007985432748682797,0.0210283063352108,0.0090501569211483
17860035390112,3.2118215560913086,-8.068459510803223,5.032611846923828,0.0010647244052961469,0.02315775491297245,0.012510511092841625
17860036627225,3.19865345954895,-8.052897453308105,5.063736438751221,0.0007985432748682797,0.02262539230287075,0.010647243820130825
17860037864362,3.1914708614349365,-8.119935035705566,5.0266265869140625,-0.0005323622026480734,0.0181003138422966,0.01171196810901165
17860039101512,3.181894063949585,-8.105569839477539,5.032611846923828,-0.0007985432748682797,0.0191650390625,0.0090501569211483
17860040338625,3.159149169921875,-8.109161376953125,5.017049789428711,-0.0015970865497365594,0.0223592109978199,0.007985432632267475
17860041575775,3.161543369293213,-8.087613105773926,4.993107795715332,-0.0029279920272529125,0.0228915736079216,0.008783976547420025
17860042812900,3.137601375579834,-8.095993041992188,4.987122058868408,-0.0037265352439135313,0.02741665206849575,0.0071868896484375
17860044050025,3.162740468978882,-8.110358238220215,5.006275653839111,-0.0015970865497365594,0.02555338479578495,0.0071868896484375
17860045287162,3.1483752727508545,-8.095993041992188,5.0254292488098145,-0.0031941730994731188,0.02129448764026165,0.0071868896484375
17860046524287,3.137601375579834,-8.134300231933594,5.0254292488098145,-0.00692070834338665,0.02022976242005825,0.010913425125181675
17860047761437,3.2333693504333496,-8.101978302001953,4.993107795715332,-0.005855984054505825,0.0210283063352108,0.010381062515079975
17860048998562,3.2082302570343018,-8.111555099487305,4.981136798858643,-0.0077192517928779125,0.02422248013317585,0.00984870083630085
17860050235687,3.179499864578247,-8.084022521972656,5.044582843780518,-0.010647243820130825,0.02369011752307415,0.010114881210029125
17860051472825,3.204638957977295,-8.149862289428711,4.977545261383057,-0.008783976547420025,0.0252872034907341,0.0114457868039608
17860052709950,3.2525229454040527,-8.062474250793457,4.978742599487305,-0.007453070487827063,0.02262539230287075,0.01357523538172245
17860053947087,3.1938650608062744,-8.044517517089844,4.98472785949707,-0.008783976547420025,0.02022976242005825,0.01410759799182415
17860055184225,3.1507694721221924,-8.062474250793457,4.991910457611084,-0.0114457868039608,0.02369011752307415,0.010381062515079975
17860056421350,3.1890766620635986,-8.036138534545898,5.04099178314209,-0.0138414166867733,0.02422248013317585,0.007985432632267475
17860057658487,3.1974563598632812,-8.04571533203125,4.978742599487305,-0.010381062515079975,0.02555338479578495,0.0090501569211483
17860058895600,3.1914708614349365,-8.069657325744629,4.994304656982422,-0.01410759799182415,0.0247548408806324,0.01224433071911335
17860060132762,3.2178070545196533,-8.068459510803223,4.991910457611084,-0.0157046839594841,0.02129448764026165,0.01117960549890995
17860061369875,3.1495723724365234,-8.042123794555664,5.024232387542725,-0.010913425125181675,0.02076212503015995,0.008783976547420025
17860062607000,3.183091163635254,-8.051700592041016,5.018246650695801,-0.008783976547420025,0.0186326764523983,0.007453070487827063
17860063844137,3.1711201667785645,-8.022970199584961,5.018246650695801,-0.0114457868039608,0.02129448764026165,0.0023956298828125
17860065081262,3.179499864578247,-8.022970199584961,5.023035049438477,-0.01783413253724575,0.01996358297765255,0.0077192517928779125
17860066318412,3.1974563598632812,-8.02536392211914,4.985925197601318,-0.013309055007994175,0.02608574740588665,0.013309055007994175
17860067555537,3.2130186557769775,-8.04691219329834,4.987122058868408,-0.00958251953125,0.02076212503015995,0.013042873702943325
17860068792662,3.2178070545196533,-8.005013465881348,4.987122058868408,-0.012510511092841625,0.01889885775744915,0.01597086526453495
17860070029787,3.2166099548339844,-8.003816604614258,5.0014872550964355,-0.0138414166867733,0.0215606689453125,0.014373779296875
17860071266925,3.201047658920288,-8.010998725891113,5.052962779998779,-0.010913425125181675,0.01756795309484005,0.013042873702943325
17860072504062,3.204638957977295,-7.988254070281982,5.0014872550964355,-0.0090501569211483,0.0186326764523983,0.010647243820130825
17860073741175,3.2118215560913086,-7.95712947845459,4.99669885635376,-0.00958251953125,0.015172322280704975,0.010647243820130825
17860074978325,3.177105665206909,-7.979874134063721,5.020640850067139,-0.0114457868039608,0.02022976242005825,0.01357523538172245
17860076215462,3.180696964263916,-7.979874134063721,4.989516258239746,-0.014373779296875,0.01889885775744915,0.01410759799182415
17860077452575,3.2106244564056396,-7.969100475311279,5.008669853210449,-0.006122165359556675,0.013042873702943325,0.01597086526453495
17860078689725,3.19865345954895,-8.001421928405762,5.019443988800049,-0.005589802749454975,0.012776692397892475,0.012776692397892475
17860079926862,3.2309751510620117,-7.937975883483887,5.003881454467773,-0.0029279920272529125,0.010647243820130825,0.0157046839594841
17860081163987,3.2357635498046875,-7.91283655166626,4.982333660125732,-0.0005323622026480734,0.014373779296875,0.012510511092841625
17860082401125,3.205836057662964,-7.90086555480957,5.04218864440918,-0.005589802749454975,0.01650322787463665,0.01410759799182415
17860083638250,3.1902737617492676,-7.928399085998535,5.007472991943359,-0.007985432632267475,0.012510511092841625,0.0090501569211483
17860084875375,3.2130186557769775,-7.970297336578369,5.037400245666504,-0.0037265352439135313,0.01117960549890995,0.007985432632267475
17860086112487,3.2082302570343018,-7.961917877197266,5.0254292488098145,-0.0010647244052961469,0.01117960549890995,0.0167694091796875
17860087349650,3.222595453262329,-7.965508937835693,4.99669885635376,-0.00452507846057415,0.00931633822619915,0.014373779296875
17860088586762,3.2321722507476807,-7.982268333435059,4.960785865783691,-0.005057440605014563,0.0066545275039970875,0.010114881210029125
17860089823900,3.207033157348633,-7.994239330291748,5.015852451324463,0.0010647244052961469,0.010381062515079975,0.0186326764523983
17860091061037,3.1866824626922607,-7.961917877197266,5.006275653839111,0.0015970865497365594,0.010381062515079975,0.01783413253724575
17860092298175,3.2106244564056396,-7.978677272796631,5.008669853210449,-0.0010647244052961469,0.00984870083630085,0.01224433071911335
17860093535300,3.2118215560913086,-8.010998725891113,4.99669885635376,-0.0002661811013240367,0.0063883461989462376,0.01357523538172245
17860094772425,3.2130186557769775,-8.012195587158203,4.9799394607543945,0.0013309054775163531,0.008251613937318325,0.0157046839594841
17860096009550,3.1759085655212402,-8.040926933288574,4.957194805145264,0.0029279920272529125,0.01117960549890995,0.015172322280704975
17860097246687,3.1866824626922607,-8.018181800842285,4.990713596343994,0.0002661811013240367,0.010381062515079975,0.008251613937318325
17860098483825,3.1974563598632812,-8.012195587158203,5.007472991943359,-0.0002661811013240367,0.0037265352439135313,0.0090501569211483
17860099720950,3.160346269607544,-8.054094314575195,4.973954200744629,0.0010647244052961469,0.0007985432748682797,0.015438503585755825
17860100958087,3.161543369293213,-8.038532257080078,4.972756862640381,0.0010647244052961469,0.0063883461989462376,0.014373779296875
17860102195200,3.1316158771514893,-8.060080528259277,4.999093055725098,0.0,0.003460354171693325,0.008783976547420025
17860103432350,3.157952070236206,-8.04571533203125,4.9583916664123535,0.0031941730994731188,0.0013309054775163531,0.012776692397892475
17860104669475,3.2321722507476807,-8.02536392211914,4.970362663269043,0.0042588976211845875,0.0018632676219567657,0.01410759799182415
17860105906612,3.1435868740081787,-8.04810905456543,5.063736438751221,0.0002661811013240367,0.0071868896484375,0.00984870083630085
17860107143762,3.136404275894165,-8.054094314575195,5.045780181884766,-0.0007985432748682797,0.0039927163161337376,0.012776692397892475
17860108380875,3.137601375579834,-8.019378662109375,4.9835309982299805,0.0026618109550327063,0.0015970865497365594,0.0119781494140625
17860109618012,3.138798475265503,-7.976283073425293,4.978742599487305,0.0015970865497365594,0.0053236219100654125,0.010647243820130825
17860110855125,3.207033157348633,-7.981071472167969,4.98472785949707,-0.0005323622026480734,0.0031941730994731188,0.014373779296875
17860112092262,3.154360771179199,-8.002618789672852,4.989516258239746,0.0002661811013240367,0.005057440605014563,0.015172322280704975
17860113329412,3.181894063949585,-7.982268333435059,5.012261390686035,0.005589802749454975,0.0023956298828125,0.00984870083630085
17860114566525,3.1723172664642334,-7.9858598709106445,4.989516258239746,0.007453070487827063,0.006122165359556675,0.013309055007994175
17860115803675,3.1926679611206055,-7.979874134063721,4.994304656982422,0.006122165359556675,0.0026618109550327063,0.0162370465695858
17860117040800,3.1435868740081787,-7.996633529663086,5.03021764755249,0.01224433071911335,0.0007985432748682797,0.01463996060192585
17860118277937,3.141192674636841,-7.987056732177734,5.0290207862854,0.007985432632267475,-0.0023956298828125,0.0114457868039608
17860119515075,3.1974563598632812,-7.9846625328063965,5.027823448181152,0.0031941730994731188,0.0026618109550327063,0.015172322280704975
17860120752200,3.1675288677215576,-8.02656078338623,5.031414985656738,0.006122165359556675,-0.0029279920272529125,0.0157046839594841
17860121989325,3.1256303787231445,-8.032546997070312,5.003881454467773,0.010381062515079975,-0.0071868896484375,0.0196974016726017
17860123226450,3.1699230670928955,-8.038532257080078,5.039794445037842,0.0018632676219567657,-0.005589802749454975,0.014373779296875
17860124463587,3.1675288677215576,-8.056488990783691,5.054159641265869,0.0042588976211845875,-0.0053236219100654125,0.013309055007994175
17860125700725,3.1459810733795166,-8.031350135803223,5.019443988800049,0.00958251953125,0.0,0.00958251953125
17860126937850,3.1675288677215576,-8.033743858337402,5.033809185028076,0.007985432632267475,-0.0042588976211845875,0.013042873702943325
17860128174987,3.1435868740081787,-8.036138534545898,5.043385982513428,0.005589802749454975,-0.0077192517928779125,0.01171196810901165
17860129412125,3.159149169921875,-8.04691219329834,5.036203384399414,0.006122165359556675,-0.00452507846057415,0.01171196810901165
17860130649250,3.163937568664551,-7.989450931549072,5.000290393829346,0.0029279920272529125,-0.0066545275039970875,0.013042873702943325
17860131886375,3.155557870864868,-8.028955459594727,5.04218864440918,0.0114457868039608,-0.01117960549890995,0.0215606689453125
17860133123512,3.161543369293213,-8.005013465881348,5.006275653839111,0.00958251953125,-0.0063883461989462376,0.01171196810901165
17860134360650,3.141192674636841,-8.02656078338623,5.003881454467773,0.00452507846057415,-0.005855984054505825,0.0138414166867733
17860135597762,3.136404275894165,-8.02656078338623,5.0254292488098145,0.007985432632267475,-0.007453070487827063,0.0173017717897892
17860136834912,3.154360771179199,-8.008605003356934,4.990713596343994,0.0114457868039608,-0.006122165359556675,0.0157046839594841
17860138072037,3.1699230670928955,-8.032546997070312,4.987122058868408,0.010647243820130825,-0.005589802749454975,0.010381062515079975
17860139309175,3.139995574951172,-8.04930591583252,4.997896194458008,0.003460354171693325,-0.010381062515079975,0.01117960549890995
17860140546300,3.1435868740081787,-8.044517517089844,5.023035049438477,0.003460354171693325,-0.008783976547420025,0.013042873702943325
17860141783437,3.090914487838745,-8.010998725891113,5.012261390686035,0.010114881210029125,-0.00452507846057415,0.0157046839594841
17860143020550,3.1028854846954346,-8.057685852050781,4.989516258239746,0.0039927163161337376,-0.005589802749454975,0.013309055007994175
17860144257700,3.1004912853240967,-8.055292129516602,4.99669885635376,0.004791259765625,-0.0039927163161337376,0.0037265352439135313
17860145494837,3.1064767837524414,-8.076839447021484,4.994304656982422,0.0071868896484375,-0.003460354171693325,0.005855984054505825
17860146731962,3.113659381866455,-8.101978302001953,5.043385982513428,-0.0007985432748682797,-0.0029279920272529125,0.005855984054505825
17860147969100,3.072957992553711,-8.11634349822998,5.014655590057373,0.0029279920272529125,-0.005057440605014563,0.006122165359556675
17860149206237,3.098097085952759,-8.1139497756958,4.960785865783691,0.0042588976211845875,-0.0031941730994731188,-0.0013309054775163531
17860150443350,3.0825347900390625,-8.110358238220215,5.008669853210449,0.004791259765625,-0.0015970865497365594,-0.0007985432748682797
17860151680487,3.089717388153076,-8.110358238220215,4.989516258239746,0.003460354171693325,0.0,0.0007985432748682797
17860152917612,3.069366693496704,-8.122329711914062,5.045780181884766,0.0021294488105922937,-0.0090501569211483,-0.0023956298828125
17860154154762,3.1064767837524414,-8.10317611694336,5.0050787925720215,0.0023956298828125,-0.004791259765625,-0.0010647244052961469
17860155391887,3.1004912853240967,-8.119935035705566,5.017049789428711,0.0013309054775163531,-0.00452507846057415,-0.0015970865497365594
17860156629025,3.095702886581421,-8.091204643249512,5.007472991943359,-0.0015970865497365594,-0.0042588976211845875,-0.0015970865497365594
17860157866150,3.1100680828094482,-8.109161376953125,5.021838188171387,-0.0013309054775163531,-0.003460354171693325,0.0005323622026480734
17860159103275,3.135207176208496,-8.051700592041016,4.99669885635376,-0.0039927163161337376,-0.0053236219100654125,-0.0053236219100654125
17860160340437,3.1447839736938477,-8.036138534545898,5.03021764755249,-0.0042588976211845875,-0.0015970865497365594,-0.006122165359556675
17860161577562,3.1280245780944824,-8.019378662109375,5.003881454467773,-0.00452507846057415,-0.0002661811013240367,-0.00931633822619915
17860162814675,3.1052796840667725,-8.040926933288574,5.017049789428711,-0.0042588976211845875,0.0031941730994731188,-0.00931633822619915
17860164051812,3.1435868740081787,-8.000225067138672,5.013458251953125,-0.005057440605014563,0.0007985432748682797,-0.005057440605014563
17860165288937,3.1483752727508545,-8.018181800842285,5.070919036865234,-0.0037265352439135313,-0.00452507846057415,-0.005057440605014563
17860166526075,3.1519665718078613,-8.008605003356934,5.011064052581787,0.0021294488105922937,-0.0002661811013240367,-0.0013309054775163531
17860167763212,3.154360771179199,-7.973888874053955,5.0050787925720215,-0.0037265352439135313,0.004791259765625,-0.003460354171693325
17860169000325,3.1100680828094482,-7.989450931549072,5.014655590057373,-0.00452507846057415,0.007985432632267475,-0.00958251953125
17860170237475,3.1280245780944824,-7.95832633972168,5.038597583770752,-0.0029279920272529125,0.0021294488105922937,-0.007985432632267475
17860171474612,3.1268274784088135,-7.977479934692383,5.045780181884766,-0.0010647244052961469,-0.0007985432748682797,-0.00692070834338665
17860172711725,3.1316158771514893,-7.9451584815979,5.018246650695801,-0.0031941730994731188,0.0023956298828125,-0.004791259765625
17860173948875,3.114856481552124,-7.983465671539307,5.0254292488098145,-0.0023956298828125,0.0023956298828125,-0.005589802749454975
17860175185987,3.1232361793518066,-7.967903137207031,5.0481743812561035,0.0039927163161337376,-0.0026618109550327063,-0.0039927163161337376
17860176423137,3.1088709831237793,-7.967903137207031,5.0290207862854,0.0063883461989462376,0.0013309054775163531,0.0015970865497365594
17860177660262,3.1244332790374756,-8.001421928405762,5.002684593200684,0.0037265352439135313,0.00452507846057415,-0.0031941730994731188
17860178897412,3.1100680828094482,-7.970297336578369,5.008669853210449,0.0,0.003460354171693325,-0.0018632676219567657
17860180134525,3.137601375579834,-7.982268333435059,4.994304656982422,0.0013309054775163531,0.0013309054775163531,-0.0015970865497365594
17860181371662,3.1519665718078613,-7.971494674682617,5.009867191314697,0.0010647244052961469,-0.0010647244052961469,-0.0031941730994731188
17860182608787,3.155557870864868,-8.01339340209961,4.9835309982299805,0.010647243820130825,0.0005323622026480734,-0.005855984054505825
17860183845937,3.1232361793518066,-8.0145902633667,5.0014872550964355,0.0066545275039970875,0.0002661811013240367,0.0010647244052961469
17860185083062,3.118447780609131,-8.042123794555664,4.985925197601318,0.00452507846057415,0.0029279920272529125,0.0029279920272529125
17860186320187,3.1459810733795166,-8.018181800842285,5.060145378112793,0.0077192517928779125,0.0026618109550327063,0.0005323622026480734
17860187557325,3.1890766620635986,-7.994239330291748,5.013458251953125,0.0029279920272529125,0.0015970865497365594,-0.0037265352439135313
17860188794462,3.1040825843811035,-8.020575523376465,5.058948040008545,0.003460354171693325,-0.0015970865497365594,-0.0010647244052961469
17860190031575,3.1028854846954346,-8.02416706085205,5.027823448181152,0.0013309054775163531,0.007453070487827063,0.003460354171693325
17860191268725,3.1280245780944824,-8.044517517089844,5.045780181884766,0.0042588976211845875,0.005855984054505825,0.005855984054505825
17860192505862,3.1902737617492676,-8.04691219329834,5.0266265869140625,0.0053236219100654125,0.00452507846057415,0.00692070834338665
17860193743000,3.138798475265503,-8.04691219329834,5.0481743812561035,0.0031941730994731188,0.0023956298828125,0.006122165359556675
17860194980137,3.1316158771514893,-8.02656078338623,5.064933776855469,0.0042588976211845875,0.0031941730994731188,0.0015970865497365594
17860196217250,3.111265182495117,-8.006210327148438,5.023035049438477,-0.0005323622026480734,0.0029279920272529125,0.0026618109550327063
17860197454375,3.1304187774658203,-8.027758598327637,5.04099178314209,0.0037265352439135313,0.0042588976211845875,-0.0013309054775163531
17860198691512,3.139995574951172,-8.007407188415527,5.0481743812561035,0.008251613937318325,0.008251613937318325,0.0010647244052961469
17860199928650,3.138798475265503,-7.995436668395996,5.037400245666504,0.005589802749454975,0.007985432632267475,0.0029279920272529125
17860201165787,3.159149169921875,-8.015787124633789,5.0481743812561035,0.0031941730994731188,0.00692070834338665,0.0037265352439135313
17860202402900,3.1675288677215576,-8.008605003356934,4.963180065155029,0.0010647244052961469,0.0037265352439135313,0.0037265352439135313
17860203640025,3.138798475265503,-8.028955459594727,5.008669853210449,0.007453070487827063,0.0042588976211845875,0.008783976547420025
17860204877187,3.1759085655212402,-8.036138534545898,5.021838188171387,0.0071868896484375,0.00931633822619915,0.0042588976211845875
17860206114300,3.1076738834381104,-8.032546997070312,5.064933776855469,0.0018632676219567657,0.00692070834338665,-0.0007985432748682797
17860207351412,3.134010076522827,-8.027758598327637,5.0050787925720215,0.0042588976211845875,0.010913425125181675,-0.0037265352439135313
17860208588575,3.1459810733795166,-8.038532257080078,5.061342239379883,0.005589802749454975,0.008783976547420025,-0.0039927163161337376
17860209825700,3.1292216777801514,-8.015787124633789,5.037400245666504,0.0042588976211845875,0.010647243820130825,-0.0015970865497365594
17860211062825,3.1531636714935303,-8.052897453308105,5.058948040008545,0.0026618109550327063,0.012510511092841625,0.0005323622026480734
17860212299975,3.114856481552124,-8.036138534545898,5.060145378112793,0.0031941730994731188,0.010913425125181675,-0.0007985432748682797
17860213537100,3.1004912853240967,-7.975085735321045,5.023035049438477,0.00692070834338665,0.007985432632267475,0.0021294488105922937
17860214774225,3.1471781730651855,-8.039729118347168,5.0266265869140625,-0.0023956298828125,0.00931633822619915,0.0023956298828125
17860216011362,3.1316158771514893,-8.008605003356934,5.062539577484131,-0.003460354171693325,0.01756795309484005,0.005057440605014563
17860217248500,3.1100680828094482,-8.002618789672852,5.038597583770752,0.0015970865497365594,0.010647243820130825,0.003460354171693325
17860218485650,3.095702886581421,-7.997830867767334,5.067327976226807,0.0015970865497365594,0.0157046839594841,0.0005323622026480734
17860219722762,3.180696964263916,-8.019378662109375,5.08648157119751,0.0021294488105922937,0.010913425125181675,-0.0023956298828125
17860220959900,3.160346269607544,-8.02536392211914,5.094861030578613,0.0029279920272529125,0.01117960549890995,0.0
17860222197025,3.1495723724365234,-8.028955459594727,5.044582843780518,-0.0023956298828125,0.01357523538172245,0.0023956298828125
17860223434137,3.137601375579834,-8.051700592041016,5.0469770431518555,-0.0018632676219567657,0.007985432632267475,0.0018632676219567657
17860224671275,3.141192674636841,-8.021772384643555,5.050568580627441,0.0021294488105922937,0.0138414166867733,-0.0018632676219567657
17860225908425,3.132812976837158,-8.027758598327637,5.054159641265869,0.00452507846057415,0.0167694091796875,0.0031941730994731188
17860227145562,3.1208419799804688,-8.036138534545898,5.050568580627441,0.0029279920272529125,0.01597086526453495,0.005589802749454975
17860228382700,3.1651346683502197,-8.01339340209961,5.0014872550964355,0.0026618109550327063,0.0162370465695858,0.0002661811013240367
17860229619812,3.1507694721221924,-8.02416706085205,5.04218864440918,0.0066545275039970875,0.01224433071911335,0.0015970865497365594
17860230856962,3.161543369293213,-8.006210327148438,5.036203384399414,0.0023956298828125,0.01410759799182415,0.003460354171693325
17860232094075,3.1711201667785645,-8.022970199584961,5.085284233093262,-0.0013309054775163531,0.01224433071911335,-0.0013309054775163531
17860233331212,3.180696964263916,-8.04930591583252,5.056553840637207,0.0037265352439135313,0.01463996060192585,-0.0002661811013240367
17860234568350,3.1950621604919434,-8.002618789672852,5.036203384399414,0.0039927163161337376,0.0162370465695858,0.0005323622026480734
17860235805487,3.160346269607544,-8.021772384643555,5.038597583770752,-0.00452507846057415,0.01996358297765255,0.0005323622026480734
17860237042625,3.1926679611206055,-8.052897453308105,5.062539577484131,0.0013309054775163531,0.01943122036755085,0.0026618109550327063
17860238279750,3.1735143661499023,-8.044517517089844,5.04099178314209,0.0066545275039970875,0.01836649514734745,0.0002661811013240367
17860239516875,3.2094273567199707,-8.044517517089844,5.043385982513428,0.00452507846057415,0.0167694091796875,-0.0013309054775163531
17860240754012,3.2082302570343018,-8.063671112060547,5.020640850067139,-0.0029279920272529125,0.0173017717897892,0.0077192517928779125
17860241991150,3.199850559234619,-8.055292129516602,5.031414985656738,0.0026618109550327063,0.0181003138422966,0.0042588976211845875
17860243228287,3.111265182495117,-8.036138534545898,5.044582843780518,0.0021294488105922937,0.0162370465695858,0.0013309054775163531
17860244465425,3.177105665206909,-8.027758598327637,5.066130638122559,0.0023956298828125,0.01783413253724575,0.0026618109550327063
17860245702525,3.185485363006592,-8.032546997070312,5.0014872550964355,0.005855984054505825,0.015438503585755825,0.0066545275039970875
17860246939687,3.1950621604919434,-8.019378662109375,5.062539577484131,0.005057440605014563,0.01650322787463665,0.0021294488105922937
17860248176812,3.207033157348633,-8.02536392211914,5.0469770431518555,-0.0010647244052961469,0.01836649514734745,0.00692070834338665
17860249413937,3.161543369293213,-8.02416706085205,5.04099178314209,0.0013309054775163531,0.01889885775744915,0.00931633822619915
17860250651087,3.207033157348633,-8.022970199584961,5.0685248374938965,0.0037265352439135313,0.013309055007994175,0.004791259765625
17860251888200,3.203441858291626,-8.044517517089844,5.070919036865234,0.0018632676219567657,0.01650322787463665,0.006122165359556675
17860253125350,3.222595453262329,-8.04571533203125,5.038597583770752,0.0023956298828125,0.01783413253724575,0.006122165359556675
17860254362462,3.1316158771514893,-8.008605003356934,5.006275653839111,0.0002661811013240367,0.0162370465695858,0.007985432632267475
17860255599612,3.1938650608062744,-8.01339340209961,4.991910457611084,-0.0005323622026480734,0.0138414166867733,0.005855984054505825
17860256836737,3.2118215560913086,-8.02536392211914,5.0469770431518555,0.0029279920272529125,0.01463996060192585,0.0029279920272529125
17860258073875,3.201047658920288,-8.04691219329834,5.013458251953125,0.0053236219100654125,0.015172322280704975,0.0010647244052961469
17860259311012,3.220201253890991,-8.054094314575195,5.006275653839111,0.005057440605014563,0.01703559048473835,0.0023956298828125
17860260548125,3.181894063949585,-8.074445724487305,5.0290207862854,0.0013309054775163531,0.01463996060192585,0.00984870083630085
17860261785275,3.161543369293213,-8.069657325744629,5.017049789428711,-0.0010647244052961469,0.01597086526453495,0.0114457868039608
17860263022400,3.203441858291626,-8.066065788269043,5.033809185028076,-0.0005323622026480734,0.0138414166867733,0.00931633822619915
17860264259537,3.224989652633667,-8.027758598327637,5.045780181884766,0.0029279920272529125,0.0119781494140625,0.0119781494140625
17860265496675,3.2130186557769775,-8.036138534545898,5.037400245666504,-0.0002661811013240367,0.014373779296875,0.010381062515079975
17860266733787,3.179499864578247,-8.04930591583252,4.991910457611084,-0.004791259765625,0.013309055007994175,0.0119781494140625
17860267970925,3.1890766620635986,-8.032546997070312,5.0290207862854,-0.003460354171693325,0.012776692397892475,0.0063883461989462376
17860269208050,3.137601375579834,-8.033743858337402,5.020640850067139,0.0010647244052961469,0.01463996060192585,0.0053236219100654125
17860270445187,3.228580951690674,-8.036138534545898,5.0254292488098145,-0.0005323622026480734,0.0162370465695858,0.01117960549890995
17860271682312,3.1878795623779297,-8.019378662109375,5.04218864440918,0.0039927163161337376,0.0114457868039608,0.00931633822619915
17860272919450,3.2142157554626465,-8.02656078338623,5.018246650695801,-0.0015970865497365594,0.0090501569211483,0.0077192517928779125
17860274156575,3.207033157348633,-8.04691219329834,5.023035049438477,-0.0039927163161337376,0.008783976547420025,0.010381062515079975
17860275393725,3.2166099548339844,-8.027758598327637,5.009867191314697,-0.0013309054775163531,0.008251613937318325,0.00958251953125
17860276630850,3.1950621604919434,-8.042123794555664,5.0266265869140625,0.0026618109550327063,0.00984870083630085,0.010647243820130825
17860277868012,3.1878795623779297,-8.001421928405762,5.039794445037842,0.0029279920272529125,0.012776692397892475,0.00984870083630085
17860279105125,3.226186752319336,-8.01339340209961,5.051765441894531,0.0023956298828125,0.008783976547420025,0.012776692397892475
17860280342250,3.2369606494903564,-8.054094314575195,5.035006046295166,0.0013309054775163531,0.0015970865497365594,0.0090501569211483
17860281579387,3.2393548488616943,-8.006210327148438,5.036203384399414,0.0007985432748682797,0.004791259765625,0.0053236219100654125
17860282816512,3.242946147918701,-8.015787124633789,5.0876784324646,0.0005323622026480734,0.0037265352439135313,0.010381062515079975
17860284053662,3.1866824626922607,-8.020575523376465,5.051765441894531,0.0002661811013240367,0.005589802749454975,0.013042873702943325
17860285290787,3.224989652633667,-8.001421928405762,5.0685248374938965,0.0013309054775163531,0.0,0.02182685025036335
17860286527912,3.228580951690674,-8.020575523376465,5.050568580627441,-0.0039927163161337376,0.003460354171693325,0.0114457868039608
17860287765050,3.202244758605957,-8.032546997070312,5.038597583770752,0.0023956298828125,0.0029279920272529125,0.007985432632267475
17860289002175,3.223792552947998,-8.04930591583252,5.07570743560791,-0.0021294488105922937,0.0031941730994731188,0.007985432632267475
17860290239300,3.220201253890991,-8.022970199584961,5.0266265869140625,-0.0005323622026480734,0.0010647244052961469,0.00958251953125
17860291476437,3.228580951690674,-8.042123794555664,5.043385982513428,0.0,-0.003460354171693325,0.014373779296875
17860292713562,3.223792552947998,-8.027758598327637,5.049371242523193,-0.00452507846057415,0.0013309054775163531,0.01357523538172245
17860293950700,3.2118215560913086,-8.033743858337402,5.043385982513428,-0.007453070487827063,-0.0013309054775163531,0.013042873702943325
17860295187837,3.2106244564056396,-8.039729118347168,5.033809185028076,-0.0023956298828125,-0.0015970865497365594,0.012776692397892475
17860296424962,3.202244758605957,-8.058882713317871,5.055356979370117,-0.0007985432748682797,-0.0037265352439135313,0.008251613937318325
17860297662112,3.201047658920288,-8.040926933288574,5.078101634979248,-0.0005323622026480734,-0.0053236219100654125,0.010647243820130825
17860298899237,3.185485363006592,-8.060080528259277,5.051765441894531,-0.0023956298828125,-0.0010647244052961469,0.012776692397892475
17860300136362,3.2106244564056396,-8.012195587158203,5.012261390686035,-0.0010647244052961469,0.0005323622026480734,0.012510511092841625
17860301373500,3.2142157554626465,-8.036138534545898,5.04099178314209,0.0007985432748682797,-0.006122165359556675,0.0138414166867733
17860302610637,3.224989652633667,-8.051700592041016,5.027823448181152,0.0010647244052961469,-0.010647243820130825,0.013042873702943325
17860303847775,3.202244758605957,-8.02656078338623,5.033809185028076,-0.0015970865497365594,-0.0077192517928779125,0.00958251953125
17860305084900,3.1962592601776123,-8.018181800842285,5.062539577484131,0.0031941730994731188,-0.007453070487827063,0.010114881210029125
17860306322037,3.2154128551483154,-8.006210327148438,5.054159641265869,-0.0066545275039970875,-0.00692070834338665,0.006122165359556675
17860307559175,3.251325845718384,-8.022970199584961,5.054159641265869,-0.0042588976211845875,-0.00958251953125,0.0119781494140625
17860308796287,3.183091163635254,-7.999027729034424,5.082890033721924,-0.0018632676219567657,-0.00984870083630085,0.01117960549890995
17860310033425,3.224989652633667,-8.009801864624023,5.036203384399414,0.0,-0.0066545275039970875,0.012510511092841625
17860311270562,3.203441858291626,-8.02656078338623,5.032611846923828,-0.0002661811013240367,-0.0053236219100654125,0.015172322280704975
17860312507700,3.1723172664642334,-8.031350135803223,5.023035049438477,-0.0021294488105922937,-0.00958251953125,0.00931633822619915
17860313744825,3.22139835357666,-8.001421928405762,5.04099178314209,0.0002661811013240367,-0.013042873702943325,0.005589802749454975
17860314981962,3.2309751510620117,-8.015787124633789,5.061342239379883,-0.0021294488105922937,-0.013309055007994175,0.013042873702943325
17860316219075,3.1878795623779297,-8.007407188415527,5.031414985656738,-0.0013309054775163531,-0.012510511092841625,0.00931633822619915
17860317456225,3.19865345954895,-8.000225067138672,5.051765441894531,0.0010647244052961469,-0.00984870083630085,0.010913425125181675
17860318693350,3.220201253890991,-8.012195587158203,5.044582843780518,-0.0005323622026480734,-0.01117960549890995,0.008783976547420025
17860319930487,3.1699230670928955,-8.0145902633667,5.039794445037842,-0.0007985432748682797,-0.0157046839594841,0.008783976547420025
17860321167625,3.1723172664642334,-8.015787124633789,5.023035049438477,-0.0018632676219567657,-0.01836649514734745,0.00984870083630085
17860322404750,3.1759085655212402,-8.037335395812988,5.037400245666504,0.0013309054775163531,-0.01756795309484005,0.0119781494140625
17860323641900,3.159149169921875,-8.02656078338623,5.056553840637207,0.0026618109550327063,-0.015438503585755825,0.013309055007994175
17860324879012,3.1878795623779297,-8.054094314575195,5.04218864440918,0.0007985432748682797,-0.01943122036755085,0.010114881210029125
17860326116162,3.160346269607544,-8.054094314575195,4.990713596343994,-0.0013309054775163531,-0.01703559048473835,0.0090501569211483
17860327353287,3.1950621604919434,-8.04810905456543,5.015852451324463,-0.0005323622026480734,-0.01996358297765255,0.01357523538172245
17860328590425,3.1723172664642334,-8.060080528259277,5.058948040008545,-0.0002661811013240367,-0.0223592109978199,0.01224433071911335
17860329827550,3.1675288677215576,-8.07923412322998,5.04099178314209,0.0002661811013240367,-0.0191650390625,0.014906140975654125
17860331064700,3.1675288677215576,-8.051700592041016,5.08648157119751,-0.0013309054775163531,-0.0204959437251091,0.01357523538172245
17860332301812,3.1304187774658203,-8.055292129516602,5.050568580627441,-0.0042588976211845875,-0.01836649514734745,0.010114881210029125
17860333538937,3.162740468978882,-8.04691219329834,5.0697221755981445,-0.00692070834338665,-0.0191650390625,0.00692070834338665
17860334776075,3.159149169921875,-8.069657325744629,5.014655590057373,-0.0042588976211845875,-0.02182685025036335,0.00692070834338665
17860336013212,3.179499864578247,-8.086416244506836,5.020640850067139,-0.0031941730994731188,-0.01943122036755085,0.006122165359556675
17860337250350,3.117250680923462,-8.076839447021484,5.036203384399414,-0.0018632676219567657,-0.02076212503015995,0.015438503585755825
17860338487462,3.1292216777801514,-8.040926933288574,5.049371242523193,-0.0007985432748682797,-0.02369011752307415,0.007985432632267475
17860339724600,3.1423897743225098,-8.020575523376465,5.045780181884766,0.0013309054775163531,-0.02182685025036335,0.00958251953125
17860340961725,3.1435868740081787,-8.066065788269043,5.020640850067139,-0.0021294488105922937,-0.01943122036755085,0.007985432632267475
17860342198887,3.09689998626709,-8.039729118347168,5.024232387542725,-0.0026618109550327063,-0.0210283063352108,0.0042588976211845875
17860343436000,3.1304187774658203,-8.0145902633667,5.031414985656738,-0.0063883461989462376,-0.01996358297765255,0.005057440605014563
17860344673137,3.1447839736938477,-8.012195587158203,4.999093055725098,-0.0063883461989462376,-0.02315775491297245,0.00931633822619915
17860345910262,3.137601375579834,-8.008605003356934,5.017049789428711,-0.0063883461989462376,-0.0252872034907341,0.008783976547420025
17860347147400,3.1663317680358887,-8.036138534545898,5.015852451324463,-0.0053236219100654125,-0.0220930315554142,0.008251613937318325
17860348384537,3.159149169921875,-7.999027729034424,5.033809185028076,-0.0042588976211845875,-0.0223592109978199,0.0053236219100654125
17860349621675,3.112462282180786,-7.966706275939941,5.020640850067139,-0.0066545275039970875,-0.0215606689453125,0.005057440605014563
17860350858812,3.1028854846954346,-7.988254070281982,4.99550199508667,-0.0037265352439135313,-0.02022976242005825,0.00452507846057415
17860352095950,3.136404275894165,-8.008605003356934,5.052962779998779,-0.005057440605014563,-0.01836649514734745,0.0
17860353333075,3.1244332790374756,-8.010998725891113,4.985925197601318,-0.0066545275039970875,-0.02262539230287075,-0.0005323622026480734
17860354570200,3.092111587524414,-7.996633529663086,5.007472991943359,-0.0066545275039970875,-0.0215606689453125,0.0031941730994731188
17860355807325,3.0777463912963867,-7.99184513092041,5.013458251953125,-0.0042588976211845875,-0.01943122036755085,0.0013309054775163531
17860357044475,3.093308687210083,-8.003816604614258,5.014655590057373,-0.0071868896484375,-0.0167694091796875,0.004791259765625
17860358281612,3.1256303787231445,-8.038532257080078,5.007472991943359,-0.005589802749454975,-0.0210283063352108,0.010647243820130825
17860359518712,3.1100680828094482,-8.027758598327637,5.0266265869140625,-0.0029279920272529125,-0.01836649514734745,0.0002661811013240367
17860360755875,3.093308687210083,-8.003816604614258,5.027823448181152,-0.0015970865497365594,-0.02076212503015995,0.0018632676219567657
17860361993000,3.1423897743225098,-7.994239330291748,5.0266265869140625,-0.0007985432748682797,-0.0228915736079216,0.0021294488105922937
17860363230112,3.134010076522827,-7.981071472167969,5.007472991943359,-0.00692070834338665,-0.01996358297765255,-0.0018632676219567657
17860364467250,3.09689998626709,-7.99184513092041,5.049371242523193,-0.005057440605014563,-0.01943122036755085,-0.0037265352439135313
17860365704400,3.1088709831237793,-8.010998725891113,5.035006046295166,-0.007453070487827063,-0.02076212503015995,-0.0007985432748682797
17860366941537,3.0861260890960693,-8.020575523376465,4.981136798858643,-0.00452507846057415,-0.01357523538172245,-0.0010647244052961469
17860368178662,3.092111587524414,-7.977479934692383,5.054159641265869,-0.0042588976211845875,-0.014906140975654125,0.0007985432748682797
17860369415800,3.1064767837524414,-8.015787124633789,5.014655590057373,-0.0007985432748682797,-0.01357523538172245,-0.00452507846057415
17860370652937,3.111265182495117,-7.99184513092041,5.032611846923828,-0.0026618109550327063,-0.01410759799182415,-0.003460354171693325
17860371890062,3.139995574951172,-7.961917877197266,5.013458251953125,-0.005589802749454975,-0.0196974016726017,0.0023956298828125
17860373127187,3.0765492916107178,-8.000225067138672,5.0014872550964355,-0.0021294488105922937,-0.01783413253724575,0.0013309054775163531
17860374364325,3.136404275894165,-7.987056732177734,5.002684593200684,-0.0021294488105922937,-0.0210283063352108,-0.0007985432748682797
17860375601450,3.1064767837524414,-7.981071472167969,5.04099178314209,0.0010647244052961469,-0.0210283063352108,-0.0013309054775163531
17860376838575,3.092111587524414,-7.977479934692383,5.020640850067139,0.0015970865497365594,-0.01357523538172245,0.0042588976211845875
17860378075725,3.111265182495117,-7.982268333435059,4.975151062011719,0.0018632676219567657,-0.013042873702943325,-0.0013309054775163531
17860379312850,3.070563793182373,-7.931990146636963,5.012261390686035,0.0018632676219567657,-0.015172322280704975,0.0013309054775163531
17860380549987,3.141192674636841,-7.924807548522949,5.017049789428711,0.0002661811013240367,-0.013042873702943325,0.0007985432748682797
17860381787137,3.094505786895752,-7.951143741607666,5.002684593200684,0.0,-0.015438503585755825,0.0002661811013240367
17860383024262,3.0813376903533936,-7.961917877197266,5.027823448181152,-0.0031941730994731188,-0.013042873702943325,0.0015970865497365594
17860384261400,3.1028854846954346,-7.952341079711914,4.969165802001953,0.0013309054775163531,-0.012510511092841625,-0.0007985432748682797
17860385498512,3.0789434909820557,-7.952341079711914,5.017049789428711,0.004791259765625,-0.008517795242369175,0.0013309054775163531
17860386735650,3.071760892868042,-7.960720539093018,4.988319396972656,0.0053236219100654125,-0.005855984054505825,0.0018632676219567657
17860387972787,3.0837318897247314,-7.9631147384643555,4.99550199508667,0.0042588976211845875,-0.007453070487827063,0.0
17860389209925,3.1292216777801514,-7.955932140350342,5.000290393829346,0.0018632676219567657,-0.010381062515079975,-0.0010647244052961469
17860390447037,3.1052796840667725,-7.94635534286499,4.965574264526367,0.00692070834338665,-0.010381062515079975,0.0015970865497365594
17860391684175,3.136404275894165,-7.933187484741211,5.019443988800049,0.008783976547420025,-0.0066545275039970875,0.007453070487827063
17860392921325,3.090914487838745,-7.978677272796631,4.978742599487305,0.0066545275039970875,-0.0066545275039970875,0.0077192517928779125
17860394158437,3.1447839736938477,-7.970297336578369,4.978742599487305,0.010114881210029125,-0.0066545275039970875,0.0013309054775163531
17860395395575,3.135207176208496,-7.99064826965332,4.988319396972656,0.01117960549890995,-0.0090501569211483,0.0015970865497365594
17860396632725,3.092111587524414,-7.967903137207031,5.013458251953125,0.0066545275039970875,-0.00931633822619915,0.0031941730994731188
17860397869837,3.1232361793518066,-7.952341079711914,5.014655590057373,0.008517795242369175,-0.005589802749454975,0.0013309054775163531
17860399106987,3.098097085952759,-7.978677272796631,5.012261390686035,0.01171196810901165,-0.0071868896484375,-0.0007985432748682797
17860400344112,3.134010076522827,-7.994239330291748,5.017049789428711,0.0026618109550327063,-0.0071868896484375,0.0005323622026480734
17860401581250,3.135207176208496,-8.019378662109375,5.043385982513428,0.00692070834338665,-0.00958251953125,0.0002661811013240367
17860402818387,3.1028854846954346,-7.994239330291748,5.0014872550964355,0.010913425125181675,-0.0066545275039970875,0.0023956298828125
17860404055500,3.1052796840667725,-7.997830867767334,5.043385982513428,0.01224433071911335,-0.0031941730994731188,-0.0021294488105922937
17860405292637,3.0849289894104004,-7.977479934692383,4.997896194458008,0.0042588976211845875,-0.0053236219100654125,0.0023956298828125
17860406529762,3.1471781730651855,-8.039729118347168,5.015852451324463,0.007985432632267475,-0.005589802749454975,0.005855984054505825
17860407766925,3.1088709831237793,-8.039729118347168,5.0254292488098145,0.0071868896484375,-0.0053236219100654125,-0.003460354171693325
17860409004037,3.1495723724365234,-8.04810905456543,5.012261390686035,0.0119781494140625,-0.0015970865497365594,-0.005589802749454975
17860410241175,3.09689998626709,-8.044517517089844,4.991910457611084,0.005855984054505825,-0.0018632676219567657,-0.0031941730994731188
17860411478312,3.1268274784088135,-8.072051048278809,5.008669853210449,0.006122165359556675,0.0002661811013240367,-0.0013309054775163531
17860412715462,3.1196448802948,-8.075642585754395,5.0290207862854,0.0031941730994731188,0.005589802749454975,-0.00692070834338665
17860413952575,3.075352191925049,-8.04571533203125,5.0266265869140625,0.0063883461989462376,0.0010647244052961469,-0.0010647244052961469
17860415189700,3.1064767837524414,-8.04810905456543,5.060145378112793,0.005589802749454975,-0.0021294488105922937,-0.0010647244052961469
17860416426837,3.1088709831237793,-8.08043098449707,5.0469770431518555,0.008783976547420025,0.0037265352439135313,-0.0007985432748682797
17860417663975,3.1016883850097656,-8.118738174438477,5.013458251953125,0.010381062515079975,0.005855984054505825,-0.0023956298828125
17860418901100,3.1196448802948,-8.04930591583252,5.04099178314209,0.0042588976211845875,0.0053236219100654125,-0.0029279920272529125
17860420138250,3.0813376903533936,-8.060080528259277,5.003881454467773,0.006122165359556675,0.003460354171693325,-0.004791259765625
17860421375375,3.1076738834381104,-8.060080528259277,5.0469770431518555,0.004791259765625,0.0029279920272529125,0.0
17860422612500,3.1435868740081787,-8.088810920715332,5.035006046295166,0.005057440605014563,0.0039927163161337376,-0.0023956298828125
17860423849637,3.1507694721221924,-8.061277389526367,4.988319396972656,0.006122165359556675,0.005057440605014563,0.0005323622026480734
17860425086750,3.134010076522827,-8.031350135803223,5.000290393829346,0.007453070487827063,0.0007985432748682797,-0.0026618109550327063
17860426323912,3.1471781730651855,-8.066065788269043,5.039794445037842,0.00931633822619915,-0.0013309054775163531,0.0021294488105922937
17860427561037,3.156754970550537,-8.001421928405762,5.012261390686035,0.006122165359556675,0.0029279920272529125,0.0
17860428798162,3.1459810733795166,-8.020575523376465,5.0050787925720215,0.005057440605014563,0.004791259765625,0.0010647244052961469
17860430035300,3.183091163635254,-7.997830867767334,5.007472991943359,0.00692070834338665,0.01171196810901165,0.0013309054775163531
17860431272425,3.1675288677215576,-7.9858598709106445,4.98472785949707,0.0053236219100654125,0.0023956298828125,0.0031941730994731188
17860432509562,3.19865345954895,-8.038532257080078,5.038597583770752,0.004791259765625,0.0,-0.0029279920272529125
17860433746700,3.180696964263916,-8.034940719604492,5.039794445037842,0.00692070834338665,0.0029279920272529125,0.0015970865497365594
17860434983837,3.207033157348633,-8.019378662109375,4.99550199508667,0.008783976547420025,0.003460354171693325,0.0042588976211845875
17860436220950,3.181894063949585,-7.95832633972168,5.04099178314209,0.010913425125181675,0.0002661811013240367,0.0037265352439135313
17860437458100,3.19865345954895,-8.006210327148438,5.04099178314209,0.007453070487827063,0.0010647244052961469,0.006122165359556675
17860438695225,3.138798475265503,-8.027758598327637,5.03021764755249,0.005057440605014563,-0.0005323622026480734,0.0007985432748682797
17860439932375,3.160346269607544,-8.055292129516602,5.019443988800049,0.010381062515079975,0.0039927163161337376,0.0066545275039970875
17860441169500,3.161543369293213,-8.050503730773926,5.04099178314209,0.013042873702943325,-0.0007985432748682797,0.005855984054505825
17860442406625,3.137601375579834,-8.075642585754395,5.023035049438477,0.010381062515079975,0.0013309054775163531,0.0
17860443643750,3.1759085655212402,-8.08162784576416,5.015852451324463,0.012510511092841625,0.0031941730994731188,0.004791259765625
17860444880887,3.1675288677215576,-8.10317611694336,5.013458251953125,0.01224433071911335,0.003460354171693325,0.0007985432748682797
17860446118025,3.1076738834381104,-8.090007781982422,5.037400245666504,0.00692070834338665,0.0010647244052961469,0.005855984054505825
17860447355175,3.1519665718078613,-8.08162784576416,5.0254292488098145,0.00452507846057415,-0.0018632676219567657,0.00931633822619915
17860448592287,3.134010076522827,-8.124723434448242,4.9583916664123535,0.00958251953125,0.0029279920272529125,0.0063883461989462376
17860449829425,3.1447839736938477,-8.160636901855469,5.002684593200684,0.005589802749454975,0.0077192517928779125,0.005589802749454975
