timestamp_ns,accel_x,accel_y,accel_z,gyro_x,gyro_y,gyro_z
18562340948387,0.35075056552886963,-9.789891242980957,1.2617442607879639,-0.01756795309484005,0.0005323622026480734,0.0077192517928779125
18562342185562,0.3531447649002075,-9.756372451782227,1.2641384601593018,-0.010913425125181675,0.0037265352439135313,0.0037265352439135313
18562343422737,0.31842881441116333,-9.750386238098145,1.2186486721038818,-0.0162370465695858,-0.0037265352439135313,0.007453070487827063
18562344659900,0.33279404044151306,-9.764751434326172,1.2222399711608887,-0.0196974016726017,0.0010647244052961469,0.00931633822619915
18562345897087,0.37229835987091064,-9.792284965515137,1.236605167388916,-0.015172322280704975,0.0026618109550327063,0.00958251953125
18562347134237,0.3064578175544739,-9.738415718078613,1.258152961730957,-0.010913425125181675,0.0015970865497365594,0.005589802749454975
18562348371387,0.3208230435848236,-9.71926212310791,1.2210428714752197,-0.012776692397892475,0.0029279920272529125,0.0063883461989462376
18562349608575,0.3280056416988373,-9.767146110534668,1.2018892765045166,-0.0167694091796875,0.006122165359556675,0.00984870083630085
18562350845737,0.3842693865299225,-9.740809440612793,1.238999366760254,-0.0157046839594841,0.0077192517928779125,0.00958251953125
18562352082900,0.36152446269989014,-9.733627319335938,1.2294225692749023,-0.0119781494140625,-0.0007985432748682797,0.0119781494140625
18562353320075,0.3734954595565796,-9.749189376831055,1.2030863761901855,-0.010913425125181675,0.00452507846057415,0.01410759799182415
18562354557262,0.3555389642715454,-9.700108528137207,1.236605167388916,-0.00958251953125,0.0071868896484375,0.013042873702943325
18562355794412,0.32680854201316833,-9.731232643127441,1.1887211799621582,-0.0077192517928779125,0.0015970865497365594,0.012776692397892475
18562357031575,0.37229835987091064,-9.774328231811523,1.1851298809051514,-0.010647243820130825,0.003460354171693325,0.014373779296875
18562358268750,0.35434186458587646,-9.774328231811523,1.2222399711608887,-0.00984870083630085,0.010114881210029125,0.012510511092841625
18562359505900,0.36750996112823486,-9.77552604675293,1.2198457717895508,-0.0090501569211483,0.005855984054505825,0.014906140975654125
18562360743075,0.35913026332855225,-9.785102844238281,1.259350061416626,-0.010913425125181675,0.0042588976211845875,0.01357523538172245
18562361980250,0.3519476652145386,-9.792284965515137,1.2234370708465576,-0.0114457868039608,0.0114457868039608,0.008517795242369175
18562363217400,0.3711012601852417,-9.78869342803955,1.2234370708465576,-0.0114457868039608,0.0063883461989462376,0.014906140975654125
18562364454562,0.35913026332855225,-9.771934509277344,1.2186486721038818,-0.01224433071911335,0.008251613937318325,0.0119781494140625
18562365691762,0.3734954595565796,-9.792284965515137,1.1887211799621582,-0.012776692397892475,0.0066545275039970875,0.015438503585755825
18562366928912,0.36152446269989014,-9.787496566772461,1.2509703636169434,-0.010381062515079975,0.0031941730994731188,0.0181003138422966
18562368166075,0.3280056416988373,-9.804256439208984,1.2186486721038818,-0.006122165359556675,0.010647243820130825,0.015172322280704975
18562369403262,0.3280056416988373,-9.764751434326172,1.2186486721038818,-0.00692070834338665,0.00984870083630085,0.01650322787463665
18562370640425,0.3711012601852417,-9.761160850524902,1.2545616626739502,-0.008517795242369175,0.008783976547420025,0.0162370465695858
18562371877575,0.3315969407558441,-9.770737648010254,1.2868834733963013,-0.0071868896484375,0.004791259765625,0.01463996060192585
18562373114737,0.33758243918418884,-9.797073364257812,1.2270283699035645,-0.008251613937318325,0.01117960549890995,0.013042873702943325
18562374351912,0.3663128614425659,-9.795876502990723,1.2246341705322266,-0.0071868896484375,0.00958251953125,0.0162370465695858
18562375589075,0.4141969084739685,-9.77672290802002,1.2485761642456055,-0.0071868896484375,0.013309055007994175,0.013309055007994175
18562376826262,0.36990416049957275,-9.770737648010254,1.2545616626739502,-0.0066545275039970875,0.0138414166867733,0.015438503585755825
18562378063412,0.36152446269989014,-9.744400978088379,1.2437877655029297,-0.0029279920272529125,0.00931633822619915,0.01597086526453495
18562379300612,0.3663128614425659,-9.745597839355469,1.2318167686462402,-0.0015970865497365594,0.010114881210029125,0.012510511092841625
18562380537762,0.36152446269989014,-9.713275909423828,1.237802267074585,-0.0026618109550327063,0.0173017717897892,0.01357523538172245
18562381774937,0.3734954595565796,-9.714473724365234,1.215057373046875,0.0013309054775163531,0.015438503585755825,0.0114457868039608
18562383012087,0.38546648621559143,-9.713275909423828,1.216254472732544,-0.005057440605014563,0.00958251953125,0.0157046839594841
18562384249262,0.36152446269989014,-9.728838920593262,1.260547161102295,-0.0029279920272529125,0.01117960549890995,0.015172322280704975
18562385486425,0.3794809579849243,-9.733627319335938,1.2222399711608887,0.0021294488105922937,0.01171196810901165,0.0173017717897892
18562386723587,0.35913026332855225,-9.684545516967773,1.2054805755615234,0.0015970865497365594,0.010913425125181675,0.0210283063352108
18562387960750,0.36750996112823486,-9.696516990661621,1.2306196689605713,0.0005323622026480734,0.00931633822619915,0.0167694091796875
18562389197925,0.3555389642715454,-9.716867446899414,1.2210428714752197,0.0010647244052961469,0.010913425125181675,0.01650322787463665
18562390435100,0.33997663855552673,-9.718064308166504,1.2629413604736328,0.0023956298828125,0.0119781494140625,0.01650322787463665
18562391672275,0.33039984107017517,-9.736021041870117,1.2342109680175781,0.0023956298828125,0.01357523538172245,0.012776692397892475
18562392909450,0.36152446269989014,-9.730035781860352,1.2401964664459229,0.0029279920272529125,0.01889885775744915,0.0138414166867733
18562394146600,0.40940847992897034,-9.727641105651855,1.1994950771331787,0.007985432632267475,0.0162370465695858,0.01224433071911335
18562395383775,0.3423708379268646,-9.713275909423828,1.237802267074585,0.0031941730994731188,0.0191650390625,0.01410759799182415
18562396620925,0.3315969407558441,-9.739612579345703,1.2210428714752197,0.006122165359556675,0.01650322787463665,0.01756795309484005
18562397858100,0.3172317147254944,-9.761160850524902,1.238999366760254,0.005855984054505825,0.01650322787463665,0.01756795309484005
18562399095262,0.3555389642715454,-9.774328231811523,1.194706678390503,0.004791259765625,0.0138414166867733,0.01597086526453495
18562400332450,0.35434186458587646,-9.740809440612793,1.2018892765045166,0.005855984054505825,0.01117960549890995,0.0167694091796875
18562401569612,0.37229835987091064,-9.783905029296875,1.2198457717895508,0.010114881210029125,0.01463996060192585,0.02262539230287075
18562402806787,0.3663128614425659,-9.830592155456543,1.2294225692749023,0.010114881210029125,0.01171196810901165,0.0204959437251091
18562404043950,0.3387795388698578,-9.822212219238281,1.2258312702178955,0.005057440605014563,0.01756795309484005,0.0223592109978199
18562405281087,0.3256114423274994,-9.77791976928711,1.2485761642456055,0.007453070487827063,0.01703559048473835,0.0228915736079216
18562406518287,0.3603273630142212,-9.815030097961426,1.2665326595306396,0.007453070487827063,0.0138414166867733,0.02129448764026165
18562407755437,0.35075056552886963,-9.782708168029785,1.235408067703247,0.00692070834338665,0.01410759799182415,0.01756795309484005
18562408992600,0.2849099934101105,-9.780314445495605,1.2222399711608887,0.00452507846057415,0.01597086526453495,0.0162370465695858
18562410229787,0.3292027413845062,-9.757569313049316,1.2713210582733154,0.0021294488105922937,0.01836649514734745,0.01703559048473835
18562411466937,0.3663128614425659,-9.77552604675293,1.2342109680175781,0.007453070487827063,0.0191650390625,0.0186326764523983
18562412704112,0.34356793761253357,-9.773131370544434,1.2964602708816528,0.0077192517928779125,0.015172322280704975,0.02502102218568325
18562413941287,0.3232172429561615,-9.803058624267578,1.291671872138977,0.007985432632267475,0.013309055007994175,0.02555338479578495
18562415178437,0.32202014327049255,-9.714473724365234,1.2641384601593018,0.005855984054505825,0.01224433071911335,0.02129448764026165
18562416415625,0.3495534360408783,-9.757569313049316,1.2437877655029297,0.0039927163161337376,0.0167694091796875,0.02502102218568325
18562417652787,0.34356793761253357,-9.734824180603027,1.2270283699035645,0.0063883461989462376,0.0162370465695858,0.0282151959836483
18562418889950,0.3842693865299225,-9.739612579345703,1.2186486721038818,0.006122165359556675,0.01410759799182415,0.0268842913210392
18562420127125,0.34835633635520935,-9.746795654296875,1.2485761642456055,0.0090501569211483,0.0173017717897892,0.0234239362180233
18562421364287,0.3579331636428833,-9.715670585632324,1.2701239585876465,0.010114881210029125,0.01171196810901165,0.02555338479578495
18562422601450,0.3711012601852417,-9.710882186889648,1.2258312702178955,0.0071868896484375,0.01357523538172245,0.0263519287109375
18562423838625,0.3603273630142212,-9.763554573059082,1.2473790645599365,0.010381062515079975,0.0157046839594841,0.0324740931391716
18562425075800,0.3124433159828186,-9.740809440612793,1.2342109680175781,0.0077192517928779125,0.01463996060192585,0.0327402763068676
18562426312950,0.35673606395721436,-9.758766174316406,1.238999366760254,0.00958251953125,0.014373779296875,0.0306108258664608
18562427550125,0.3280056416988373,-9.786299705505371,1.2509703636169434,0.014373779296875,0.015438503585755825,0.0322079136967659
18562428787300,0.30885201692581177,-9.81024169921875,1.2701239585876465,0.00984870083630085,0.01357523538172245,0.0324740931391716
18562430024450,0.2992752194404602,-9.835380554199219,1.2294225692749023,0.01463996060192585,0.01463996060192585,0.0311431884765625
18562431261625,0.31603461503982544,-9.824606895446777,1.2497732639312744,0.012776692397892475,0.0063883461989462376,0.0306108258664608
18562432498800,0.3280056416988373,-9.849745750427246,1.235408067703247,0.008517795242369175,0.01357523538172245,0.0324740931391716
18562433735975,0.31842881441116333,-9.84376049041748,1.259350061416626,0.010381062515079975,0.01463996060192585,0.0364668108522892
18562434973137,0.27413609623908997,-9.882067680358887,1.2437877655029297,0.0053236219100654125,0.015172322280704975,0.02848137728869915
18562436210300,0.2861070930957794,-9.86889934539795,1.1982979774475098,0.007453070487827063,0.014373779296875,0.0271504707634449
18562437447462,0.28371289372444153,-9.84256362915039,1.2629413604736328,0.0066545275039970875,0.0071868896484375,0.02901373989880085
18562438684637,0.2992752194404602,-9.90361499786377,1.2461819648742676,0.0015970865497365594,0.00931633822619915,0.02901373989880085
18562439921812,0.2968810200691223,-9.897629737854004,1.2401964664459229,-0.0002661811013240367,0.015438503585755825,0.02981228195130825
18562441158975,0.30286651849746704,-9.858125686645508,1.236605167388916,0.0021294488105922937,0.014373779296875,0.0196974016726017
18562442396125,0.2932897210121155,-9.870096206665039,1.2497732639312744,0.0029279920272529125,0.013042873702943325,0.02502102218568325
18562443633312,0.29568392038345337,-9.910798072814941,1.258152961730957,0.0023956298828125,0.015172322280704975,0.0343373604118824
18562444870487,0.2717418968677521,-9.885659217834473,1.2713210582733154,0.00692070834338665,0.008783976547420025,0.0295461006462574
18562446107625,0.2944868206977844,-9.874884605407715,1.2617442607879639,0.0013309054775163531,0.010381062515079975,0.0314093679189682
18562447344825,0.27892449498176575,-9.909601211547852,1.2713210582733154,-0.0018632676219567657,0.01357523538172245,0.0282151959836483
18562448581962,0.27653029561042786,-9.873687744140625,1.2773066759109497,-0.0018632676219567657,0.01171196810901165,0.02555338479578495
18562449819150,0.29209262132644653,-9.832986831665039,1.2617442607879639,-0.0023956298828125,0.0173017717897892,0.03087700717151165
18562451056325,0.27892449498176575,-9.86650562286377,1.2761094570159912,-0.0026618109550327063,0.012510511092841625,0.0276828333735466
18562452293475,0.25498247146606445,-9.819818496704102,1.2054805755615234,0.0023956298828125,0.01117960549890995,0.02022976242005825
18562453530650,0.272938996553421,-9.888052940368652,1.2234370708465576,0.0005323622026480734,0.012776692397892475,0.0263519287109375
18562454767825,0.26336219906806946,-9.86889934539795,1.2497732639312744,-0.0021294488105922937,0.015172322280704975,0.02848137728869915
18562456004987,0.22864626348018646,-9.847352027893066,1.2234370708465576,-0.0053236219100654125,0.0157046839594841,0.02555338479578495
18562457242162,0.2621650993824005,-9.870096206665039,1.1959037780761719,-0.005057440605014563,0.01463996060192585,0.02555338479578495
18562458479312,0.243011474609375,-9.848548889160156,1.2485761642456055,-0.005057440605014563,0.0173017717897892,0.0196974016726017
18562459716475,0.272938996553421,-9.852140426635742,1.2557587623596191,-0.0063883461989462376,0.01357523538172245,0.0258195661008358
18562460953650,0.23822307586669922,-9.888052940368652,1.2114660739898682,-0.003460354171693325,0.0162370465695858,0.02608574740588665
18562462190825,0.26096799969673157,-9.8784761428833,1.1863269805908203,-0.0042588976211845875,0.0162370465695858,0.02502102218568325
18562463427987,0.27413609623908997,-9.823410034179688,1.1755530834197998,-0.00984870083630085,0.02076212503015995,0.02022976242005825
18562464665162,0.28730419278144836,-9.81263542175293,1.2258312702178955,-0.0053236219100654125,0.015438503585755825,0.0167694091796875
18562465902337,0.27892449498176575,-9.848548889160156,1.256955862045288,-0.00452507846057415,0.01650322787463665,0.0204959437251091
18562467139487,0.23702597618103027,-9.849745750427246,1.1994950771331787,-0.0039927163161337376,0.0167694091796875,0.0220930315554142
18562468376662,0.2777273952960968,-9.822212219238281,1.2401964664459229,-0.01171196810901165,0.01650322787463665,0.0223592109978199
18562469613825,0.28371289372444153,-9.77672290802002,1.2521674633026123,-0.0090501569211483,0.02022976242005825,0.0220930315554142
18562470850987,0.2693476974964142,-9.837775230407715,1.2198457717895508,-0.0071868896484375,0.0181003138422966,0.0191650390625
18562472088175,0.2968810200691223,-9.803058624267578,1.2282254695892334,-0.0090501569211483,0.013042873702943325,0.02315775491297245
18562473325337,0.31364041566848755,-9.819818496704102,1.2246341705322266,-0.013042873702943325,0.0157046839594841,0.02502102218568325
18562474562500,0.304063618183136,-9.786299705505371,1.237802267074585,-0.008517795242369175,0.0173017717897892,0.01889885775744915
18562475799650,0.26815059781074524,-9.805453300476074,1.2210428714752197,-0.008783976547420025,0.0138414166867733,0.01783413253724575
18562477036825,0.2717418968677521,-9.781511306762695,1.191115379333496,-0.00984870083630085,0.01597086526453495,0.0162370465695858
18562478274012,0.2597709000110626,-9.759963035583496,1.2078747749328613,-0.01171196810901165,0.01463996060192585,0.0196974016726017
18562479511175,0.2849099934101105,-9.757569313049316,1.191115379333496,-0.010114881210029125,0.02182685025036335,0.01756795309484005
18562480748337,0.3172317147254944,-9.75397777557373,1.215057373046875,-0.010114881210029125,0.0204959437251091,0.010913425125181675
18562481985500,0.2537853717803955,-9.759963035583496,1.2270283699035645,-0.01597086526453495,0.0186326764523983,0.01463996060192585
18562483222662,0.243011474609375,-9.770737648010254,1.2677297592163086,-0.01650322787463665,0.0196974016726017,0.01597086526453495
18562484459850,0.2597709000110626,-9.738415718078613,1.2425906658172607,-0.0114457868039608,0.0191650390625,0.01703559048473835
18562485696987,0.2585738003253937,-9.745597839355469,1.2258312702178955,-0.0071868896484375,0.01943122036755085,0.010913425125181675
18562486934162,0.2801215946674347,-9.740809440612793,1.216254472732544,-0.00931633822619915,0.01783413253724575,0.0119781494140625
18562488171350,0.30885201692581177,-9.713275909423828,1.2222399711608887,-0.008251613937318325,0.0173017717897892,0.015438503585755825
18562489408512,0.304063618183136,-9.77552604675293,1.2270283699035645,-0.01224433071911335,0.0173017717897892,0.010114881210029125
18562490645675,0.28730419278144836,-9.747992515563965,1.2210428714752197,-0.00958251953125,0.015172322280704975,0.01117960549890995
18562491882837,0.2861070930957794,-9.757569313049316,1.2246341705322266,-0.012510511092841625,0.0181003138422966,0.006122165359556675
18562493120012,0.30885201692581177,-9.750386238098145,1.1767501831054688,-0.00958251953125,0.0181003138422966,0.004791259765625
18562494357200,0.3423708379268646,-9.767146110534668,1.191115379333496,-0.01224433071911335,0.01943122036755085,0.00931633822619915
18562495594350,0.32202014327049255,-9.770737648010254,1.2294225692749023,-0.00984870083630085,0.0162370465695858,0.0119781494140625
18562496831525,0.2801215946674347,-9.77791976928711,1.2210428714752197,-0.008251613937318325,0.0167694091796875,0.00931633822619915
18562498068700,0.3232172429561615,-9.770737648010254,1.212663173675537,-0.0114457868039608,0.0162370465695858,0.00452507846057415
18562499305850,0.28969842195510864,-9.77791976928711,1.2042834758758545,-0.007985432632267475,0.0191650390625,0.0018632676219567657
18562500543025,0.28730419278144836,-9.732430458068848,1.217451572418213,-0.008517795242369175,0.01943122036755085,-0.0013309054775163531
18562501780175,0.30286651849746704,-9.767146110534668,1.258152961730957,-0.00931633822619915,0.0181003138422966,-0.0010647244052961469
18562503017362,0.34356793761253357,-9.77672290802002,1.2497732639312744,-0.008783976547420025,0.0173017717897892,0.0013309054775163531
18562504254525,0.31603461503982544,-9.807847023010254,1.2114660739898682,-0.00692070834338665,0.014373779296875,-0.0007985432748682797
18562505491700,0.34356793761253357,-9.740809440612793,1.2521674633026123,-0.0090501569211483,0.01783413253724575,-0.00452507846057415
18562506728875,0.3471592366695404,-9.743204116821289,1.2294225692749023,-0.006122165359556675,0.01783413253724575,-0.00692070834338665
18562507966037,0.3292027413845062,-9.749189376831055,1.2808979749679565,-0.0039927163161337376,0.0173017717897892,-0.005589802749454975
18562509203200,0.33997663855552673,-9.704896926879883,1.2258312702178955,-0.007453070487827063,0.01889885775744915,-0.0063883461989462376
18562510440350,0.28730419278144836,-9.726444244384766,1.215057373046875,-0.0042588976211845875,0.0186326764523983,-0.005057440605014563
18562511677537,0.333991140127182,-9.734824180603027,1.2318167686462402,-0.0023956298828125,0.01756795309484005,-0.0063883461989462376
18562512914687,0.3256114423274994,-9.727641105651855,1.2713210582733154,-0.0026618109550327063,0.014906140975654125,-0.0114457868039608
18562514151875,0.3256114423274994,-9.738415718078613,1.1839327812194824,-0.003460354171693325,0.015172322280704975,-0.00692070834338665
18562515389025,0.31124621629714966,-9.724050521850586,1.2006921768188477,-0.0039927163161337376,0.01703559048473835,-0.00958251953125
18562516626212,0.35913026332855225,-9.75397777557373,1.1994950771331787,-0.0023956298828125,0.01783413253724575,-0.01597086526453495
18562517863375,0.3363853394985199,-9.743204116821289,1.1611878871917725,-0.0037265352439135313,0.015438503585755825,-0.01117960549890995
18562519100537,0.3531447649002075,-9.712079048156738,1.215057373046875,-0.0039927163161337376,0.0162370465695858,-0.0042588976211845875
18562520337700,0.3172317147254944,-9.694122314453125,1.2078747749328613,-0.0018632676219567657,0.01943122036755085,-0.0042588976211845875
18562521574862,0.32680854201316833,-9.77552604675293,1.1683704853057861,-0.006122165359556675,0.0157046839594841,-0.015438503585755825
18562522812025,0.3016694188117981,-9.75517463684082,1.2006921768188477,0.0013309054775163531,0.014373779296875,-0.01117960549890995
18562524049212,0.3292027413845062,-9.739612579345703,1.2042834758758545,0.0023956298828125,0.01783413253724575,-0.008251613937318325
18562525286375,0.3292027413845062,-9.732430458068848,1.2186486721038818,-0.0031941730994731188,0.02129448764026165,-0.01224433071911335
18562526523550,0.3363853394985199,-9.68694019317627,1.2342109680175781,0.0010647244052961469,0.02262539230287075,-0.01224433071911335
18562527760700,0.34596213698387146,-9.718064308166504,1.191115379333496,0.0042588976211845875,0.01943122036755085,-0.0119781494140625
18562528997887,0.36750996112823486,-9.743204116821289,1.1839327812194824,0.00931633822619915,0.0162370465695858,-0.007985432632267475
18562530235050,0.37469255924224854,-9.72165584564209,1.2018892765045166,0.0031941730994731188,0.01996358297765255,-0.0039927163161337376
18562531472225,0.3208230435848236,-9.77672290802002,1.173158884048462,0.003460354171693325,0.0196974016726017,-0.0039927163161337376
18562532709387,0.3531447649002075,-9.763554573059082,1.2270283699035645,0.0031941730994731188,0.01836649514734745,-0.005855984054505825
18562533946550,0.3603273630142212,-9.725247383117676,1.2042834758758545,0.0013309054775163531,0.01996358297765255,-0.008783976547420025
18562535183712,0.38546648621559143,-9.764751434326172,1.2282254695892334,0.0090501569211483,0.01597086526453495,-0.0053236219100654125
18562536420900,0.3292027413845062,-9.75517463684082,1.192312479019165,0.0042588976211845875,0.01650322787463665,-0.0021294488105922937
18562537658075,0.37229835987091064,-9.762357711791992,1.2198457717895508,0.006122165359556675,0.01703559048473835,0.0029279920272529125
18562538895200,0.3926490843296051,-9.789891242980957,1.192312479019165,0.0090501569211483,0.0162370465695858,0.0042588976211845875
18562540132362,0.38067808747291565,-9.77672290802002,1.2282254695892334,0.007453070487827063,0.012510511092841625,0.0029279920272529125
18562541369550,0.34835633635520935,-9.757569313049316,1.2222399711608887,0.005057440605014563,0.01889885775744915,-0.0039927163161337376
18562542606712,0.37229835987091064,-9.716867446899414,1.1767501831054688,0.00452507846057415,0.0204959437251091,-0.0021294488105922937
18562543843900,0.3447650372982025,-9.791088104248047,1.2114660739898682,0.0063883461989462376,0.0173017717897892,-0.0018632676219567657
18562545081062,0.3627215623855591,-9.770737648010254,1.1994950771331787,0.0021294488105922937,0.01650322787463665,-0.0029279920272529125
18562546318225,0.32680854201316833,-9.740809440612793,1.2246341705322266,0.008251613937318325,0.01463996060192585,-0.0026618109550327063
18562547555387,0.3663128614425659,-9.75517463684082,1.2401964664459229,0.01117960549890995,0.013309055007994175,0.0013309054775163531
18562548792562,0.3842693865299225,-9.770737648010254,1.2437877655029297,0.007985432632267475,0.01943122036755085,0.0066545275039970875
18562550029725,0.3256114423274994,-9.762357711791992,1.2222399711608887,0.003460354171693325,0.0162370465695858,0.004791259765625
18562551266900,0.3627215623855591,-9.800664901733398,1.1827356815338135,0.00931633822619915,0.0138414166867733,0.0071868896484375
18562552504075,0.39624038338661194,-9.799468040466309,1.1635820865631104,0.00958251953125,0.014906140975654125,0.010114881210029125
18562553741212,0.3794809579849243,-9.739612579345703,1.2018892765045166,0.0066545275039970875,0.014906140975654125,0.0066545275039970875
18562554978387,0.40462008118629456,-9.787496566772461,1.2114660739898682,0.0018632676219567657,0.0186326764523983,0.0010647244052961469
18562556215575,0.3603273630142212,-9.815030097961426,1.2030863761901855,0.0005323622026480734,0.01756795309484005,0.00984870083630085
18562557452725,0.3842693865299225,-9.827000617980957,1.1827356815338135,0.005855984054505825,0.007453070487827063,0.00984870083630085
18562558689912,0.3770867586135864,-9.801861763000488,1.2066776752471924,0.0071868896484375,0.010381062515079975,0.010913425125181675
18562559927050,0.3531447649002075,-9.745597839355469,1.2186486721038818,0.00692070834338665,0.01117960549890995,0.0119781494140625
18562561164250,0.33039984107017517,-9.768342971801758,1.2006921768188477,0.007985432632267475,0.014906140975654125,0.012776692397892475
18562562401400,0.3866635859012604,-9.785102844238281,1.217451572418213,0.00984870083630085,0.00958251953125,0.010913425125181675
18562563638575,0.3926490843296051,-9.800664901733398,1.1743559837341309,0.00984870083630085,0.012776692397892475,0.01171196810901165
18562564875750,0.36990416049957275,-9.781511306762695,1.2078747749328613,0.0029279920272529125,0.01117960549890995,0.014373779296875
18562566112912,0.39145198464393616,-9.832986831665039,1.2449848651885986,0.007985432632267475,0.01117960549890995,0.0196974016726017
18562567350075,0.3603273630142212,-9.819818496704102,1.194706678390503,0.00984870083630085,0.012510511092841625,0.0157046839594841
18562568587250,0.3447650372982025,-9.806650161743164,1.2222399711608887,0.0015970865497365594,0.013042873702943325,0.015172322280704975
18562569824425,0.36152446269989014,-9.781511306762695,1.2294225692749023,0.0023956298828125,0.005855984054505825,0.01889885775744915
18562571061587,0.3495534360408783,-9.785102844238281,1.216254472732544,0.0031941730994731188,0.00452507846057415,0.0167694091796875
18562572298750,0.34835633635520935,-9.819818496704102,1.2114660739898682,-0.0010647244052961469,0.0053236219100654125,0.02129448764026165
18562573535912,0.3256114423274994,-9.77672290802002,1.2413935661315918,0.0005323622026480734,0.00984870083630085,0.0204959437251091
18562574773087,0.3627215623855591,-9.825803756713867,1.212663173675537,0.0026618109550327063,0.010381062515079975,0.01889885775744915
18562576010250,0.32680854201316833,-9.800664901733398,1.2042834758758545,0.0039927163161337376,0.00931633822619915,0.02262539230287075
18562577247412,0.32680854201316833,-9.815030097961426,1.1994950771331787,0.0,0.004791259765625,0.015172322280704975
18562578484587,0.3603273630142212,-9.780314445495605,1.2246341705322266,0.0,0.00692070834338665,0.02076212503015995
18562579721775,0.3603273630142212,-9.823410034179688,1.2270283699035645,0.0013309054775163531,0.007985432632267475,0.0215606689453125
18562580958925,0.35075056552886963,-9.763554573059082,1.2198457717895508,0.0042588976211845875,0.008251613937318325,0.0191650390625
18562582196100,0.3447650372982025,-9.791088104248047,1.193509578704834,0.0010647244052961469,0.008251613937318325,0.0167694091796875
18562583433262,0.3687070608139038,-9.794679641723633,1.2054805755615234,0.0002661811013240367,0.0063883461989462376,0.015438503585755825
18562584670412,0.3627215623855591,-9.785102844238281,1.2629413604736328,0.0031941730994731188,0.005589802749454975,0.01836649514734745
18562585907600,0.3256114423274994,-9.840168952941895,1.2641384601593018,0.003460354171693325,0.0039927163161337376,0.0186326764523983
18562587144750,0.3148375153541565,-9.791088104248047,1.2198457717895508,0.0039927163161337376,0.005057440605014563,0.01597086526453495
18562588381937,0.3148375153541565,-9.792284965515137,1.235408067703247,0.0010647244052961469,0.005589802749454975,0.015172322280704975
18562589619125,0.3100491166114807,-9.745597839355469,1.2210428714752197,0.0002661811013240367,0.0021294488105922937,0.0181003138422966
18562590856275,0.33758243918418884,-9.734824180603027,1.2401964664459229,0.0018632676219567657,0.0037265352439135313,0.0196974016726017
18562592093450,0.32680854201316833,-9.758766174316406,1.2497732639312744,0.005589802749454975,-0.0018632676219567657,0.02076212503015995
18562593330612,0.3100491166114807,-9.757569313049316,1.2413935661315918,0.0002661811013240367,0.003460354171693325,0.01703559048473835
18562594567762,0.3256114423274994,-9.750386238098145,1.2533645629882812,0.0023956298828125,0.004791259765625,0.015172322280704975
18562595804937,0.34356793761253357,-9.793481826782227,1.2246341705322266,0.0042588976211845875,0.01224433071911335,0.014906140975654125
18562597042100,0.31962594389915466,-9.80904483795166,1.2521674633026123,0.0053236219100654125,0.0066545275039970875,0.01650322787463665
18562598279287,0.29807811975479126,-9.789891242980957,1.258152961730957,0.008517795242369175,0.00692070834338665,0.015172322280704975
18562599516437,0.35673606395721436,-9.763554573059082,1.256955862045288,0.008517795242369175,0.006122165359556675,0.01463996060192585
18562600753637,0.31603461503982544,-9.774328231811523,1.2509703636169434,0.006122165359556675,0.0002661811013240367,0.0167694091796875
18562601990787,0.2669534981250763,-9.769539833068848,1.212663173675537,0.0023956298828125,0.0077192517928779125,0.012510511092841625
18562603227950,0.2669534981250763,-9.769539833068848,1.2282254695892334,0.0042588976211845875,0.0077192517928779125,0.010913425125181675
18562604465112,0.29568392038345337,-9.756372451782227,1.2425906658172607,0.0066545275039970875,0.006122165359556675,0.01463996060192585
18562605702287,0.3100491166114807,-9.818621635437012,1.258152961730957,0.0053236219100654125,0.0026618109550327063,0.01703559048473835
18562606939437,0.29568392038345337,-9.799468040466309,1.2102689743041992,0.004791259765625,-0.0021294488105922937,0.01836649514734745
18562608176612,0.29807811975479126,-9.756372451782227,1.2210428714752197,0.006122165359556675,0.0005323622026480734,0.01703559048473835
18562609413787,0.2944868206977844,-9.806650161743164,1.2641384601593018,0.010913425125181675,0.0037265352439135313,0.013309055007994175
18562610650962,0.2861070930957794,-9.787496566772461,1.2425906658172607,0.0119781494140625,0.0007985432748682797,0.01703559048473835
18562611888125,0.2992752194404602,-9.75278091430664,1.2282254695892334,0.0066545275039970875,0.0053236219100654125,0.0186326764523983
18562613125300,0.31124621629714966,-9.736021041870117,1.235408067703247,0.0090501569211483,0.0037265352439135313,0.01463996060192585
18562614362450,0.3148375153541565,-9.747992515563965,1.2401964664459229,0.00931633822619915,0.0026618109550327063,0.008783976547420025
18562615599625,0.2968810200691223,-9.727641105651855,1.2030863761901855,0.0138414166867733,0.0037265352439135313,0.010913425125181675
18562616836812,0.3100491166114807,-9.78869342803955,1.2306196689605713,0.0119781494140625,0.0037265352439135313,0.01889885775744915
18562618073962,0.28371289372444153,-9.795876502990723,1.2461819648742676,0.008517795242369175,0.0018632676219567657,0.01996358297765255
18562619311137,0.31364041566848755,-9.774328231811523,1.2713210582733154,0.008517795242369175,0.0037265352439135313,0.0186326764523983
18562620548300,0.30286651849746704,-9.744400978088379,1.2114660739898682,0.008517795242369175,0.0071868896484375,0.0090501569211483
18562621785475,0.32680854201316833,-9.762357711791992,1.2820950746536255,0.010381062515079975,0.0007985432748682797,0.0114457868039608
18562623022650,0.304063618183136,-9.764751434326172,1.2198457717895508,0.01117960549890995,-0.0010647244052961469,0.0157046839594841
18562624259787,0.31603461503982544,-9.747992515563965,1.2114660739898682,0.0119781494140625,0.0039927163161337376,0.0167694091796875
18562625496987,0.2968810200691223,-9.740809440612793,1.2653355598449707,0.012776692397892475,0.0007985432748682797,0.015438503585755825
18562626734150,0.29807811975479126,-9.78869342803955,1.2318167686462402,0.0066545275039970875,0.0021294488105922937,0.0173017717897892
18562627971312,0.2801215946674347,-9.77672290802002,1.2437877655029297,0.005057440605014563,0.0053236219100654125,0.0196974016726017
18562629208475,0.2992752194404602,-9.7791166305542,1.2198457717895508,0.008783976547420025,0.008251613937318325,0.01889885775744915
18562630445637,0.2561795711517334,-9.785102844238281,1.2533645629882812,0.008783976547420025,0.007985432632267475,0.01836649514734745
18562631682812,0.26096799969673157,-9.793481826782227,1.2102689743041992,0.004791259765625,0.0037265352439135313,0.01703559048473835
18562632919987,0.26336219906806946,-9.831789016723633,1.2342109680175781,0.0042588976211845875,0.005589802749454975,0.015438503585755825
18562634157162,0.2645592987537384,-9.807847023010254,1.237802267074585,0.008251613937318325,0.006122165359556675,0.0181003138422966
18562635394325,0.29568392038345337,-9.813833236694336,1.258152961730957,0.01171196810901165,0.0063883461989462376,0.01597086526453495
18562636631487,0.28371289372444153,-9.817423820495605,1.236605167388916,0.012776692397892475,0.0037265352439135313,0.0114457868039608
18562637868650,0.2717418968677521,-9.818621635437012,1.217451572418213,0.007985432632267475,0.005855984054505825,0.01836649514734745
18562639105825,0.28131869435310364,-9.864110946655273,1.1971008777618408,0.010381062515079975,0.0026618109550327063,0.02022976242005825
18562640343000,0.29568392038345337,-9.847352027893066,1.1971008777618408,0.013042873702943325,0.0021294488105922937,0.01943122036755085
18562641580175,0.25019407272338867,-9.895236015319824,1.1827356815338135,0.012510511092841625,0.00692070834338665,0.01756795309484005
18562642817337,0.19871874153614044,-9.853337287902832,1.2186486721038818,0.013042873702943325,0.00692070834338665,0.0167694091796875
18562644054500,0.2585738003253937,-9.871294021606445,1.256955862045288,0.006122165359556675,0.00958251953125,0.01756795309484005
18562645291662,0.27653029561042786,-9.886856079101562,1.2497732639312744,0.004791259765625,0.008517795242369175,0.02369011752307415
18562646528862,0.2322375625371933,-9.872490882873535,1.2186486721038818,0.008783976547420025,0.0021294488105922937,0.0247548408806324
18562647766012,0.2561795711517334,-9.871294021606445,1.2713210582733154,0.00692070834338665,0.0026618109550327063,0.0300784632563591
18562649003162,0.26096799969673157,-9.818621635437012,1.2509703636169434,0.006122165359556675,0.008783976547420025,0.02502102218568325
18562650240337,0.243011474609375,-9.870096206665039,1.2318167686462402,0.008783976547420025,0.014373779296875,0.02369011752307415
18562651477500,0.27892449498176575,-9.86889934539795,1.236605167388916,0.007453070487827063,0.008251613937318325,0.0204959437251091
18562652714662,0.2849099934101105,-9.862914085388184,1.2413935661315918,0.00692070834338665,0.0031941730994731188,0.02315775491297245
18562653951837,0.2777273952960968,-9.84376049041748,1.2270283699035645,0.005057440605014563,0.006122165359556675,0.02874755859375
18562655189025,0.2597709000110626,-9.806650161743164,1.2425906658172607,0.0023956298828125,0.0119781494140625,0.02502102218568325
18562656426175,0.24899697303771973,-9.836577415466309,1.2186486721038818,0.005589802749454975,0.0114457868039608,0.02555338479578495
18562657663325,0.26336219906806946,-9.871294021606445,1.2473790645599365,0.005589802749454975,0.007453070487827063,0.02502102218568325
18562658900500,0.24899697303771973,-9.816226959228516,1.2629413604736328,0.00452507846057415,0.007453070487827063,0.02874755859375
18562660137687,0.25019407272338867,-9.81263542175293,1.236605167388916,0.0023956298828125,0.0071868896484375,0.0300784632563591
18562661374850,0.2346317619085312,-9.816226959228516,1.2413935661315918,-0.0026618109550327063,0.005855984054505825,0.02315775491297245
18562662612025,0.2621650993824005,-9.816226959228516,1.256955862045288,0.0015970865497365594,0.0053236219100654125,0.02874755859375
18562663849200,0.2932897210121155,-9.84615421295166,1.2318167686462402,0.0029279920272529125,0.010114881210029125,0.03087700717151165
18562665086337,0.2932897210121155,-9.81143856048584,1.2234370708465576,0.003460354171693325,0.010381062515079975,0.02848137728869915
18562666323525,0.23582887649536133,-9.827000617980957,1.2294225692749023,0.0015970865497365594,0.0077192517928779125,0.02661811001598835
18562667560687,0.19273324310779572,-9.828198432922363,1.1851298809051514,-0.0002661811013240367,0.005589802749454975,0.02422248013317585
18562668797850,0.22026655077934265,-9.870096206665039,1.2282254695892334,0.0018632676219567657,0.008783976547420025,0.02182685025036335
18562670035037,0.2454056739807129,-9.827000617980957,1.1839327812194824,0.0023956298828125,0.00958251953125,0.0215606689453125
18562671272187,0.23343466222286224,-9.855731010437012,1.2198457717895508,0.0010647244052961469,0.007985432632267475,0.0276828333735466
18562672509350,0.23104046285152435,-9.861717224121094,1.2090718746185303,-0.003460354171693325,0.007985432632267475,0.0314093679189682
18562673746537,0.2346317619085312,-9.883264541625977,1.2246341705322266,-0.00931633822619915,0.0063883461989462376,0.0292799212038517
18562674983700,0.25019407272338867,-9.86889934539795,1.238999366760254,-0.005589802749454975,0.010381062515079975,0.0223592109978199
18562676220887,0.23104046285152435,-9.856928825378418,1.213860273361206,-0.0013309054775163531,0.0090501569211483,0.01943122036755085
18562677458050,0.25019407272338867,-9.86770248413086,1.2102689743041992,-0.005589802749454975,0.010381062515079975,0.02502102218568325
18562678695212,0.23702597618103027,-9.859322547912598,1.2689268589019775,-0.0053236219100654125,0.013309055007994175,0.02502102218568325
18562679932362,0.22744916379451752,-9.852140426635742,1.2820950746536255,-0.0053236219100654125,0.010381062515079975,0.01943122036755085
18562681169550,0.25019407272338867,-9.827000617980957,1.2425906658172607,-0.005057440605014563,0.01171196810901165,0.0186326764523983
18562682406712,0.21667525172233582,-9.824606895446777,1.2066776752471924,-0.008517795242369175,0.01703559048473835,0.02022976242005825
18562683643887,0.24660277366638184,-9.825803756713867,1.2222399711608887,-0.01117960549890995,0.01703559048473835,0.0215606689453125
18562684881050,0.2932897210121155,-9.792284965515137,1.215057373046875,-0.0066545275039970875,0.0077192517928779125,0.01889885775744915
18562686118212,0.26575639843940735,-9.825803756713867,1.2521674633026123,-0.010913425125181675,0.005855984054505825,0.013309055007994175
18562687355400,0.22744916379451752,-9.771934509277344,1.2964602708816528,-0.010381062515079975,0.0037265352439135313,0.0173017717897892
18562688592550,0.24779987335205078,-9.786299705505371,1.2497732639312744,-0.0077192517928779125,0.0114457868039608,0.015438503585755825
18562689829712,0.2849099934101105,-9.807847023010254,1.2210428714752197,-0.0053236219100654125,0.010381062515079975,0.01597086526453495
18562691066887,0.2454056739807129,-9.774328231811523,1.2222399711608887,-0.00692070834338665,0.00958251953125,0.014373779296875
18562692304050,0.25258827209472656,-9.786299705505371,1.2665326595306396,-0.008783976547420025,0.00984870083630085,0.014906140975654125
18562693541225,0.22625206410884857,-9.783905029296875,1.258152961730957,-0.008783976547420025,0.0114457868039608,0.01224433071911335
18562694778400,0.29807811975479126,-9.77672290802002,1.2521674633026123,-0.01117960549890995,0.01357523538172245,0.0138414166867733
18562696015550,0.3256114423274994,-9.782708168029785,1.2761094570159912,-0.0071868896484375,0.01171196810901165,0.01410759799182415
18562697252737,0.23702597618103027,-9.767146110534668,1.2868834733963013,-0.00984870083630085,0.00692070834338665,0.00692070834338665
18562698489887,0.2968810200691223,-9.758766174316406,1.2880805730819702,-0.0114457868039608,0.0063883461989462376,0.00692070834338665
18562699727075,0.2645592987537384,-9.762357711791992,1.2186486721038818,-0.004791259765625,0.013309055007994175,0.01597086526453495
18562700964250,0.30526071786880493,-9.771934509277344,1.238999366760254,-0.0077192517928779125,0.0042588976211845875,0.012776692397892475
18562702201400,0.2561795711517334,-9.756372451782227,1.259350061416626,-0.013042873702943325,0.010381062515079975,0.0031941730994731188
18562703438575,0.2861070930957794,-9.799468040466309,1.2521674633026123,-0.006122165359556675,0.0090501569211483,0.0071868896484375
18562704675750,0.2908955216407776,-9.738415718078613,1.2330138683319092,-0.0039927163161337376,0.008517795242369175,0.0090501569211483
18562705912900,0.27653029561042786,-9.713275909423828,1.2665326595306396,-0.005589802749454975,0.008251613937318325,0.012776692397892475
18562707150075,0.27054479718208313,-9.765949249267578,1.2413935661315918,-0.006122165359556675,0.005855984054505825,0.008783976547420025
18562708387237,0.28131869435310364,-9.75517463684082,1.2294225692749023,-0.0090501569211483,0.008517795242369175,0.0077192517928779125
18562709624400,0.2932897210121155,-9.747992515563965,1.192312479019165,-0.0018632676219567657,0.0042588976211845875,0.00692070834338665
18562710861562,0.28371289372444153,-9.737218856811523,1.2701239585876465,-0.0026618109550327063,0.0066545275039970875,0.0053236219100654125
18562712098750,0.3076549172401428,-9.763554573059082,1.237802267074585,-0.0053236219100654125,0.0071868896484375,0.008517795242369175
18562713335925,0.2908955216407776,-9.75278091430664,1.2306196689605713,-0.0029279920272529125,0.0042588976211845875,0.008251613937318325
18562714573087,0.33997663855552673,-9.739612579345703,1.2078747749328613,-0.0053236219100654125,0.0090501569211483,0.0039927163161337376
18562715810250,0.31842881441116333,-9.737218856811523,1.1827356815338135,-0.0013309054775163531,0.008251613937318325,0.0042588976211845875
18562717047425,0.2992752194404602,-9.714473724365234,1.2270283699035645,-0.0037265352439135313,0.010913425125181675,0.0
18562718284587,0.28969842195510864,-9.7420072555542,1.236605167388916,-0.005057440605014563,0.008783976547420025,0.0015970865497365594
18562719521762,0.2645592987537384,-9.744400978088379,1.2246341705322266,-0.0013309054775163531,0.008251613937318325,0.005855984054505825
18562720758925,0.27892449498176575,-9.731232643127441,1.2342109680175781,-0.0023956298828125,0.006122165359556675,0.006122165359556675
18562721996100,0.31364041566848755,-9.707290649414062,1.1803414821624756,-0.0002661811013240367,0.00958251953125,0.0071868896484375
18562723233237,0.304063618183136,-9.702502250671387,1.1875240802764893,-0.0023956298828125,0.004791259765625,0.0026618109550327063
18562724470412,0.31603461503982544,-9.736021041870117,1.212663173675537,0.0005323622026480734,0.0039927163161337376,0.0042588976211845875
18562725707587,0.3124433159828186,-9.727641105651855,1.2234370708465576,-0.0002661811013240367,0.006122165359556675,0.00692070834338665
18562726944775,0.29209262132644653,-9.726444244384766,1.2773066759109497,-0.0029279920272529125,0.0066545275039970875,0.0021294488105922937
18562728181937,0.28730419278144836,-9.715670585632324,1.2449848651885986,-0.0005323622026480734,0.0042588976211845875,0.00452507846057415
18562729419100,0.3064578175544739,-9.744400978088379,1.2653355598449707,0.0010647244052961469,0.0029279920272529125,0.005057440605014563
18562730656275,0.272938996553421,-9.750386238098145,1.256955862045288,0.0005323622026480734,0.0,0.0021294488105922937
18562731893437,0.2669534981250763,-9.738415718078613,1.2066776752471924,0.0026618109550327063,-0.0031941730994731188,0.0010647244052961469
18562733130600,0.31842881441116333,-9.743204116821289,1.1887211799621582,0.004791259765625,-0.0018632676219567657,0.005057440605014563
18562734367762,0.27413609623908997,-9.759963035583496,1.1839327812194824,0.0023956298828125,0.0042588976211845875,0.0063883461989462376
18562735604950,0.3064578175544739,-9.77552604675293,1.2078747749328613,-0.0007985432748682797,0.0002661811013240367,0.0018632676219567657
18562736842112,0.3076549172401428,-9.75278091430664,1.1959037780761719,-0.0031941730994731188,-0.0029279920272529125,0.0053236219100654125
18562738079275,0.2932897210121155,-9.75278091430664,1.217451572418213,0.0002661811013240367,-0.003460354171693325,0.00452507846057415
18562739316450,0.32202014327049255,-9.767146110534668,1.2509703636169434,0.005855984054505825,-0.00452507846057415,0.0018632676219567657
18562740553625,0.31962594389915466,-9.737218856811523,1.2330138683319092,0.0021294488105922937,-0.003460354171693325,0.0077192517928779125
18562741790787,0.3100491166114807,-9.75397777557373,1.1815385818481445,0.0037265352439135313,-0.0029279920272529125,0.005057440605014563
18562743027937,0.333991140127182,-9.736021041870117,1.235408067703247,0.0021294488105922937,-0.0053236219100654125,0.003460354171693325
18562744265112,0.333991140127182,-9.746795654296875,1.2198457717895508,0.005057440605014563,-0.0053236219100654125,-0.0013309054775163531
18562745502287,0.32680854201316833,-9.749189376831055,1.2521674633026123,0.0037265352439135313,-0.010114881210029125,0.0031941730994731188
18562746739462,0.3016694188117981,-9.757569313049316,1.2282254695892334,0.0029279920272529125,-0.005855984054505825,0.0018632676219567657
18562747976612,0.30286651849746704,-9.716867446899414,1.2042834758758545,0.010647243820130825,-0.0023956298828125,-0.0021294488105922937
18562749213787,0.3100491166114807,-9.727641105651855,1.213860273361206,0.00958251953125,-0.0077192517928779125,0.005057440605014563
18562750450962,0.29568392038345337,-9.738415718078613,1.2102689743041992,0.0042588976211845875,-0.00984870083630085,0.0021294488105922937
18562751688112,0.2944868206977844,-9.709685325622559,1.2533645629882812,0.008517795242369175,-0.0071868896484375,0.0
18562752925300,0.29209262132644653,-9.72165584564209,1.238999366760254,0.010647243820130825,-0.0119781494140625,0.0039927163161337376
18562754162462,0.2992752194404602,-9.737218856811523,1.2461819648742676,0.0031941730994731188,-0.005589802749454975,0.0013309054775163531
18562755399637,0.3076549172401428,-9.727641105651855,1.2114660739898682,0.005855984054505825,-0.008251613937318325,0.0021294488105922937
18562756636787,0.31603461503982544,-9.707290649414062,1.215057373046875,0.008251613937318325,-0.012510511092841625,0.0010647244052961469
18562757873975,0.2801215946674347,-9.715670585632324,1.2042834758758545,0.01357523538172245,-0.00931633822619915,0.0042588976211845875
18562759111137,0.3148375153541565,-9.71926212310791,1.2330138683319092,0.00692070834338665,-0.00931633822619915,0.0037265352439135313
18562760348312,0.27054479718208313,-9.746795654296875,1.2533645629882812,0.008783976547420025,-0.010381062515079975,-0.0031941730994731188
18562761585462,0.2454056739807129,-9.732430458068848,1.2437877655029297,0.015172322280704975,-0.0090501569211483,-0.007453070487827063
18562762822650,0.27653029561042786,-9.731232643127441,1.2653355598449707,0.012510511092841625,-0.0119781494140625,-0.00452507846057415
18562764059812,0.28371289372444153,-9.737218856811523,1.2521674633026123,0.00984870083630085,-0.013042873702943325,-0.003460354171693325
18562765296975,0.3232172429561615,-9.758766174316406,1.2222399711608887,0.01117960549890995,-0.014373779296875,-0.0039927163161337376
18562766534162,0.29807811975479126,-9.764751434326172,1.2425906658172607,0.00958251953125,-0.010114881210029125,-0.0026618109550327063
18562767771312,0.2861070930957794,-9.71926212310791,1.2437877655029297,0.010114881210029125,-0.010114881210029125,-0.0021294488105922937
18562769008487,0.2753331959247589,-9.745597839355469,1.2425906658172607,0.01597086526453495,-0.013042873702943325,-0.003460354171693325
18562770245662,0.3148375153541565,-9.769539833068848,1.2689268589019775,0.015438503585755825,-0.012776692397892475,0.0010647244052961469
18562771482812,0.333991140127182,-9.77552604675293,1.2545616626739502,0.010114881210029125,-0.0157046839594841,0.0005323622026480734
18562772720000,0.31603461503982544,-9.77552604675293,1.2689268589019775,0.0119781494140625,-0.0119781494140625,-0.0037265352439135313
18562773957150,0.26815059781074524,-9.761160850524902,1.260547161102295,0.015438503585755825,-0.00958251953125,-0.00452507846057415
18562775194325,0.33518823981285095,-9.747992515563965,1.2545616626739502,0.01996358297765255,-0.0157046839594841,-0.0023956298828125
18562776431500,0.27892449498176575,-9.77552604675293,1.217451572418213,0.015172322280704975,-0.012510511092841625,-0.0002661811013240367
18562777668650,0.2992752194404602,-9.756372451782227,1.2509703636169434,0.01463996060192585,-0.01410759799182415,0.0005323622026480734
18562778905837,0.33518823981285095,-9.783905029296875,1.2785037755966187,0.014373779296875,-0.013042873702943325,-0.0029279920272529125
18562780143012,0.3208230435848236,-9.77672290802002,1.314416766166687,0.0167694091796875,-0.015438503585755825,-0.0066545275039970875
18562781380162,0.31603461503982544,-9.805453300476074,1.3060370683670044,0.0162370465695858,-0.0167694091796875,-0.0021294488105922937
18562782617325,0.29209262132644653,-9.813833236694336,1.2820950746536255,0.01756795309484005,-0.0162370465695858,0.0010647244052961469
18562783854512,0.2908955216407776,-9.793481826782227,1.259350061416626,0.0173017717897892,-0.01650322787463665,-0.0042588976211845875
18562785091662,0.27413609623908997,-9.84376049041748,1.2785037755966187,0.015172322280704975,-0.01783413253724575,-0.005855984054505825
18562786328837,0.2992752194404602,-9.782708168029785,1.2617442607879639,0.0167694091796875,-0.0204959437251091,-0.004791259765625
18562787566012,0.2968810200691223,-9.774328231811523,1.236605167388916,0.01996358297765255,-0.01996358297765255,-0.0018632676219567657
18562788803187,0.3064578175544739,-9.819818496704102,1.2473790645599365,0.01943122036755085,-0.0138414166867733,-0.0090501569211483
18562790040337,0.27653029561042786,-9.789891242980957,1.2330138683319092,0.01357523538172245,-0.00958251953125,-0.0037265352439135313
18562791277512,0.2968810200691223,-9.794679641723633,1.2437877655029297,0.0114457868039608,-0.01597086526453495,0.0013309054775163531
18562792514675,0.3495534360408783,-9.797073364257812,1.2318167686462402,0.01410759799182415,-0.01597086526453495,-0.0007985432748682797
18562793751850,0.30885201692581177,-9.81024169921875,1.2737152576446533,0.014906140975654125,-0.0162370465695858,-0.003460354171693325
18562794989025,0.33039984107017517,-9.799468040466309,1.2437877655029297,0.01463996060192585,-0.0167694091796875,-0.0026618109550327063
18562796226200,0.3447650372982025,-9.800664901733398,1.2629413604736328,0.015172322280704975,-0.014373779296875,-0.0013309054775163531
18562797463362,0.2717418968677521,-9.797073364257812,1.2485761642456055,0.01703559048473835,-0.01703559048473835,-0.0021294488105922937
18562798700537,0.28730419278144836,-9.835380554199219,1.2665326595306396,0.01357523538172245,-0.0162370465695858,-0.0007985432748682797
18562799937700,0.2968810200691223,-9.834183692932129,1.2952631711959839,0.010913425125181675,-0.01783413253724575,0.0002661811013240367
18562801174862,0.31603461503982544,-9.823410034179688,1.2868834733963013,0.0114457868039608,-0.01597086526453495,-0.0026618109550327063
18562802412012,0.3100491166114807,-9.80904483795166,1.2725181579589844,0.012776692397892475,-0.01650322787463665,0.0
18562803649187,0.29568392038345337,-9.825803756713867,1.2952631711959839,0.012510511092841625,-0.0181003138422966,-0.0005323622026480734
18562804886362,0.3423708379268646,-9.81024169921875,1.2641384601593018,0.012510511092841625,-0.01756795309484005,-0.0029279920272529125
18562806123537,0.3292027413845062,-9.831789016723633,1.291671872138977,0.010381062515079975,-0.0228915736079216,-0.0023956298828125
18562807360712,0.3280056416988373,-9.800664901733398,1.3012486696243286,0.00958251953125,-0.01889885775744915,-0.0013309054775163531
18562808597850,0.2801215946674347,-9.848548889160156,1.2761094570159912,0.0119781494140625,-0.0186326764523983,-0.003460354171693325
18562809835025,0.24660277366638184,-9.84615421295166,1.292868971824646,0.015172322280704975,-0.01756795309484005,-0.0007985432748682797
18562811072200,0.2908955216407776,-9.836577415466309,1.2677297592163086,0.0138414166867733,-0.0186326764523983,0.0039927163161337376
18562812309412,0.304063618183136,-9.835380554199219,1.2437877655029297,0.0053236219100654125,-0.0162370465695858,0.0005323622026480734
18562813546537,0.3208230435848236,-9.78869342803955,1.314416766166687,0.0077192517928779125,-0.015172322280704975,-0.0037265352439135313
18562814783700,0.2777273952960968,-9.832986831665039,1.290474772453308,0.010381062515079975,-0.0228915736079216,0.0021294488105922937
18562816020875,0.2861070930957794,-9.827000617980957,1.235408067703247,0.0063883461989462376,-0.0162370465695858,0.0010647244052961469
18562817258037,0.3172317147254944,-9.783905029296875,1.2868834733963013,0.006122165359556675,-0.01224433071911335,-0.0063883461989462376
18562818495225,0.2944868206977844,-9.774328231811523,1.313219666481018,0.010381062515079975,-0.013309055007994175,0.0018632676219567657
18562819732387,0.31364041566848755,-9.764751434326172,1.2856863737106323,0.0077192517928779125,-0.01650322787463665,0.005589802749454975
18562820969550,0.2849099934101105,-9.801861763000488,1.3096283674240112,0.007453070487827063,-0.01783413253724575,0.0037265352439135313
18562822206725,0.32680854201316833,-9.829395294189453,1.2952631711959839,0.008783976547420025,-0.02076212503015995,0.007453070487827063
18562823443887,0.3292027413845062,-9.801861763000488,1.2701239585876465,0.0114457868039608,-0.0204959437251091,0.0021294488105922937
18562824681050,0.31603461503982544,-9.792284965515137,1.2713210582733154,0.008251613937318325,-0.013309055007994175,0.0023956298828125
18562825918237,0.3100491166114807,-9.800664901733398,1.2713210582733154,0.005057440605014563,-0.014906140975654125,0.0071868896484375
18562827155400,0.30885201692581177,-9.765949249267578,1.2749123573303223,0.010381062515079975,-0.01996358297765255,0.0053236219100654125
18562828392562,0.33039984107017517,-9.81143856048584,1.2665326595306396,0.00692070834338665,-0.02076212503015995,0.0039927163161337376
18562829629725,0.32680854201316833,-9.789891242980957,1.2761094570159912,0.0066545275039970875,-0.01463996060192585,0.005057440605014563
18562830866900,0.30526071786880493,-9.822212219238281,1.2976573705673218,0.0077192517928779125,-0.013309055007994175,0.007453070487827063
18562832104075,0.304063618183136,-9.829395294189453,1.2868834733963013,0.01117960549890995,-0.01889885775744915,0.0066545275039970875
18562833341262,0.3124433159828186,-9.818621635437012,1.3072341680526733,0.01171196810901165,-0.01943122036755085,0.006122165359556675
18562834578387,0.2932897210121155,-9.841365814208984,1.3072341680526733,0.0090501569211483,-0.01756795309484005,0.003460354171693325
18562835815562,0.2849099934101105,-9.86650562286377,1.3024457693099976,0.00692070834338665,-0.02502102218568325,0.0042588976211845875
18562837052725,0.272938996553421,-9.916783332824707,1.315613865852356,0.0018632676219567657,-0.0186326764523983,0.004791259765625
18562838289912,0.2885012924671173,-9.880870819091797,1.2832921743392944,0.0026618109550327063,-0.01783413253724575,0.0039927163161337376
18562839527087,0.2908955216407776,-9.834183692932129,1.3072341680526733,0.005855984054505825,-0.014906140975654125,0.0037265352439135313
18562840764237,0.304063618183136,-9.884461402893066,1.313219666481018,0.005057440605014563,-0.01783413253724575,0.008517795242369175
18562842001412,0.2944868206977844,-9.872490882873535,1.3120225667953491,0.006122165359556675,-0.02076212503015995,0.008251613937318325
18562843238587,0.32202014327049255,-9.835380554199219,1.2737152576446533,0.010114881210029125,-0.0220930315554142,0.008251613937318325
18562844475762,0.3016694188117981,-9.859322547912598,1.2617442607879639,0.0066545275039970875,-0.01943122036755085,0.0029279920272529125
18562845712912,0.2777273952960968,-9.853337287902832,1.2988544702529907,0.0018632676219567657,-0.0167694091796875,0.0031941730994731188
18562846950075,0.3100491166114807,-9.849745750427246,1.2952631711959839,0.0026618109550327063,-0.010647243820130825,0.0029279920272529125
18562848187262,0.2944868206977844,-9.827000617980957,1.313219666481018,0.0021294488105922937,-0.0119781494140625,-0.0023956298828125
18562849424412,0.2561795711517334,-9.836577415466309,1.3000515699386597,0.0018632676219567657,-0.012510511092841625,0.0031941730994731188
18562850661587,0.2944868206977844,-9.859322547912598,1.2988544702529907,0.0029279920272529125,-0.0167694091796875,0.0037265352439135313
18562851898762,0.3076549172401428,-9.81143856048584,1.3180080652236938,0.0023956298828125,-0.014906140975654125,0.005589802749454975
18562853135925,0.2777273952960968,-9.838972091674805,1.3120225667953491,0.0031941730994731188,-0.012776692397892475,0.00692070834338665
18562854373112,0.2992752194404602,-9.804256439208984,1.3084312677383423,0.003460354171693325,-0.0191650390625,0.0015970865497365594
18562855610275,0.31842881441116333,-9.807847023010254,1.2820950746536255,0.0007985432748682797,-0.015172322280704975,0.0010647244052961469
18562856847437,0.28131869435310364,-9.835380554199219,1.260547161102295,0.0015970865497365594,-0.01171196810901165,-0.0029279920272529125
18562858084600,0.30286651849746704,-9.858125686645508,1.292868971824646,0.0005323622026480734,-0.0162370465695858,0.0010647244052961469
18562859321775,0.26336219906806946,-9.850942611694336,1.2988544702529907,-0.0029279920272529125,-0.013309055007994175,0.0005323622026480734
18562860558950,0.28969842195510864,-9.86889934539795,1.315613865852356,-0.005057440605014563,-0.01410759799182415,-0.0026618109550327063
18562861796100,0.31364041566848755,-9.81263542175293,1.2964602708816528,-0.0066545275039970875,-0.010114881210029125,0.0002661811013240367
18562863033275,0.25019407272338867,-9.791088104248047,1.291671872138977,-0.0031941730994731188,-0.013042873702943325,-0.0007985432748682797
18562864270450,0.2825157940387726,-9.84495735168457,1.2665326595306396,-0.003460354171693325,-0.012510511092841625,0.0005323622026480734
18562865507612,0.2849099934101105,-9.828198432922363,1.2725181579589844,-0.00692070834338665,-0.0090501569211483,0.003460354171693325
18562866744800,0.25737667083740234,-9.827000617980957,1.3311761617660522,-0.0071868896484375,-0.01171196810901165,0.0005323622026480734
18562867981950,0.26096799969673157,-9.821015357971191,1.2677297592163086,-0.0039927163161337376,-0.010114881210029125,-0.0039927163161337376
18562869219100,0.2753331959247589,-9.804256439208984,1.2856863737106323,0.0,-0.0114457868039608,-0.0015970865497365594
18562870456300,0.25498247146606445,-9.848548889160156,1.2629413604736328,-0.005855984054505825,-0.00984870083630085,0.0015970865497365594
18562871693462,0.23942017555236816,-9.834183692932129,1.2976573705673218,-0.004791259765625,-0.010114881210029125,-0.0002661811013240367
18562872930625,0.22505496442317963,-9.803058624267578,1.3180080652236938,-0.003460354171693325,-0.007453070487827063,-0.0010647244052961469
18562874167775,0.2322375625371933,-9.799468040466309,1.2713210582733154,-0.00692070834338665,-0.005589802749454975,0.0029279920272529125
18562875404975,0.23942017555236816,-9.832986831665039,1.2665326595306396,-0.006122165359556675,-0.0053236219100654125,-0.0031941730994731188
18562876642125,0.25019407272338867,-9.804256439208984,1.2773066759109497,-0.0077192517928779125,-0.0071868896484375,0.0
18562877879287,0.25498247146606445,-9.836577415466309,1.2641384601593018,-0.00931633822619915,-0.0042588976211845875,0.0007985432748682797
18562879116462,0.25498247146606445,-9.828198432922363,1.2270283699035645,-0.01117960549890995,-0.0029279920272529125,-0.0015970865497365594
18562880353637,0.21667525172233582,-9.84495735168457,1.2713210582733154,-0.00692070834338665,-0.0007985432748682797,0.0002661811013240367
18562881590787,0.26096799969673157,-9.84495735168457,1.2737152576446533,-0.0090501569211483,-0.0010647244052961469,0.0005323622026480734
18562882827975,0.27413609623908997,-9.768342971801758,1.2785037755966187,-0.00692070834338665,-0.006122165359556675,0.0037265352439135313
18562884065150,0.22026655077934265,-9.805453300476074,1.2246341705322266,-0.007453070487827063,-0.0066545275039970875,0.005057440605014563
18562885302312,0.2059013545513153,-9.841365814208984,1.2330138683319092,-0.008783976547420025,0.006122165359556675,-0.0005323622026480734
18562886539475,0.22744916379451752,-9.824606895446777,1.259350061416626,-0.010381062515079975,0.0037265352439135313,-0.0005323622026480734
18562887776637,0.2454056739807129,-9.831789016723633,1.215057373046875,-0.0090501569211483,0.003460354171693325,-0.0002661811013240367
18562889013812,0.25258827209472656,-9.795876502990723,1.2413935661315918,-0.005589802749454975,0.0021294488105922937,-0.0039927163161337376
18562890250962,0.27054479718208313,-9.799468040466309,1.2222399711608887,-0.00984870083630085,0.0031941730994731188,0.0
18562891488175,0.2849099934101105,-9.823410034179688,1.235408067703247,-0.01171196810901165,0.0037265352439135313,0.0010647244052961469
18562892725312,0.2454056739807129,-9.84376049041748,1.2294225692749023,-0.013309055007994175,0.006122165359556675,0.0007985432748682797
18562893962487,0.2406172752380371,-9.794679641723633,1.2425906658172607,-0.01117960549890995,0.006122165359556675,0.0031941730994731188
18562895199662,0.24779987335205078,-9.794679641723633,1.2665326595306396,-0.0090501569211483,0.0063883461989462376,0.0026618109550327063
18562896436837,0.2621650993824005,-9.797073364257812,1.215057373046875,-0.0157046839594841,0.014373779296875,0.0021294488105922937
18562897674012,0.27413609623908997,-9.759963035583496,1.215057373046875,-0.01410759799182415,0.007985432632267475,0.0013309054775163531
18562898911162,0.24420857429504395,-9.783905029296875,1.1875240802764893,-0.01597086526453495,0.010647243820130825,0.0013309054775163531
18562900148325,0.27054479718208313,-9.7791166305542,1.2521674633026123,-0.0167694091796875,0.012510511092841625,0.0029279920272529125
18562901385500,0.26815059781074524,-9.78869342803955,1.2078747749328613,-0.01597086526453495,0.013042873702943325,0.0
18562902622675,0.272938996553421,-9.7791166305542,1.2258312702178955,-0.015172322280704975,0.010114881210029125,0.0039927163161337376
18562903859837,0.27054479718208313,-9.758766174316406,1.2785037755966187,-0.0167694091796875,0.015172322280704975,0.003460354171693325
18562905097000,0.26096799969673157,-9.757569313049316,1.235408067703247,-0.015438503585755825,0.0167694091796875,0.0023956298828125
18562906334175,0.2968810200691223,-9.780314445495605,1.2234370708465576,-0.0114457868039608,0.01410759799182415,0.0042588976211845875
18562907571350,0.25737667083740234,-9.78869342803955,1.2449848651885986,-0.013309055007994175,0.014373779296875,0.0031941730994731188
18562908808525,0.2777273952960968,-9.785102844238281,1.2210428714752197,-0.013309055007994175,0.0119781494140625,0.00692070834338665
18562910045687,0.26815059781074524,-9.791088104248047,1.2629413604736328,-0.0173017717897892,0.02076212503015995,0.005855984054505825
18562911282862,0.2645592987537384,-9.763554573059082,1.2485761642456055,-0.01756795309484005,0.02022976242005825,0.0077192517928779125
18562912520012,0.25258827209472656,-9.77552604675293,1.2318167686462402,-0.013042873702943325,0.0191650390625,0.005057440605014563
18562913757187,0.3064578175544739,-9.787496566772461,1.213860273361206,-0.0162370465695858,0.01889885775744915,0.00692070834338665
18562914994350,0.3064578175544739,-9.77552604675293,1.2629413604736328,-0.010647243820130825,0.0223592109978199,0.00958251953125
18562916231537,0.31124621629714966,-9.771934509277344,1.216254472732544,-0.01410759799182415,0.0220930315554142,0.008517795242369175
18562917468687,0.2992752194404602,-9.768342971801758,1.2234370708465576,-0.01410759799182415,0.0191650390625,0.005855984054505825
18562918705862,0.29209262132644653,-9.80904483795166,1.236605167388916,-0.014373779296875,0.0191650390625,0.0029279920272529125
18562919943037,0.3124433159828186,-9.75517463684082,1.2270283699035645,-0.0077192517928779125,0.02022976242005825,0.007453070487827063
18562921180187,0.3292027413845062,-9.77552604675293,1.260547161102295,-0.01171196810901165,0.0196974016726017,0.003460354171693325
18562922417362,0.3172317147254944,-9.758766174316406,1.2401964664459229,-0.012510511092841625,0.01889885775744915,0.00692070834338665
18562923654525,0.3411737382411957,-9.756372451782227,1.217451572418213,-0.0157046839594841,0.0196974016726017,0.0066545275039970875
18562924891712,0.34356793761253357,-9.763554573059082,1.217451572418213,-0.0119781494140625,0.02182685025036335,0.0029279920272529125
18562926128862,0.33039984107017517,-9.740809440612793,1.2246341705322266,-0.01224433071911335,0.02315775491297245,0.0063883461989462376
18562927366037,0.3256114423274994,-9.731232643127441,1.236605167388916,-0.01410759799182415,0.0247548408806324,0.005057440605014563
18562928603212,0.3519476652145386,-9.764751434326172,1.2617442607879639,-0.010647243820130825,0.0223592109978199,0.0029279920272529125
18562929840387,0.31364041566848755,-9.75278091430664,1.236605167388916,-0.01117960549890995,0.0244886614382267,0.004791259765625
18562931077550,0.28969842195510864,-9.767146110534668,1.2234370708465576,-0.010913425125181675,0.0220930315554142,0.003460354171693325
18562932314712,0.28730419278144836,-9.732430458068848,1.2006921768188477,-0.010913425125181675,0.02129448764026165,0.00692070834338665
18562933551887,0.3495534360408783,-9.734824180603027,1.2030863761901855,-0.007453070487827063,0.0244886614382267,0.01117960549890995
18562934789050,0.3363853394985199,-9.716867446899414,1.2258312702178955,-0.007985432632267475,0.0228915736079216,0.0013309054775163531
18562936026212,0.36750996112823486,-9.758766174316406,1.1863269805908203,-0.01171196810901165,0.0228915736079216,0.004791259765625
18562937263400,0.3842693865299225,-9.745597839355469,1.2258312702178955,-0.01117960549890995,0.0247548408806324,0.0018632676219567657
18562938500562,0.37469255924224854,-9.731232643127441,1.1863269805908203,-0.0039927163161337376,0.01943122036755085,0.003460354171693325
18562939737725,0.363918662071228,-9.768342971801758,1.2114660739898682,-0.0007985432748682797,0.01597086526453495,-0.0005323622026480734
18562940974900,0.36990416049957275,-9.728838920593262,1.192312479019165,-0.0053236219100654125,0.02129448764026165,0.0026618109550327063
18562942212050,0.3531447649002075,-9.710882186889648,1.2461819648742676,-0.0066545275039970875,0.02555338479578495,0.0007985432748682797
18562943449237,0.3758896589279175,-9.747992515563965,1.212663173675537,-0.0042588976211845875,0.02022976242005825,0.0010647244052961469
18562944686425,0.41299980878829956,-9.726444244384766,1.1779472827911377,-0.010114881210029125,0.01597086526453495,-0.0010647244052961469
18562945923575,0.41778820753097534,-9.709685325622559,1.2078747749328613,-0.0063883461989462376,0.01889885775744915,0.005589802749454975
18562947160750,0.39624038338661194,-9.734824180603027,1.2401964664459229,-0.005057440605014563,0.0138414166867733,0.005589802749454975
18562948397912,0.4213795065879822,-9.715670585632324,1.2725181579589844,-0.007985432632267475,0.01597086526453495,0.0018632676219567657
18562949635062,0.4381389021873474,-9.706093788146973,1.237802267074585,-0.00452507846057415,0.0181003138422966,0.0005323622026480734
18562950872262,0.3687070608139038,-9.733627319335938,1.1994950771331787,-0.0037265352439135313,0.0138414166867733,-0.0002661811013240367
18562952109400,0.365115761756897,-9.758766174316406,1.2401964664459229,-0.005057440605014563,0.010381062515079975,0.0005323622026480734
18562953346575,0.4165911078453064,-9.78869342803955,1.216254472732544,-0.0007985432748682797,0.015438503585755825,-0.0002661811013240367
18562954583750,0.4165911078453064,-9.768342971801758,1.192312479019165,0.0005323622026480734,0.01357523538172245,0.0002661811013240367
18562955820912,0.42377370595932007,-9.746795654296875,1.2773066759109497,0.0002661811013240367,0.010381062515079975,0.00452507846057415
18562957058100,0.3998316824436188,-9.72285270690918,1.2066776752471924,0.0,0.012776692397892475,0.005589802749454975
18562958295250,0.43095630407333374,-9.75517463684082,1.235408067703247,-0.0018632676219567657,0.01410759799182415,-0.0010647244052961469
18562959532425,0.3818751871585846,-9.75397777557373,1.237802267074585,-0.0042588976211845875,0.010381062515079975,-0.0023956298828125
18562960769587,0.3842693865299225,-9.764751434326172,1.2222399711608887,-0.0018632676219567657,0.005855984054505825,-0.0010647244052961469
18562962006750,0.39624038338661194,-9.799468040466309,1.2090718746185303,-0.0018632676219567657,0.006122165359556675,0.0039927163161337376
18562963243912,0.38067808747291565,-9.787496566772461,1.213860273361206,-0.0021294488105922937,0.008251613937318325,0.0039927163161337376
18562964481087,0.3687070608139038,-9.815030097961426,1.1528080701828003,-0.004791259765625,0.010381062515079975,-0.0039927163161337376
18562965718262,0.4010287821292877,-9.827000617980957,1.1779472827911377,0.0,0.005057440605014563,-0.0013309054775163531
18562966955425,0.4225766062736511,-9.799468040466309,1.2114660739898682,-0.0005323622026480734,0.0013309054775163531,0.0015970865497365594
18562968192600,0.3866635859012604,-9.848548889160156,1.1743559837341309,0.0013309054775163531,0.0031941730994731188,0.00452507846057415
18562969429787,0.3878606855869293,-9.829395294189453,1.193509578704834,-0.0039927163161337376,0.005855984054505825,0.004791259765625
18562970666925,0.4345476031303406,-9.832986831665039,1.2318167686462402,-0.0039927163161337376,0.005589802749454975,0.0026618109550327063
18562971904112,0.4429273307323456,-9.836577415466309,1.213860273361206,0.003460354171693325,0.0007985432748682797,0.0037265352439135313
18562973141275,0.4692635238170624,-9.880870819091797,1.1791443824768066,0.0013309054775163531,-0.0042588976211845875,0.0053236219100654125
18562974378450,0.45489832758903503,-9.822212219238281,1.2210428714752197,-0.004791259765625,0.003460354171693325,0.0026618109550327063
18562975615612,0.4836287498474121,-9.815030097961426,1.2102689743041992,-0.0066545275039970875,-0.0005323622026480734,0.0018632676219567657
18562976852775,0.46806642413139343,-9.805453300476074,1.1563994884490967,-0.0037265352439135313,-0.0053236219100654125,0.003460354171693325
18562978089975,0.4908113479614258,-9.773131370544434,1.1851298809051514,-0.0010647244052961469,-0.010913425125181675,0.0063883461989462376
18562979327125,0.4596867263317108,-9.793481826782227,1.1994950771331787,-0.0018632676219567657,-0.007985432632267475,0.0063883461989462376
18562980564312,0.4465186297893524,-9.81143856048584,1.2090718746185303,-0.0010647244052961469,-0.008783976547420025,0.0066545275039970875
18562981801475,0.4692635238170624,-9.815030097961426,1.1899182796478271,0.0007985432748682797,-0.010647243820130825,0.003460354171693325
18562983038625,0.48243165016174316,-9.791088104248047,1.2270283699035645,0.0010647244052961469,-0.01117960549890995,0.0039927163161337376
18562984275812,0.45250412821769714,-9.749189376831055,1.2294225692749023,-0.005057440605014563,-0.010647243820130825,0.0077192517928779125
18562985512962,0.46088382601737976,-9.789891242980957,1.1851298809051514,0.0002661811013240367,-0.0181003138422966,0.012510511092841625
18562986750162,0.43335050344467163,-9.798270225524902,1.2054805755615234,0.0013309054775163531,-0.0220930315554142,0.0042588976211845875
18562987987300,0.4034229815006256,-9.792284965515137,1.1767501831054688,-0.0023956298828125,-0.0173017717897892,0.00931633822619915
18562989224475,0.44532153010368347,-9.78869342803955,1.1863269805908203,0.0015970865497365594,-0.0157046839594841,0.0066545275039970875
18562990461650,0.43694180250167847,-9.806650161743164,1.216254472732544,-0.0037265352439135313,-0.01836649514734745,0.0053236219100654125
18562991698800,0.39624038338661194,-9.823410034179688,1.2030863761901855,-0.0021294488105922937,-0.01703559048473835,0.0119781494140625
18562992935975,0.44173023104667664,-9.837775230407715,1.1887211799621582,-0.0063883461989462376,-0.0181003138422966,0.012776692397892475
18562994173137,0.4345476031303406,-9.829395294189453,1.1839327812194824,-0.007985432632267475,-0.0220930315554142,0.0167694091796875
18562995410312,0.42018240690231323,-9.849745750427246,1.1851298809051514,-0.007453070487827063,-0.02262539230287075,0.01463996060192585
18562996647462,0.39863458275794983,-9.880870819091797,1.1587936878204346,-0.0037265352439135313,-0.02076212503015995,0.01224433071911335
18562997884650,0.3926490843296051,-9.880870819091797,1.2054805755615234,-0.008251613937318325,-0.0263519287109375,0.01650322787463665
18562999121825,0.4082113802433014,-9.885659217834473,1.1887211799621582,-0.006122165359556675,-0.023956298828125,0.00984870083630085
18563000359000,0.3531447649002075,-9.854534149169922,1.1839327812194824,-0.008783976547420025,-0.02608574740588665,0.00931633822619915
18563001596162,0.31603461503982544,-9.872490882873535,1.1959037780761719,-0.00931633822619915,-0.02794901467859745,0.008251613937318325
18563002833312,0.3519476652145386,-9.883264541625977,1.2006921768188477,-0.010913425125181675,-0.0271504707634449,0.00958251953125
18563004070487,0.3878606855869293,-9.86770248413086,1.1982979774475098,-0.010647243820130825,-0.0276828333735466,0.010647243820130825
18563005307675,0.35434186458587646,-9.871294021606445,1.1875240802764893,-0.00958251953125,-0.0311431884765625,0.01224433071911335
18563006544825,0.3280056416988373,-9.861717224121094,1.2198457717895508,-0.010913425125181675,-0.0314093679189682,0.010647243820130825
18563007781987,0.3687070608139038,-9.87967300415039,1.1875240802764893,-0.012510511092841625,-0.0359344482421875,0.010913425125181675
18563009019175,0.3292027413845062,-9.86889934539795,1.212663173675537,-0.0114457868039608,-0.0330064557492733,0.00984870083630085
18563010256325,0.3124433159828186,-9.828198432922363,1.2401964664459229,-0.013309055007994175,-0.0354020856320858,0.007985432632267475
18563011493525,0.32680854201316833,-9.829395294189453,1.1863269805908203,-0.01357523538172245,-0.0359344482421875,0.01171196810901165
18563012730675,0.3280056416988373,-9.840168952941895,1.1779472827911377,-0.013042873702943325,-0.0364668108522892,0.014373779296875
18563013967837,0.3495534360408783,-9.804256439208984,1.1755530834197998,-0.012776692397892475,-0.0351359061896801,0.01357523538172245
18563015205000,0.304063618183136,-9.84376049041748,1.1851298809051514,-0.012776692397892475,-0.0369991734623909,0.013309055007994175
18563016442187,0.34596213698387146,-9.817423820495605,1.215057373046875,-0.014373779296875,-0.0343373604118824,0.010381062515079975
18563017679337,0.3076549172401428,-9.84376049041748,1.1791443824768066,-0.013309055007994175,-0.0348697230219841,0.00958251953125
18563018916525,0.2992752194404602,-9.834183692932129,1.1791443824768066,-0.014906140975654125,-0.0420566126704216,0.0157046839594841
18563020153700,0.33039984107017517,-9.805453300476074,1.1444283723831177,-0.01650322787463665,-0.0388624407351017,0.015172322280704975
18563021390862,0.333991140127182,-9.841365814208984,1.1887211799621582,-0.0157046839594841,-0.0385962575674057,0.0138414166867733
18563022628012,0.2801215946674347,-9.815030097961426,1.2006921768188477,-0.0157046839594841,-0.0359344482421875,0.012776692397892475
18563023865200,0.3016694188117981,-9.81263542175293,1.192312479019165,-0.0138414166867733,-0.0364668108522892,0.013309055007994175
18563025102362,0.2825157940387726,-9.828198432922363,1.1767501831054688,-0.0138414166867733,-0.0412580706179142,0.01410759799182415
18563026339537,0.25498247146606445,-9.801861763000488,1.2030863761901855,-0.0157046839594841,-0.0423227921128273,0.015172322280704975
18563027576700,0.2214636653661728,-9.830592155456543,1.2006921768188477,-0.0167694091796875,-0.0417904332280159,0.0167694091796875
18563028813850,0.18076223134994507,-9.81143856048584,1.1815385818481445,-0.010913425125181675,-0.0372653529047966,0.01650322787463665
18563030051037,0.25258827209472656,-9.791088104248047,1.171961784362793,-0.010647243820130825,-0.0372653529047966,0.015172322280704975
18563031288212,0.25019407272338867,-9.806650161743164,1.1851298809051514,-0.0157046839594841,-0.0327402763068676,0.0114457868039608
18563032525375,0.23942017555236816,-9.77552604675293,1.216254472732544,-0.0162370465695858,-0.033538818359375,0.01224433071911335
18563033762550,0.24181437492370605,-9.805453300476074,1.1611878871917725,-0.013309055007994175,-0.0348697230219841,0.0167694091796875
18563034999725,0.26096799969673157,-9.77552604675293,1.2186486721038818,-0.014373779296875,-0.0375315360724926,0.0186326764523983
18563036236900,0.2059013545513153,-9.765949249267578,1.1755530834197998,-0.01224433071911335,-0.0314093679189682,0.01597086526453495
18563037474050,0.2059013545513153,-9.799468040466309,1.2018892765045166,-0.013309055007994175,-0.0338049978017807,0.0119781494140625
18563038711225,0.1999158412218094,-9.795876502990723,1.1827356815338135,-0.012510511092841625,-0.02901373989880085,0.01410759799182415
18563039948375,0.1999158412218094,-9.771934509277344,1.1516109704971313,-0.010381062515079975,-0.0282151959836483,0.015172322280704975
18563041185562,0.2214636653661728,-9.757569313049316,1.1552022695541382,-0.01703559048473835,-0.0282151959836483,0.0119781494140625
18563042422737,0.21547815203666687,-9.759963035583496,1.1887211799621582,-0.0186326764523983,-0.02661811001598835,0.010913425125181675
18563043659887,0.2106897532939911,-9.761160850524902,1.1839327812194824,-0.015172322280704975,-0.02608574740588665,0.010114881210029125
18563044897087,0.2106897532939911,-9.747992515563965,1.173158884048462,-0.0114457868039608,-0.023956298828125,0.0119781494140625
18563046134250,0.2346317619085312,-9.703699111938477,1.2054805755615234,-0.01171196810901165,-0.0258195661008358,0.0071868896484375
18563047371400,0.18315643072128296,-9.774328231811523,1.1803414821624756,-0.0119781494140625,-0.0263519287109375,0.00984870083630085
18563048608562,0.19273324310779572,-9.767146110534668,1.170764684677124,-0.01171196810901165,-0.0247548408806324,0.01224433071911335
18563049845737,0.2059013545513153,-9.75158405303955,1.2054805755615234,-0.01224433071911335,-0.02076212503015995,0.0053236219100654125
18563051082900,0.20231004059314728,-9.759963035583496,1.1863269805908203,-0.0162370465695858,-0.01783413253724575,0.005589802749454975
18563052320100,0.2346317619085312,-9.75517463684082,1.1659762859344482,-0.0181003138422966,-0.0162370465695858,0.0021294488105922937
18563053557225,0.18794482946395874,-9.738415718078613,1.170764684677124,-0.01463996060192585,-0.02022976242005825,0.005057440605014563
18563054794412,0.21188685297966003,-9.749189376831055,1.1575965881347656,-0.01171196810901165,-0.01703559048473835,0.0013309054775163531
18563056031587,0.14484921097755432,-9.743204116821289,1.1743559837341309,-0.010114881210029125,-0.0173017717897892,0.0029279920272529125
18563057268737,0.1843535304069519,-9.749189376831055,1.1982979774475098,-0.010647243820130825,-0.0181003138422966,0.0023956298828125
18563058505937,0.19393034279346466,-9.738415718078613,1.1971008777618408,-0.013042873702943325,-0.01410759799182415,-0.0023956298828125
18563059743087,0.17238251864910126,-9.746795654296875,1.2270283699035645,-0.012776692397892475,-0.008251613937318325,-0.0007985432748682797
18563060980275,0.14604631066322327,-9.709685325622559,1.1623849868774414,-0.0114457868039608,-0.008517795242369175,-0.0010647244052961469
18563062217437,0.15801730751991272,-9.716867446899414,1.1791443824768066,-0.010381062515079975,-0.0066545275039970875,0.0023956298828125
18563063454600,0.18555063009262085,-9.68813705444336,1.2473790645599365,-0.010114881210029125,-0.01117960549890995,0.0015970865497365594
18563064691762,0.1843535304069519,-9.728838920593262,1.1671733856201172,-0.00931633822619915,-0.0077192517928779125,-0.00692070834338665
18563065928937,0.21667525172233582,-9.724050521850586,1.1959037780761719,-0.005057440605014563,-0.0018632676219567657,-0.004791259765625
18563067166112,0.17717093229293823,-9.767146110534668,1.1851298809051514,-0.005855984054505825,-0.00452507846057415,-0.0077192517928779125
18563068403287,0.22505496442317963,-9.758766174316406,1.1480196714401245,-0.00984870083630085,-0.0002661811013240367,-0.010114881210029125
18563069640462,0.1975216418504715,-9.783905029296875,1.1959037780761719,-0.007985432632267475,-0.0005323622026480734,-0.013309055007994175
18563070877612,0.22385786473751068,-9.757569313049316,1.1791443824768066,-0.0119781494140625,0.0015970865497365594,-0.0162370465695858
18563072114787,0.21787235140800476,-9.710882186889648,1.192312479019165,-0.012510511092841625,0.007453070487827063,-0.01410759799182415
18563073351937,0.2346317619085312,-9.709685325622559,1.1587936878204346,-0.0066545275039970875,0.004791259765625,-0.010647243820130825
18563074589112,0.25737667083740234,-9.761160850524902,1.1276689767837524,-0.005589802749454975,0.0013309054775163531,-0.014906140975654125
18563075826287,0.2322375625371933,-9.75517463684082,1.1228805780410767,-0.005589802749454975,0.005057440605014563,-0.01357523538172245
18563077063450,0.2513911724090576,-9.780314445495605,1.2090718746185303,-0.00452507846057415,0.008783976547420025,-0.012776692397892475
18563078300625,0.21787235140800476,-9.756372451782227,1.194706678390503,-0.010381062515079975,0.0138414166867733,-0.0191650390625
18563079537800,0.2454056739807129,-9.781511306762695,1.2006921768188477,-0.00692070834338665,0.0077192517928779125,-0.0157046839594841
18563080774975,0.27054479718208313,-9.761160850524902,1.2330138683319092,-0.0013309054775163531,0.008517795242369175,-0.012776692397892475
18563082012137,0.23582887649536133,-9.708487510681152,1.2282254695892334,-0.0029279920272529125,0.01357523538172245,-0.0114457868039608
18563083249287,0.24779987335205078,-9.726444244384766,1.2054805755615234,-0.0005323622026480734,0.0119781494140625,-0.01117960549890995
18563084486475,0.29209262132644653,-9.678560256958008,1.2306196689605713,-0.0042588976211845875,0.0157046839594841,-0.0191650390625
18563085723637,0.2597709000110626,-9.714473724365234,1.213860273361206,-0.0023956298828125,0.01783413253724575,-0.0252872034907341
18563086960825,0.28730419278144836,-9.724050521850586,1.2437877655029297,-0.0039927163161337376,0.02422248013317585,-0.0220930315554142
18563088197975,0.27054479718208313,-9.716867446899414,1.2090718746185303,-0.0037265352439135313,0.01943122036755085,-0.01357523538172245
18563089435137,0.27054479718208313,-9.727641105651855,1.2078747749328613,-0.0010647244052961469,0.0157046839594841,-0.0138414166867733
18563090672312,0.23942017555236816,-9.678560256958008,1.2018892765045166,-0.0031941730994731188,0.02076212503015995,-0.01357523538172245
18563091909487,0.2849099934101105,-9.694122314453125,1.1887211799621582,0.0002661811013240367,0.0204959437251091,-0.01357523538172245
18563093146637,0.33039984107017517,-9.659406661987305,1.1994950771331787,-0.0002661811013240367,0.02262539230287075,-0.01783413253724575
18563094383837,0.333991140127182,-9.702502250671387,1.1456254720687866,0.0037265352439135313,0.0204959437251091,-0.01836649514734745
18563095620975,0.2968810200691223,-9.713275909423828,1.2066776752471924,0.004791259765625,0.0223592109978199,-0.010647243820130825
18563096858162,0.30885201692581177,-9.728838920593262,1.1887211799621582,0.0066545275039970875,0.0276828333735466,-0.0090501569211483
18563098095325,0.31962594389915466,-9.734824180603027,1.2234370708465576,0.005057440605014563,0.0271504707634449,-0.01117960549890995
18563099332487,0.29807811975479126,-9.731232643127441,1.2222399711608887,0.003460354171693325,0.0247548408806324,-0.010647243820130825
18563100569675,0.3208230435848236,-9.750386238098145,1.1599907875061035,0.0053236219100654125,0.02422248013317585,-0.01836649514734745
18563101806837,0.3064578175544739,-9.716867446899414,1.1623849868774414,0.005589802749454975,0.0247548408806324,-0.01117960549890995
18563103044025,0.30885201692581177,-9.72165584564209,1.1982979774475098,0.004791259765625,0.0316755510866642,-0.0114457868039608
18563104281175,0.3770867586135864,-9.707290649414062,1.1839327812194824,0.0021294488105922937,0.0276828333735466,-0.0173017717897892
18563105518337,0.33039984107017517,-9.762357711791992,1.2210428714752197,0.005855984054505825,0.0263519287109375,-0.01996358297765255
18563106755512,0.3627215623855591,-9.750386238098145,1.2437877655029297,0.008783976547420025,0.0300784632563591,-0.012510511092841625
18563107992687,0.35673606395721436,-9.725247383117676,1.217451572418213,0.010114881210029125,0.0306108258664608,-0.00931633822619915
18563109229850,0.34356793761253357,-9.736021041870117,1.215057373046875,0.00958251953125,0.02741665206849575,-0.0138414166867733
18563110467037,0.3315969407558441,-9.738415718078613,1.1875240802764893,0.0077192517928779125,0.02848137728869915,-0.0114457868039608
18563111704187,0.3387795388698578,-9.747992515563965,1.2198457717895508,0.00958251953125,0.0338049978017807,-0.0114457868039608
18563112941350,0.3902548849582672,-9.756372451782227,1.1827356815338135,0.012776692397892475,0.02555338479578495,-0.010114881210029125
18563114178512,0.38067808747291565,-9.725247383117676,1.1887211799621582,0.008517795242369175,0.02369011752307415,-0.01463996060192585
18563115415687,0.4058171808719635,-9.789891242980957,1.2066776752471924,0.01117960549890995,0.0314093679189682,-0.0119781494140625
18563116652862,0.3794809579849243,-9.7420072555542,1.194706678390503,0.0157046839594841,0.0276828333735466,-0.0029279920272529125
18563117890037,0.3579331636428833,-9.739612579345703,1.2042834758758545,0.0114457868039608,0.023956298828125,-0.0063883461989462376
18563119127200,0.3687070608139038,-9.738415718078613,1.212663173675537,0.015438503585755825,0.02502102218568325,-0.0071868896484375
18563120364375,0.41539400815963745,-9.75397777557373,1.1994950771331787,0.01357523538172245,0.02262539230287075,-0.0015970865497365594
18563121601550,0.41060560941696167,-9.75397777557373,1.194706678390503,0.0167694091796875,0.02022976242005825,-0.00452507846057415
18563122838700,0.37469255924224854,-9.715670585632324,1.2330138683319092,0.013042873702943325,0.0258195661008358,-0.00692070834338665
18563124075862,0.39145198464393616,-9.7420072555542,1.1994950771331787,0.01224433071911335,0.02608574740588665,-0.0090501569211483
18563125313062,0.3842693865299225,-9.716867446899414,1.235408067703247,0.01650322787463665,0.0258195661008358,-0.00958251953125
18563126550212,0.424970805644989,-9.745597839355469,1.1827356815338135,0.014373779296875,0.023956298828125,-0.008783976547420025
18563127787387,0.395043283700943,-9.771934509277344,1.212663173675537,0.013042873702943325,0.02422248013317585,-0.003460354171693325
18563129024562,0.4118027091026306,-9.791088104248047,1.1839327812194824,0.0119781494140625,0.02422248013317585,-0.0063883461989462376
18563130261737,0.41060560941696167,-9.771934509277344,1.2066776752471924,0.013042873702943325,0.02661811001598835,-0.004791259765625
18563131498875,0.4010287821292877,-9.801861763000488,1.2186486721038818,0.01597086526453495,0.0210283063352108,-0.0015970865497365594
18563132736050,0.44532153010368347,-9.81263542175293,1.1899182796478271,0.010647243820130825,0.0191650390625,-0.0053236219100654125
18563133973237,0.4118027091026306,-9.767146110534668,1.1839327812194824,0.0119781494140625,0.0247548408806324,-0.0053236219100654125
18563135210400,0.424970805644989,-9.806650161743164,1.2198457717895508,0.01224433071911335,0.02981228195130825,-0.0063883461989462376
18563136447575,0.4273650050163269,-9.806650161743164,1.1827356815338135,0.0162370465695858,0.02741665206849575,-0.0010647244052961469
18563137684737,0.42616790533065796,-9.816226959228516,1.1635820865631104,0.015438503585755825,0.0204959437251091,-0.0015970865497365594
18563138921900,0.42377370595932007,-9.822212219238281,1.2401964664459229,0.015172322280704975,0.0196974016726017,-0.0031941730994731188
18563140159062,0.3926490843296051,-9.77791976928711,1.192312479019165,0.0114457868039608,0.0186326764523983,-0.0039927163161337376
18563141396250,0.39863458275794983,-9.81263542175293,1.2042834758758545,0.01650322787463665,0.01783413253724575,-0.005057440605014563
18563142633412,0.4213795065879822,-9.786299705505371,1.2330138683319092,0.014373779296875,0.0181003138422966,-0.0031941730994731188
18563143870587,0.4357447028160095,-9.81024169921875,1.2102689743041992,0.010913425125181675,0.01703559048473835,0.0
18563145107750,0.42018240690231323,-9.792284965515137,1.2090718746185303,0.01463996060192585,0.01783413253724575,-0.0026618109550327063
18563146344925,0.3974374830722809,-9.761160850524902,1.2270283699035645,0.01171196810901165,0.0173017717897892,-0.0007985432748682797
18563147582087,0.4321534037590027,-9.80904483795166,1.237802267074585,0.014373779296875,0.012510511092841625,0.0005323622026480734
18563148819250,0.4596867263317108,-9.807847023010254,1.2030863761901855,0.0162370465695858,0.0119781494140625,-0.0010647244052961469
18563150056437,0.43095630407333374,-9.807847023010254,1.2401964664459229,0.01463996060192585,0.010381062515079975,-0.0021294488105922937
18563151293600,0.42616790533065796,-9.794679641723633,1.2677297592163086,0.0114457868039608,0.01597086526453495,-0.0037265352439135313
18563152530762,0.44532153010368347,-9.785102844238281,1.2653355598449707,0.01650322787463665,0.01171196810901165,-0.0018632676219567657
18563153767937,0.4405331015586853,-9.783905029296875,1.1887211799621582,0.015172322280704975,0.013309055007994175,-0.0005323622026480734
18563155005087,0.40701428055763245,-9.798270225524902,1.2222399711608887,0.014373779296875,0.0090501569211483,0.0007985432748682797
18563156242275,0.43933600187301636,-9.793481826782227,1.2342109680175781,0.012510511092841625,0.010647243820130825,0.0031941730994731188
18563157479425,0.46806642413139343,-9.834183692932129,1.2401964664459229,0.0119781494140625,0.013309055007994175,-0.0023956298828125
18563158716612,0.43933600187301636,-9.823410034179688,1.2485761642456055,0.0114457868039608,0.008783976547420025,0.0026618109550327063
18563159953800,0.45010992884635925,-9.827000617980957,1.1887211799621582,0.012776692397892475,0.003460354171693325,0.0005323622026480734
18563161190937,0.41060560941696167,-9.815030097961426,1.217451572418213,0.0181003138422966,-0.0005323622026480734,0.0
18563162428112,0.456095427274704,-9.768342971801758,1.2844892740249634,0.0167694091796875,0.00452507846057415,0.0015970865497365594
18563163665300,0.46327802538871765,-9.800664901733398,1.213860273361206,0.0138414166867733,0.008251613937318325,0.0
18563164902462,0.39863458275794983,-9.77791976928711,1.2042834758758545,0.015172322280704975,0.0042588976211845875,0.0015970865497365594
18563166139637,0.4441244304180145,-9.762357711791992,1.2018892765045166,0.0138414166867733,0.004791259765625,0.0002661811013240367
18563167376787,0.4429273307323456,-9.746795654296875,1.2737152576446533,0.0162370465695858,0.0031941730994731188,-0.0029279920272529125
18563168613975,0.44532153010368347,-9.782708168029785,1.212663173675537,0.015172322280704975,0.00692070834338665,0.0
18563169851125,0.43694180250167847,-9.787496566772461,1.2270283699035645,0.01889885775744915,0.0031941730994731188,-0.0013309054775163531
18563171088300,0.44771572947502136,-9.80904483795166,1.2330138683319092,0.0181003138422966,-0.0010647244052961469,0.0029279920272529125
18563172325450,0.46327802538871765,-9.765949249267578,1.2449848651885986,0.01703559048473835,-0.0002661811013240367,0.0031941730994731188
18563173562625,0.5039794445037842,-9.768342971801758,1.237802267074585,0.014373779296875,-0.006122165359556675,0.0071868896484375
18563174799812,0.4596867263317108,-9.801861763000488,1.2222399711608887,0.01783413253724575,-0.0018632676219567657,0.0031941730994731188
18563176036987,0.48243165016174316,-9.75517463684082,1.213860273361206,0.02262539230287075,-0.0013309054775163531,-0.0018632676219567657
18563177274162,0.43933600187301636,-9.787496566772461,1.2653355598449707,0.02076212503015995,-0.0063883461989462376,0.0002661811013240367
18563178511325,0.45848962664604187,-9.745597839355469,1.2545616626739502,0.0173017717897892,-0.0053236219100654125,0.0023956298828125
18563179748475,0.4441244304180145,-9.75158405303955,1.217451572418213,0.0167694091796875,-0.0066545275039970875,0.0063883461989462376
18563180985650,0.4213795065879822,-9.733627319335938,1.2282254695892334,0.0173017717897892,-0.00452507846057415,0.003460354171693325
18563182222825,0.4141969084739685,-9.759963035583496,1.2318167686462402,0.01650322787463665,-0.008251613937318325,0.00931633822619915
18563183459987,0.43095630407333374,-9.770737648010254,1.2449848651885986,0.013309055007994175,-0.007985432632267475,0.008783976547420025
18563184697162,0.3974374830722809,-9.757569313049316,1.213860273361206,0.0138414166867733,-0.004791259765625,0.0063883461989462376
18563185934300,0.3926490843296051,-9.783905029296875,1.216254472732544,0.01650322787463665,-0.005589802749454975,0.0037265352439135313
18563187171500,0.4082113802433014,-9.794679641723633,1.2114660739898682,0.01650322787463665,-0.00692070834338665,0.005057440605014563
18563188408675,0.3531447649002075,-9.81263542175293,1.2461819648742676,0.01756795309484005,-0.0002661811013240367,0.007453070487827063
18563189645825,0.39384618401527405,-9.819818496704102,1.237802267074585,0.0186326764523983,-0.0090501569211483,0.01224433071911335
18563190883012,0.3998316824436188,-9.829395294189453,1.2102689743041992,0.0173017717897892,-0.01117960549890995,0.00958251953125
18563192120200,0.4058171808719635,-9.817423820495605,1.191115379333496,0.01889885775744915,-0.005057440605014563,0.00958251953125
18563193357350,0.40701428055763245,-9.78869342803955,1.2186486721038818,0.015172322280704975,-0.00984870083630085,0.007985432632267475
18563194594512,0.3579331636428833,-9.832986831665039,1.2078747749328613,0.0167694091796875,-0.010114881210029125,0.01410759799182415
18563195831687,0.34596213698387146,-9.853337287902832,1.2210428714752197,0.0186326764523983,-0.01410759799182415,0.010114881210029125
18563197068850,0.365115761756897,-9.84256362915039,1.2270283699035645,0.01597086526453495,-0.01943122036755085,0.00984870083630085
18563198306037,0.3663128614425659,-9.86770248413086,1.2234370708465576,0.01756795309484005,-0.0191650390625,0.012510511092841625
18563199543200,0.34596213698387146,-9.880870819091797,1.2270283699035645,0.0173017717897892,-0.01357523538172245,0.008783976547420025
18563200780362,0.30526071786880493,-9.871294021606445,1.236605167388916,0.01597086526453495,-0.005855984054505825,0.013309055007994175
18563202017525,0.3818751871585846,-9.880870819091797,1.2653355598449707,0.0173017717897892,-0.010647243820130825,0.0220930315554142
18563203254700,0.3603273630142212,-9.877279281616211,1.2282254695892334,0.01836649514734745,-0.01463996060192585,0.014906140975654125
18563204491862,0.3315969407558441,-9.873687744140625,1.2880805730819702,0.0157046839594841,-0.0114457868039608,0.0167694091796875
18563205729037,0.31962594389915466,-9.823410034179688,1.2473790645599365,0.023956298828125,-0.0119781494140625,0.0181003138422966
18563206966200,0.31962594389915466,-9.86889934539795,1.2653355598449707,0.0181003138422966,-0.010913425125181675,0.01410759799182415
18563208203375,0.304063618183136,-9.840168952941895,1.2785037755966187,0.015172322280704975,-0.012510511092841625,0.01597086526453495
18563209440550,0.31842881441116333,-9.819818496704102,1.2844892740249634,0.01357523538172245,-0.01597086526453495,0.01889885775744915
18563210677712,0.363918662071228,-9.791088104248047,1.2749123573303223,0.014906140975654125,-0.015172322280704975,0.0204959437251091
18563211914875,0.2944868206977844,-9.819818496704102,1.2689268589019775,0.0215606689453125,-0.01597086526453495,0.02555338479578495
18563213152037,0.3734954595565796,-9.758766174316406,1.2952631711959839,0.01836649514734745,-0.01117960549890995,0.0196974016726017
18563214389212,0.3531447649002075,-9.758766174316406,1.2449848651885986,0.0186326764523983,-0.0114457868039608,0.02182685025036335
18563215626412,0.3770867586135864,-9.791088104248047,1.236605167388916,0.01783413253724575,-0.008783976547420025,0.0191650390625
18563216863575,0.3315969407558441,-9.768342971801758,1.238999366760254,0.014373779296875,-0.0119781494140625,0.0234239362180233
18563218100737,0.31962594389915466,-9.780314445495605,1.2294225692749023,0.012776692397892475,-0.0157046839594841,0.02422248013317585
18563219337875,0.3208230435848236,-9.799468040466309,1.2006921768188477,0.015438503585755825,-0.012776692397892475,0.0234239362180233
18563220575050,0.2992752194404602,-9.797073364257812,1.2761094570159912,0.0186326764523983,-0.01463996060192585,0.0263519287109375
18563221812237,0.32202014327049255,-9.771934509277344,1.2425906658172607,0.0181003138422966,-0.014906140975654125,0.02608574740588665
18563223049412,0.3315969407558441,-9.759963035583496,1.191115379333496,0.0138414166867733,-0.008783976547420025,0.02315775491297245
18563224286575,0.2861070930957794,-9.792284965515137,1.2270283699035645,0.015172322280704975,-0.0077192517928779125,0.0223592109978199
18563225523750,0.2825157940387726,-9.791088104248047,1.2270283699035645,0.01597086526453495,-0.013042873702943325,0.02262539230287075
18563226760912,0.27054479718208313,-9.81024169921875,1.2497732639312744,0.00984870083630085,-0.0157046839594841,0.02422248013317585
18563227998087,0.24660277366638184,-9.836577415466309,1.2557587623596191,0.0119781494140625,-0.00931633822619915,0.0186326764523983
18563229235250,0.27892449498176575,-9.815030097961426,1.2701239585876465,0.01117960549890995,-0.010913425125181675,0.01943122036755085
18563230472425,0.2777273952960968,-9.854534149169922,1.2713210582733154,0.0138414166867733,-0.0071868896484375,0.0173017717897892
18563231709587,0.22625206410884857,-9.86650562286377,1.2617442607879639,0.0119781494140625,-0.007985432632267475,0.0220930315554142
18563232946762,0.22744916379451752,-9.882067680358887,1.2641384601593018,0.010913425125181675,-0.010913425125181675,0.0234239362180233
18563234183912,0.2406172752380371,-9.928754806518555,1.2054805755615234,0.007453070487827063,-0.01117960549890995,0.01783413253724575
18563235421087,0.26815059781074524,-9.90361499786377,1.2797008752822876,0.00958251953125,-0.007985432632267475,0.0162370465695858
18563236658262,0.26336219906806946,-9.917980194091797,1.2437877655029297,0.008517795242369175,-0.0018632676219567657,0.01783413253724575
18563237895437,0.2561795711517334,-9.926360130310059,1.215057373046875,0.003460354171693325,-0.0031941730994731188,0.01943122036755085
18563239132612,0.26096799969673157,-9.920374870300293,1.2306196689605713,0.0026618109550327063,-0.005589802749454975,0.0167694091796875
18563240369787,0.2968810200691223,-9.885659217834473,1.2342109680175781,0.007985432632267475,-0.005057440605014563,0.0138414166867733
18563241606962,0.2753331959247589,-9.897629737854004,1.258152961730957,0.0021294488105922937,-0.0015970865497365594,0.01224433071911335
18563242844125,0.2322375625371933,-9.8784761428833,1.3120225667953491,0.0013309054775163531,-0.0010647244052961469,0.00984870083630085
18563244081287,0.28730419278144836,-9.891644477844238,1.2868834733963013,0.0015970865497365594,-0.0002661811013240367,0.014373779296875
18563245318450,0.3100491166114807,-9.898826599121094,1.2892776727676392,0.0037265352439135313,-0.0013309054775163531,0.0138414166867733
18563246555612,0.2885012924671173,-9.856928825378418,1.2785037755966187,0.003460354171693325,0.0,0.00931633822619915
18563247792787,0.2861070930957794,-9.882067680358887,1.2808979749679565,0.0023956298828125,0.0,0.012776692397892475
18563249029975,0.26575639843940735,-9.84615421295166,1.3180080652236938,0.0021294488105922937,0.0037265352439135313,0.006122165359556675
18563250267125,0.31962594389915466,-9.786299705505371,1.2641384601593018,-0.003460354171693325,-0.0039927163161337376,0.010913425125181675
18563251504312,0.2753331959247589,-9.763554573059082,1.2713210582733154,-0.0026618109550327063,0.0005323622026480734,0.012510511092841625
18563252741462,0.2537853717803955,-9.7791166305542,1.2797008752822876,-0.0007985432748682797,0.0021294488105922937,0.01463996060192585
18563253978637,0.27653029561042786,-9.724050521850586,1.3180080652236938,-0.0021294488105922937,-0.0029279920272529125,0.01597086526453495
18563255215812,0.28131869435310364,-9.75517463684082,1.2737152576446533,-0.0037265352439135313,0.0023956298828125,0.0077192517928779125
18563256452975,0.2513911724090576,-9.744400978088379,1.2557587623596191,-0.0029279920272529125,0.005589802749454975,0.010647243820130825
18563257690162,0.27892449498176575,-9.75397777557373,1.260547161102295,-0.0010647244052961469,0.0037265352439135313,0.010381062515079975
18563258927325,0.2645592987537384,-9.750386238098145,1.2773066759109497,-0.0013309054775163531,0.0007985432748682797,0.00984870083630085
18563260164487,0.2992752194404602,-9.72285270690918,1.2617442607879639,0.005057440605014563,-0.004791259765625,0.01171196810901165
18563261401650,0.31364041566848755,-9.725247383117676,1.2749123573303223,0.0063883461989462376,0.0023956298828125,0.012510511092841625
18563262638825,0.27892449498176575,-9.697713851928711,1.2641384601593018,0.005855984054505825,0.0037265352439135313,0.0114457868039608
18563263875987,0.27054479718208313,-9.732430458068848,1.2713210582733154,0.007453070487827063,0.0037265352439135313,0.007453070487827063
18563265113175,0.27653029561042786,-9.72165584564209,1.2282254695892334,0.00692070834338665,0.005057440605014563,0.010913425125181675
18563266350337,0.272938996553421,-9.746795654296875,1.2294225692749023,0.0010647244052961469,0.003460354171693325,0.0167694091796875
18563267587500,0.28969842195510864,-9.708487510681152,1.2665326595306396,0.0077192517928779125,0.0013309054775163531,0.014906140975654125
18563268824662,0.3232172429561615,-9.75278091430664,1.2533645629882812,0.004791259765625,0.012510511092841625,0.0063883461989462376
18563270061837,0.3076549172401428,-9.739612579345703,1.2701239585876465,0.003460354171693325,0.0090501569211483,0.0119781494140625
18563271299012,0.2825157940387726,-9.728838920593262,1.2461819648742676,0.0077192517928779125,0.003460354171693325,0.010913425125181675
18563272536175,0.2885012924671173,-9.771934509277344,1.2545616626739502,0.0037265352439135313,0.005057440605014563,0.010647243820130825
18563273773350,0.3172317147254944,-9.768342971801758,1.260547161102295,0.0063883461989462376,0.007985432632267475,0.013309055007994175
18563275010525,0.27413609623908997,-9.750386238098145,1.238999366760254,0.007985432632267475,0.0023956298828125,0.0138414166867733
18563276247675,0.2597709000110626,-9.715670585632324,1.2725181579589844,0.008517795242369175,0.0077192517928779125,0.01650322787463665
18563277484850,0.2861070930957794,-9.727641105651855,1.2449848651885986,0.008517795242369175,0.010114881210029125,0.010114881210029125
18563278722025,0.27413609623908997,-9.78869342803955,1.2521674633026123,0.008517795242369175,0.007985432632267475,0.010913425125181675
18563279959200,0.28371289372444153,-9.783905029296875,1.2761094570159912,0.00958251953125,0.0066545275039970875,0.010381062515079975
18563281196362,0.2861070930957794,-9.739612579345703,1.260547161102295,0.007453070487827063,0.005855984054505825,0.01117960549890995
18563282433537,0.3148375153541565,-9.792284965515137,1.2425906658172607,0.010114881210029125,0.0071868896484375,0.012510511092841625
18563283670700,0.3280056416988373,-9.765949249267578,1.238999366760254,0.013042873702943325,0.0039927163161337376,0.00984870083630085
18563284907875,0.31603461503982544,-9.795876502990723,1.260547161102295,0.008517795242369175,0.005589802749454975,0.013309055007994175
18563286145050,0.33518823981285095,-9.783905029296875,1.2509703636169434,0.008783976547420025,0.003460354171693325,0.014906140975654125
18563287382212,0.27413609623908997,-9.77672290802002,1.2545616626739502,0.006122165359556675,0.005589802749454975,0.010114881210029125
18563288619375,0.3172317147254944,-9.783905029296875,1.2773066759109497,0.007985432632267475,0.008251613937318325,0.01463996060192585
18563289856550,0.363918662071228,-9.807847023010254,1.2737152576446533,0.0053236219100654125,0.00931633822619915,0.01703559048473835
18563291093725,0.31962594389915466,-9.7791166305542,1.2222399711608887,0.0031941730994731188,0.004791259765625,0.0138414166867733
18563292330875,0.2968810200691223,-9.800664901733398,1.235408067703247,0.0029279920272529125,0.005855984054505825,0.0157046839594841
18563293568050,0.30885201692581177,-9.7791166305542,1.237802267074585,0.0021294488105922937,0.004791259765625,0.0157046839594841
18563294805225,0.3232172429561615,-9.822212219238281,1.2078747749328613,0.0031941730994731188,0.00984870083630085,0.013042873702943325
18563296042387,0.2825157940387726,-9.825803756713867,1.2629413604736328,0.0029279920272529125,0.0077192517928779125,0.013309055007994175
18563297279562,0.30526071786880493,-9.765949249267578,1.2198457717895508,0.0031941730994731188,0.008783976547420025,0.0173017717897892
18563298516725,0.3076549172401428,-9.785102844238281,1.260547161102295,0.008783976547420025,0.0042588976211845875,0.01357523538172245
18563299753900,0.2932897210121155,-9.768342971801758,1.2677297592163086,0.0026618109550327063,0.004791259765625,0.013042873702943325
18563300991062,0.2992752194404602,-9.785102844238281,1.291671872138977,0.0021294488105922937,0.0042588976211845875,0.0173017717897892
18563302228250,0.2992752194404602,-9.783905029296875,1.2509703636169434,0.008783976547420025,0.0013309054775163531,0.02182685025036335
18563303465412,0.2454056739807129,-9.80904483795166,1.2437877655029297,0.005855984054505825,0.005589802749454975,0.0138414166867733
18563304702575,0.3100491166114807,-9.823410034179688,1.2318167686462402,0.005589802749454975,0.008251613937318325,0.015438503585755825
18563305939750,0.32441434264183044,-9.822212219238281,1.2461819648742676,0.00452507846057415,0.0005323622026480734,0.010913425125181675
18563307176912,0.27653029561042786,-9.813833236694336,1.2557587623596191,0.0066545275039970875,0.0010647244052961469,0.0119781494140625
18563308414075,0.31364041566848755,-9.837775230407715,1.192312479019165,0.0029279920272529125,0.0026618109550327063,0.0186326764523983
18563309651262,0.26815059781074524,-9.81263542175293,1.2090718746185303,-0.0005323622026480734,0.005855984054505825,0.01783413253724575
18563310888412,0.28371289372444153,-9.81024169921875,1.216254472732544,0.0026618109550327063,0.005057440605014563,0.01996358297765255
18563312125600,0.2885012924671173,-9.81024169921875,1.2282254695892334,0.0021294488105922937,0.0010647244052961469,0.0162370465695858
18563313362762,0.3076549172401428,-9.780314445495605,1.1851298809051514,-0.0005323622026480734,0.0002661811013240367,0.01171196810901165
18563314599925,0.3148375153541565,-9.824606895446777,1.2222399711608887,-0.0026618109550327063,0.0039927163161337376,0.014906140975654125
18563315837112,0.2693476974964142,-9.81024169921875,1.191115379333496,-0.0029279920272529125,0.00452507846057415,0.01836649514734745
18563317074275,0.32441434264183044,-9.819818496704102,1.215057373046875,0.0005323622026480734,-0.0029279920272529125,0.0204959437251091
18563318311450,0.3016694188117981,-9.787496566772461,1.2258312702178955,0.0018632676219567657,-0.0013309054775163531,0.01783413253724575
18563319548612,0.2932897210121155,-9.84495735168457,1.212663173675537,0.003460354171693325,-0.003460354171693325,0.01463996060192585
18563320785787,0.3016694188117981,-9.818621635437012,1.2066776752471924,0.0007985432748682797,-0.0026618109550327063,0.01597086526453495
18563322022937,0.3447650372982025,-9.821015357971191,1.2449848651885986,-0.0002661811013240367,-0.0010647244052961469,0.01836649514734745
18563323260137,0.29209262132644653,-9.850942611694336,1.2258312702178955,-0.0023956298828125,-0.0013309054775163531,0.014373779296875
18563324497300,0.30286651849746704,-9.824606895446777,1.215057373046875,-0.00958251953125,-0.0031941730994731188,0.01597086526453495
18563325734462,0.3256114423274994,-9.853337287902832,1.2114660739898682,-0.0021294488105922937,-0.0042588976211845875,0.02129448764026165
18563326971625,0.3076549172401428,-9.797073364257812,1.1959037780761719,-0.0021294488105922937,-0.0037265352439135313,0.01836649514734745
18563328208800,0.3016694188117981,-9.781511306762695,1.1994950771331787,-0.0031941730994731188,-0.0039927163161337376,0.01996358297765255
18563329445962,0.2825157940387726,-9.77672290802002,1.2425906658172607,-0.0042588976211845875,-0.0026618109550327063,0.01889885775744915
18563330683137,0.2968810200691223,-9.767146110534668,1.2342109680175781,-0.005057440605014563,-0.0026618109550327063,0.0167694091796875
18563331920312,0.23343466222286224,-9.786299705505371,1.2222399711608887,-0.0039927163161337376,-0.0018632676219567657,0.0157046839594841
18563333157487,0.27054479718208313,-9.798270225524902,1.213860273361206,-0.005057440605014563,0.0,0.010381062515079975
18563334394637,0.32680854201316833,-9.829395294189453,1.2282254695892334,-0.00452507846057415,-0.0071868896484375,0.010647243820130825
18563335631825,0.33279404044151306,-9.793481826782227,1.2497732639312744,-0.0018632676219567657,-0.008251613937318325,0.014373779296875
18563336868975,0.2801215946674347,-9.799468040466309,1.2030863761901855,-0.0066545275039970875,-0.0071868896484375,0.01597086526453495
18563338106162,0.29568392038345337,-9.771934509277344,1.1803414821624756,-0.0053236219100654125,-0.008517795242369175,0.0186326764523983
18563339343312,0.28730419278144836,-9.771934509277344,1.192312479019165,-0.0063883461989462376,-0.0026618109550327063,0.015438503585755825
18563340580500,0.3148375153541565,-9.801861763000488,1.2258312702178955,-0.005855984054505825,-0.007985432632267475,0.014373779296875
18563341817662,0.29568392038345337,-9.80904483795166,1.2258312702178955,0.0037265352439135313,-0.00984870083630085,0.014906140975654125
18563343054850,0.2561795711517334,-9.791088104248047,1.192312479019165,0.0015970865497365594,-0.0063883461989462376,0.0162370465695858
18563344292012,0.2908955216407776,-9.794679641723633,1.2054805755615234,-0.003460354171693325,-0.0077192517928779125,0.014906140975654125
18563345529162,0.27054479718208313,-9.817423820495605,1.2413935661315918,-0.0029279920272529125,-0.0090501569211483,0.01463996060192585
18563346766325,0.28371289372444153,-9.81263542175293,1.2401964664459229,-0.0007985432748682797,-0.007985432632267475,0.01597086526453495
18563348003512,0.2717418968677521,-9.799468040466309,1.1899182796478271,-0.010647243820130825,-0.010381062515079975,0.012776692397892475
18563349240650,0.22385786473751068,-9.791088104248047,1.212663173675537,-0.003460354171693325,-0.00958251953125,0.015438503585755825
18563350477850,0.25737667083740234,-9.806650161743164,1.216254472732544,-0.003460354171693325,-0.007985432632267475,0.0162370465695858
18563351715012,0.25258827209472656,-9.759963035583496,1.2294225692749023,0.0037265352439135313,-0.014373779296875,0.0157046839594841
18563352952187,0.2801215946674347,-9.77672290802002,1.2018892765045166,-0.0005323622026480734,-0.010647243820130825,0.012510511092841625
18563354189375,0.2693476974964142,-9.782708168029785,1.2054805755615234,0.0018632676219567657,-0.0119781494140625,0.007985432632267475
18563355426525,0.2825157940387726,-9.783905029296875,1.2246341705322266,-0.0010647244052961469,-0.01650322787463665,0.013309055007994175
18563356663700,0.2585738003253937,-9.781511306762695,1.2222399711608887,-0.0013309054775163531,-0.00958251953125,0.015172322280704975
18563357900862,0.24420857429504395,-9.762357711791992,1.2294225692749023,-0.0029279920272529125,-0.00692070834338665,0.013309055007994175
18563359138037,0.28131869435310364,-9.770737648010254,1.1971008777618408,-0.0005323622026480734,-0.0090501569211483,0.00958251953125
18563360375200,0.26336219906806946,-9.720458984375,1.2198457717895508,0.0063883461989462376,-0.00984870083630085,0.0090501569211483
18563361612375,0.2645592987537384,-9.716867446899414,1.2234370708465576,0.0023956298828125,-0.013042873702943325,0.01224433071911335
18563362849550,0.23702597618103027,-9.72165584564209,1.259350061416626,0.0042588976211845875,-0.010647243820130825,0.00931633822619915
18563364086725,0.24181437492370605,-9.68933391571045,1.258152961730957,0.003460354171693325,-0.0090501569211483,0.00984870083630085
18563365323900,0.25258827209472656,-9.710882186889648,1.2342109680175781,0.0066545275039970875,-0.005589802749454975,0.007453070487827063
18563366561050,0.2753331959247589,-9.733627319335938,1.258152961730957,0.0071868896484375,-0.0071868896484375,0.0114457868039608
18563367798225,0.2597709000110626,-9.730035781860352,1.2222399711608887,0.013042873702943325,-0.005057440605014563,0.008783976547420025
18563369035387,0.22864626348018646,-9.710882186889648,1.1659762859344482,0.008783976547420025,-0.010114881210029125,0.00692070834338665
18563370272575,0.25737667083740234,-9.694122314453125,1.213860273361206,0.0039927163161337376,-0.010647243820130825,0.008251613937318325
18563371509737,0.2621650993824005,-9.715670585632324,1.2078747749328613,0.008783976547420025,-0.0071868896484375,0.008517795242369175
18563372746912,0.243011474609375,-9.72285270690918,1.2629413604736328,0.0167694091796875,-0.0026618109550327063,0.00692070834338665
18563373984075,0.2190694510936737,-9.731232643127441,1.2437877655029297,0.012776692397892475,-0.006122165359556675,0.0066545275039970875
18563375221237,0.2621650993824005,-9.736021041870117,1.2318167686462402,0.00984870083630085,-0.0029279920272529125,0.0013309054775163531
18563376458412,0.2861070930957794,-9.720458984375,1.2018892765045166,0.0119781494140625,-0.0053236219100654125,-0.0026618109550327063
18563377695562,0.243011474609375,-9.743204116821289,1.2234370708465576,0.0119781494140625,-0.0063883461989462376,0.0015970865497365594
18563378932737,0.25258827209472656,-9.736021041870117,1.2342109680175781,0.008783976547420025,-0.0063883461989462376,0.0029279920272529125
18563380169937,0.24660277366638184,-9.716867446899414,1.216254472732544,0.0114457868039608,-0.00452507846057415,0.0029279920272529125
18563381407100,0.2106897532939911,-9.727641105651855,1.2306196689605713,0.01410759799182415,-0.012510511092841625,0.0021294488105922937
18563382644262,0.272938996553421,-9.764751434326172,1.256955862045288,0.014373779296875,-0.010647243820130825,0.003460354171693325
18563383881425,0.2454056739807129,-9.737218856811523,1.237802267074585,0.013309055007994175,0.0,0.0021294488105922937
18563385118600,0.2561795711517334,-9.733627319335938,1.236605167388916,0.0215606689453125,-0.003460354171693325,-0.0039927163161337376
18563386355762,0.27413609623908997,-9.708487510681152,1.238999366760254,0.01783413253724575,-0.0053236219100654125,-0.0015970865497365594
18563387592925,0.29568392038345337,-9.718064308166504,1.2342109680175781,0.01597086526453495,0.0018632676219567657,0.0021294488105922937
18563388830100,0.2621650993824005,-9.709685325622559,1.236605167388916,0.015172322280704975,-0.0007985432748682797,-0.0031941730994731188
18563390067287,0.272938996553421,-9.763554573059082,1.235408067703247,0.01597086526453495,-0.0039927163161337376,0.0002661811013240367
18563391304437,0.2849099934101105,-9.731232643127441,1.2258312702178955,0.01943122036755085,-0.00452507846057415,-0.0023956298828125
18563392541612,0.3016694188117981,-9.769539833068848,1.216254472732544,0.01463996060192585,0.0002661811013240367,-0.0026618109550327063
18563393778762,0.27892449498176575,-9.806650161743164,1.258152961730957,0.01836649514734745,0.0021294488105922937,-0.0053236219100654125
18563395015962,0.272938996553421,-9.768342971801758,1.258152961730957,0.01650322787463665,-0.003460354171693325,-0.0066545275039970875
18563396253125,0.29209262132644653,-9.738415718078613,1.2306196689605713,0.0210283063352108,-0.0013309054775163531,-0.005589802749454975
18563397490300,0.2585738003253937,-9.75397777557373,1.2413935661315918,0.023956298828125,0.0005323622026480734,-0.0015970865497365594
18563398727462,0.2561795711517334,-9.756372451782227,1.2437877655029297,0.0220930315554142,0.0018632676219567657,-0.0071868896484375
18563399964637,0.26575639843940735,-9.761160850524902,1.2270283699035645,0.01836649514734745,0.0007985432748682797,-0.007985432632267475
18563401201812,0.2849099934101105,-9.75397777557373,1.2497732639312744,0.014373779296875,0.0018632676219567657,-0.010114881210029125
18563402438975,0.31603461503982544,-9.746795654296875,1.2617442607879639,0.01597086526453495,0.0018632676219567657,-0.0063883461989462376
18563403676125,0.29568392038345337,-9.795876502990723,1.3048399686813354,0.0162370465695858,0.0,-0.005589802749454975
18563404913300,0.304063618183136,-9.800664901733398,1.3084312677383423,0.0210283063352108,0.0029279920272529125,-0.005855984054505825
18563406150475,0.28371289372444153,-9.789891242980957,1.2533645629882812,0.0244886614382267,0.0021294488105922937,-0.005855984054505825
18563407387637,0.3124433159828186,-9.763554573059082,1.216254472732544,0.0167694091796875,0.0039927163161337376,-0.0053236219100654125
18563408624800,0.3232172429561615,-9.806650161743164,1.2306196689605713,0.0167694091796875,0.0037265352439135313,-0.010114881210029125
18563409861987,0.33758243918418884,-9.767146110534668,1.2617442607879639,0.0196974016726017,0.0021294488105922937,-0.00984870083630085
18563411099150,0.2777273952960968,-9.77791976928711,1.2952631711959839,0.0196974016726017,0.0053236219100654125,-0.008251613937318325
18563412336325,0.28969842195510864,-9.828198432922363,1.2533645629882812,0.01410759799182415,0.005589802749454975,-0.0042588976211845875
18563413573500,0.3292027413845062,-9.78869342803955,1.292868971824646,0.00958251953125,0.0026618109550327063,-0.0071868896484375
18563414810662,0.3232172429561615,-9.780314445495605,1.2844892740249634,0.01463996060192585,0.00692070834338665,-0.0029279920272529125
18563416047837,0.3555389642715454,-9.787496566772461,1.2330138683319092,0.01650322787463665,0.007453070487827063,-0.0023956298828125
18563417285000,0.29209262132644653,-9.831789016723633,1.2617442607879639,0.01410759799182415,0.005057440605014563,-0.007453070487827063
18563418522175,0.31124621629714966,-9.821015357971191,1.258152961730957,0.01463996060192585,0.0039927163161337376,-0.008251613937318325
18563419759337,0.31842881441116333,-9.818621635437012,1.2509703636169434,0.0186326764523983,0.0071868896484375,-0.008783976547420025
18563420996525,0.2932897210121155,-9.81143856048584,1.2413935661315918,0.01756795309484005,0.00984870083630085,-0.01171196810901165
18563422233675,0.33279404044151306,-9.823410034179688,1.2485761642456055,0.015172322280704975,0.0063883461989462376,-0.0119781494140625
18563423470850,0.34835633635520935,-9.81263542175293,1.2844892740249634,0.015438503585755825,0.00452507846057415,-0.0063883461989462376
18563424708012,0.30047231912612915,-9.831789016723633,1.2880805730819702,0.012776692397892475,0.003460354171693325,-0.010114881210029125
18563425945175,0.31842881441116333,-9.858125686645508,1.212663173675537,0.013309055007994175,0.0090501569211483,-0.00984870083630085
18563427182350,0.2801215946674347,-9.813833236694336,1.2856863737106323,0.010647243820130825,0.00984870083630085,-0.01171196810901165
18563428419537,0.3447650372982025,-9.852140426635742,1.2114660739898682,0.01117960549890995,0.006122165359556675,-0.008783976547420025
18563429656700,0.3292027413845062,-9.847352027893066,1.2677297592163086,0.0119781494140625,0.0053236219100654125,-0.010114881210029125
18563430893875,0.3423708379268646,-9.874884605407715,1.2665326595306396,0.00958251953125,0.005855984054505825,-0.0114457868039608
18563432131025,0.3387795388698578,-9.86889934539795,1.2270283699035645,0.00958251953125,0.005855984054505825,-0.003460354171693325
18563433368200,0.2992752194404602,-9.889249801635742,1.2533645629882812,0.01171196810901165,0.004791259765625,-0.008251613937318325
18563434605387,0.3531447649002075,-9.858125686645508,1.2401964664459229,0.0053236219100654125,0.010114881210029125,-0.007453070487827063
18563435842550,0.32202014327049255,-9.830592155456543,1.2497732639312744,0.0005323622026480734,0.008517795242369175,-0.006122165359556675
18563437079712,0.3471592366695404,-9.813833236694336,1.2976573705673218,0.007453070487827063,0.005589802749454975,-0.0071868896484375
18563438316875,0.3363853394985199,-9.84495735168457,1.2641384601593018,0.0053236219100654125,0.005589802749454975,-0.008783976547420025
