timestamp_ns,accel_x,accel_y,accel_z,gyro_x,gyro_y,gyro_z
18258314518900,0.9169792532920837,-9.718064308166504,2.123656988143921,0.02369011752307415,0.0234239362180233,-0.01783413253724575
18258315756325,0.9002198576927185,-9.734824180603027,2.096123695373535,0.02555338479578495,0.02661811001598835,-0.013042873702943325
18258316993737,0.8750807046890259,-9.725247383117676,2.094926595687866,0.02182685025036335,0.0268842913210392,-0.008517795242369175
18258318231162,0.9002198576927185,-9.726444244384766,2.1523873805999756,0.02076212503015995,0.02661811001598835,-0.010913425125181675
18258319468575,0.9169792532920837,-9.715670585632324,2.126051187515259,0.023956298828125,0.02555338479578495,-0.00958251953125
18258320705975,0.910993754863739,-9.765949249267578,2.1296424865722656,0.0234239362180233,0.02794901467859745,-0.010913425125181675
18258321943387,0.9241618514060974,-9.744400978088379,2.097320795059204,0.01889885775744915,0.0215606689453125,-0.01224433071911335
18258323180812,0.9169792532920837,-9.732430458068848,2.1152772903442383,0.01836649514734745,0.02076212503015995,-0.006122165359556675
18258324418225,0.9313444495201111,-9.749189376831055,2.103306293487549,0.01783413253724575,0.0258195661008358,-0.0066545275039970875
18258325655662,0.9361328482627869,-9.747992515563965,2.0913352966308594,0.0173017717897892,0.02555338479578495,-0.010114881210029125
18258326893062,0.9445126056671143,-9.771934509277344,2.0853497982025146,0.01463996060192585,0.02262539230287075,-0.0066545275039970875
18258328130487,0.8906430602073669,-9.7791166305542,2.049436569213867,0.02076212503015995,0.02076212503015995,-0.0029279920272529125
18258329367900,0.9217676520347595,-9.762357711791992,2.0889410972595215,0.0162370465695858,0.02555338479578495,-0.0039927163161337376
18258330605312,0.9421183466911316,-9.757569313049316,2.0865468978881836,0.01117960549890995,0.0210283063352108,-0.0053236219100654125
18258331842725,0.9157821536064148,-9.75397777557373,2.10210919380188,0.01171196810901165,0.01996358297765255,-0.005589802749454975
18258333080150,0.889445960521698,-9.75517463684082,2.078167200088501,0.005589802749454975,0.02129448764026165,-0.005057440605014563
18258334317550,0.9457097053527832,-9.756372451782227,2.056619167327881,0.00692070834338665,0.01996358297765255,-0.00931633822619915
18258335554975,0.9433155059814453,-9.750386238098145,2.073378801345825,0.01171196810901165,0.0220930315554142,-0.0029279920272529125
18258336792387,0.9145850539207458,-9.744400978088379,2.0865468978881836,0.0066545275039970875,0.0196974016726017,-0.0023956298828125
18258338029812,0.8643068075180054,-9.738415718078613,2.103306293487549,0.005589802749454975,0.01650322787463665,-0.0029279920272529125
18258339267225,0.9145850539207458,-9.713275909423828,2.0937294960021973,0.010381062515079975,0.0181003138422966,0.0021294488105922937
18258340504637,0.9265560507774353,-9.75517463684082,2.0602104663848877,0.0063883461989462376,0.02022976242005825,-0.003460354171693325
18258341742050,0.9253589510917664,-9.756372451782227,2.076970100402832,-0.0010647244052961469,0.0247548408806324,-0.0029279920272529125
18258342979475,0.889445960521698,-9.77791976928711,2.1559786796569824,0.0031941730994731188,0.0157046839594841,0.0015970865497365594
18258344216875,0.9277531504631042,-9.72165584564209,2.120065689086914,0.0026618109550327063,0.0138414166867733,-0.0026618109550327063
18258345454312,0.9002198576927185,-9.780314445495605,2.07936429977417,0.0002661811013240367,0.01650322787463665,0.0021294488105922937
18258346691712,0.9169792532920837,-9.731232643127441,2.050633668899536,-0.0005323622026480734,0.01703559048473835,0.005057440605014563
18258347929137,0.9133879542350769,-9.757569313049316,2.0889410972595215,-0.0010647244052961469,0.0157046839594841,0.00692070834338665
18258349166562,0.8990227580070496,-9.7420072555542,2.0889410972595215,0.0021294488105922937,0.01996358297765255,0.008783976547420025
18258350403962,0.933738648891449,-9.791088104248047,2.054224967956543,-0.0021294488105922937,0.01597086526453495,0.00452507846057415
18258351641375,0.9457097053527832,-9.815030097961426,2.094926595687866,-0.006122165359556675,0.010647243820130825,0.00958251953125
18258352878812,0.9385270476341248,-9.821015357971191,2.0877439975738525,-0.0042588976211845875,0.0114457868039608,0.00958251953125
18258354116225,0.8966285586357117,-9.786299705505371,2.049436569213867,-0.007985432632267475,0.010381062515079975,0.00958251953125
18258355353625,0.9397241473197937,-9.78869342803955,2.0590133666992188,-0.00984870083630085,0.00958251953125,0.012776692397892475
18258356591050,0.9516952037811279,-9.77791976928711,2.098517894744873,-0.0037265352439135313,0.00692070834338665,0.0138414166867733
18258357828462,0.9241618514060974,-9.794679641723633,2.0889410972595215,-0.005057440605014563,0.0063883461989462376,0.015172322280704975
18258359065875,0.93254154920578,-9.75517463684082,2.0841526985168457,-0.0066545275039970875,0.00452507846057415,0.0138414166867733
18258360303287,0.910993754863739,-9.769539833068848,2.0841526985168457,-0.0029279920272529125,0.005057440605014563,0.0173017717897892
18258361540712,0.9373299479484558,-9.781511306762695,2.1164743900299072,-0.0077192517928779125,0.008251613937318325,0.01783413253724575
18258362778137,0.9145850539207458,-9.740809440612793,2.122459888458252,-0.01357523538172245,0.0063883461989462376,0.01597086526453495
18258364015550,0.9265560507774353,-9.75158405303955,2.1068975925445557,-0.013309055007994175,-0.0010647244052961469,0.01703559048473835
18258365252950,0.94930100440979,-9.75158405303955,2.0841526985168457,-0.0077192517928779125,0.00452507846057415,0.0162370465695858
18258366490362,0.9923965930938721,-9.746795654296875,2.0638017654418945,-0.010647243820130825,0.0023956298828125,0.0204959437251091
18258367727787,0.9624691009521484,-9.715670585632324,2.0685904026031494,-0.01357523538172245,0.0002661811013240367,0.02315775491297245
18258368965212,1.0127472877502441,-9.692925453186035,2.050633668899536,-0.0114457868039608,-0.0007985432748682797,0.02369011752307415
18258370202625,0.9181763529777527,-9.703699111938477,2.0602104663848877,-0.0173017717897892,0.005057440605014563,0.0181003138422966
18258371440012,0.9648633003234863,-9.703699111938477,2.05781626701355,-0.0167694091796875,-0.003460354171693325,0.0228915736079216
18258372677450,0.9624691009521484,-9.75158405303955,2.0853497982025146,-0.01224433071911335,-0.0018632676219567657,0.0292799212038517
18258373914862,0.9660604000091553,-9.738415718078613,2.0590133666992188,-0.0119781494140625,-0.00452507846057415,0.0282151959836483
18258375152275,0.9265560507774353,-9.745597839355469,2.0697875022888184,-0.0157046839594841,-0.007453070487827063,0.0271504707634449
18258376389712,0.950498104095459,-9.767146110534668,2.0697875022888184,-0.012776692397892475,-0.005589802749454975,0.0276828333735466
18258377627100,0.933738648891449,-9.761160850524902,2.0470423698425293,-0.01703559048473835,-0.0066545275039970875,0.02741665206849575
18258378864537,0.9133879542350769,-9.758766174316406,2.0171148777008057,-0.01889885775744915,-0.00692070834338665,0.0268842913210392
18258380101950,0.9085995554924011,-9.750386238098145,2.074575901031494,-0.0119781494140625,-0.00931633822619915,0.02262539230287075
18258381339362,0.9014169573783875,-9.81263542175293,2.0697875022888184,-0.0191650390625,-0.007985432632267475,0.0247548408806324
18258382576775,0.9050082564353943,-9.758766174316406,2.0482394695281982,-0.0234239362180233,-0.0039927163161337376,0.0306108258664608
18258383814212,0.8750807046890259,-9.762357711791992,2.074575901031494,-0.0244886614382267,-0.00692070834338665,0.0258195661008358
18258385051600,0.8619126081466675,-9.764751434326172,2.0219032764434814,-0.02555338479578495,-0.01357523538172245,0.0258195661008358
18258386289012,0.8750807046890259,-9.780314445495605,2.0254945755004883,-0.0244886614382267,-0.014906140975654125,0.02262539230287075
18258387526450,0.8750807046890259,-9.745597839355469,2.0458452701568604,-0.02794901467859745,-0.01463996060192585,0.02262539230287075
18258388763850,0.849941611289978,-9.758766174316406,2.0470423698425293,-0.02555338479578495,-0.01597086526453495,0.02422248013317585
18258390001262,0.8906430602073669,-9.750386238098145,2.078167200088501,-0.02794901467859745,-0.01650322787463665,0.02502102218568325
18258391238675,0.8810662031173706,-9.725247383117676,2.036268472671509,-0.0271504707634449,-0.01703559048473835,0.0244886614382267
18258392476112,0.829590916633606,-9.701305389404297,2.0410568714141846,-0.03087700717151165,-0.0138414166867733,0.02315775491297245
18258393713525,0.9085995554924011,-9.727641105651855,2.054224967956543,-0.0314093679189682,-0.01224433071911335,0.0196974016726017
18258394950937,0.9169792532920837,-9.733627319335938,2.050633668899536,-0.0346035435795784,-0.01650322787463665,0.0157046839594841
18258396188362,0.8930372595787048,-9.695320129394531,2.0219032764434814,-0.0324740931391716,-0.01597086526453495,0.02369011752307415
18258397425762,0.9074024558067322,-9.68694019317627,2.0231003761291504,-0.0311431884765625,-0.013042873702943325,0.01996358297765255
18258398663175,0.888248860836029,-9.683348655700684,2.0638017654418945,-0.0314093679189682,-0.02022976242005825,0.0186326764523983
18258399900600,0.8966285586357117,-9.679757118225098,2.0458452701568604,-0.0338049978017807,-0.01889885775744915,0.015438503585755825
18258401138012,0.8918401598930359,-9.68574333190918,2.055422067642212,-0.03087700717151165,-0.0157046839594841,0.013309055007994175
18258402375425,0.871489405632019,-9.692925453186035,2.0374655723571777,-0.0343373604118824,-0.01224433071911335,0.01783413253724575
18258403612862,0.8918401598930359,-9.680954933166504,2.011129379272461,-0.0343373604118824,-0.0173017717897892,0.0173017717897892
18258404850262,0.8750807046890259,-9.649829864501953,2.0721817016601562,-0.0327402763068676,-0.0167694091796875,0.01650322787463665
18258406087687,0.8930372595787048,-9.651026725769043,2.080561399459839,-0.03087700717151165,-0.01703559048473835,0.01410759799182415
18258407325100,0.8463503122329712,-9.680954933166504,2.0602104663848877,-0.0346035435795784,-0.0196974016726017,0.0191650390625
18258408562512,0.8643068075180054,-9.648633003234863,2.0171148777008057,-0.0348697230219841,-0.02422248013317585,0.0167694091796875
18258409799925,0.8942343592643738,-9.684545516967773,1.9907786846160889,-0.0348697230219841,-0.02076212503015995,0.015438503585755825
18258411037337,0.8571242094039917,-9.640253067016602,2.01232647895813,-0.0319417305290699,-0.01889885775744915,0.0157046839594841
18258412274775,0.8571242094039917,-9.679757118225098,2.054224967956543,-0.0316755510866642,-0.0210283063352108,0.01889885775744915
18258413512162,0.8942343592643738,-9.657012939453125,2.0231003761291504,-0.0324740931391716,-0.0210283063352108,0.02022976242005825
18258414749600,0.889445960521698,-9.645041465759277,2.0207061767578125,-0.0322079136967659,-0.02502102218568325,0.0196974016726017
18258415987012,0.8619126081466675,-9.6618013381958,2.0697875022888184,-0.033272635191679,-0.0263519287109375,0.0138414166867733
18258417224425,0.8583213090896606,-9.599552154541016,2.01232647895813,-0.0292799212038517,-0.0247548408806324,0.0157046839594841
18258418461837,0.8535329103469849,-9.627084732055664,2.0171148777008057,-0.0268842913210392,-0.0263519287109375,0.01889885775744915
18258419699250,0.8631097078323364,-9.640253067016602,1.9823989868164062,-0.0367329902946949,-0.01996358297765255,0.01171196810901165
18258420936662,0.8822633624076843,-9.648633003234863,1.9907786846160889,-0.02901373989880085,-0.02661811001598835,0.01224433071911335
18258422174087,0.8355764150619507,-9.648633003234863,2.0171148777008057,-0.0271504707634449,-0.0271504707634449,0.01597086526453495
18258423411487,0.8571242094039917,-9.639056205749512,2.006340980529785,-0.0292799212038517,-0.02422248013317585,0.01650322787463665
18258424648912,0.8439561128616333,-9.66539192199707,2.006340980529785,-0.0316755510866642,-0.0252872034907341,0.01117960549890995
18258425886325,0.8152256608009338,-9.636661529541016,2.03507137298584,-0.02981228195130825,-0.02369011752307415,0.00692070834338665
18258427123762,0.8403648138046265,-9.611522674560547,2.055422067642212,-0.02661811001598835,-0.0196974016726017,0.012510511092841625
18258428361175,0.8595184087753296,-9.623494148254395,1.9823989868164062,-0.02661811001598835,-0.02555338479578495,0.01463996060192585
18258429598575,0.8331822156906128,-9.591172218322754,1.9632453918457031,-0.0292799212038517,-0.02661811001598835,0.015172322280704975
18258430836012,0.8200140595436096,-9.617507934570312,2.0219032764434814,-0.033272635191679,-0.0234239362180233,0.01410759799182415
18258432073412,0.8475474119186401,-9.579200744628906,1.9907786846160889,-0.0276828333735466,-0.0223592109978199,0.0114457868039608
18258433310837,0.8367735147476196,-9.588777542114258,1.9907786846160889,-0.0244886614382267,-0.0223592109978199,0.01650322787463665
18258434548237,0.8224083185195923,-9.59835433959961,1.9764134883880615,-0.0252872034907341,-0.01996358297765255,0.01703559048473835
18258435785650,0.8032546639442444,-9.588777542114258,1.9740192890167236,-0.0204959437251091,-0.0268842913210392,0.01756795309484005
18258437023087,0.7912836670875549,-9.612719535827637,2.007538080215454,-0.0247548408806324,-0.02661811001598835,0.013309055007994175
18258438260500,0.8607155084609985,-9.576807022094727,2.013523578643799,-0.023956298828125,-0.0220930315554142,0.012776692397892475
18258439497900,0.828393816947937,-9.580398559570312,2.005143880844116,-0.0228915736079216,-0.0252872034907341,0.008783976547420025
18258440735337,0.8415619134902954,-9.600749015808105,2.0266916751861572,-0.0186326764523983,-0.02369011752307415,0.0114457868039608
18258441972762,0.8343793153762817,-9.563638687133789,2.0027496814727783,-0.0173017717897892,-0.02874755859375,0.012510511092841625
18258443210162,0.788889467716217,-9.550470352172852,2.0039467811584473,-0.0210283063352108,-0.023956298828125,0.0138414166867733
18258444447587,0.8248025178909302,-9.618705749511719,2.006340980529785,-0.01650322787463665,-0.01996358297765255,0.013309055007994175
18258445684987,0.8200140595436096,-9.57201862335205,1.9800047874450684,-0.01889885775744915,-0.0263519287109375,0.0114457868039608
18258446922412,0.7852981686592102,-9.542091369628906,1.98958158493042,-0.02129448764026165,-0.02182685025036335,0.01171196810901165
18258448159825,0.7852981686592102,-9.568427085876465,1.9620482921600342,-0.01463996060192585,-0.02555338479578495,0.0119781494140625
18258449397225,0.7852981686592102,-9.613917350769043,1.9800047874450684,-0.01357523538172245,-0.0271504707634449,0.015172322280704975
18258450634662,0.8044517636299133,-9.615114212036133,1.968033790588379,-0.0138414166867733,-0.0252872034907341,0.0114457868039608
18258451872062,0.7745242714881897,-9.601945877075195,2.0242974758148193,-0.01836649514734745,-0.01889885775744915,0.0063883461989462376
18258453109475,0.7996633648872375,-9.603142738342285,1.985990285873413,-0.0138414166867733,-0.02262539230287075,0.0138414166867733
18258454346875,0.767341673374176,-9.603142738342285,2.007538080215454,-0.00931633822619915,-0.02502102218568325,0.0181003138422966
18258455584325,0.7972691655158997,-9.601945877075195,1.9919757843017578,-0.01224433071911335,-0.01783413253724575,0.01410759799182415
18258456821750,0.8044517636299133,-9.589975357055664,1.9548656940460205,-0.014373779296875,-0.02022976242005825,0.008251613937318325
18258458059150,0.7936778664588928,-9.621099472045898,1.9776105880737305,-0.01463996060192585,-0.02022976242005825,0.01117960549890995
18258459296550,0.8224083185195923,-9.658209800720215,1.9991583824157715,-0.01410759799182415,-0.015438503585755825,0.008783976547420025
18258460533975,0.8236054182052612,-9.635464668273926,2.01232647895813,-0.007985432632267475,-0.0247548408806324,0.0119781494140625
18258461771400,0.8092401623725891,-9.625887870788574,1.9716250896453857,-0.0010647244052961469,-0.02076212503015995,0.01597086526453495
18258463008812,0.8008604645729065,-9.627084732055664,1.9500772953033447,-0.0077192517928779125,-0.0186326764523983,0.01357523538172245
18258464246225,0.7733271718025208,-9.639056205749512,1.9596540927886963,-0.00958251953125,-0.02182685025036335,0.0090501569211483
18258465483662,0.7972691655158997,-9.62947940826416,1.9943699836730957,-0.010381062515079975,-0.01943122036755085,0.0114457868039608
18258466721062,0.7984662652015686,-9.640253067016602,1.9524714946746826,-0.008251613937318325,-0.01597086526453495,0.007985432632267475
18258467958475,0.8355764150619507,-9.6618013381958,1.9764134883880615,-0.010381062515079975,-0.013042873702943325,0.0071868896484375
18258469195875,0.8068459630012512,-9.677363395690918,1.98958158493042,-0.0138414166867733,-0.0181003138422966,0.012510511092841625
18258470433300,0.7793126702308655,-9.62947940826416,1.9847931861877441,-0.00958251953125,-0.0162370465695858,0.010647243820130825
18258471670712,0.7924807667732239,-9.660603523254395,2.029085874557495,-0.00931633822619915,-0.013309055007994175,0.00958251953125
18258472908137,0.829590916633606,-9.653421401977539,1.9919757843017578,-0.0090501569211483,-0.013042873702943325,0.007453070487827063
18258474145575,0.812831461429596,-9.646238327026367,2.008735179901123,-0.008783976547420025,-0.0196974016726017,0.01171196810901165
18258475382975,0.8152256608009338,-9.63187313079834,2.0003554821014404,-0.007985432632267475,-0.0167694091796875,0.015172322280704975
18258476620375,0.8104372620582581,-9.63067626953125,2.0015525817871094,-0.0039927163161337376,-0.01783413253724575,0.0138414166867733
18258477857800,0.7984662652015686,-9.653421401977539,1.9991583824157715,-0.010114881210029125,-0.00931633822619915,0.008783976547420025
18258479095225,0.7996633648872375,-9.635464668273926,1.9943699836730957,-0.012776692397892475,-0.012510511092841625,0.013042873702943325
18258480332637,0.8068459630012512,-9.657012939453125,2.030282974243164,-0.0053236219100654125,-0.0167694091796875,0.010913425125181675
18258481570062,0.7829039692878723,-9.618705749511719,2.0446481704711914,-0.005057440605014563,-0.0119781494140625,0.0066545275039970875
18258482807475,0.8415619134902954,-9.643844604492188,2.0039467811584473,-0.008517795242369175,-0.010913425125181675,0.005855984054505825
18258484044887,0.8224083185195923,-9.642647743225098,1.9823989868164062,-0.00452507846057415,-0.010913425125181675,0.010114881210029125
18258485282312,0.7960720658302307,-9.634267807006836,1.9608511924743652,-0.0042588976211845875,-0.010114881210029125,0.00958251953125
18258486519712,0.8319851160049438,-9.642647743225098,2.0039467811584473,-0.0053236219100654125,-0.012510511092841625,0.0119781494140625
18258487757125,0.8475474119186401,-9.640253067016602,1.985990285873413,-0.0042588976211845875,-0.014373779296875,0.0119781494140625
18258488994550,0.7960720658302307,-9.655815124511719,2.006340980529785,-0.008251613937318325,-0.00692070834338665,0.010381062515079975
18258490231962,0.8080430626869202,-9.691728591918945,1.968033790588379,-0.007985432632267475,-0.0053236219100654125,0.005057440605014563
18258491469400,0.7625532746315002,-9.671378135681152,2.006340980529785,-0.0018632676219567657,-0.0090501569211483,0.007985432632267475
18258492706775,0.7876923680305481,-9.697713851928711,1.9967641830444336,-0.003460354171693325,-0.01171196810901165,0.0119781494140625
18258493944212,0.8271967172622681,-9.697713851928711,1.965639591217041,-0.0039927163161337376,-0.00958251953125,0.00958251953125
18258495181612,0.8631097078323364,-9.6618013381958,1.987187385559082,-0.0053236219100654125,-0.0119781494140625,0.00984870083630085
18258496419037,0.7972691655158997,-9.673771858215332,1.9692308902740479,-0.007985432632267475,-0.0077192517928779125,0.0071868896484375
18258497656475,0.7984662652015686,-9.692925453186035,1.942894697189331,-0.0090501569211483,-0.006122165359556675,0.010381062515079975
18258498893887,0.8307880163192749,-9.68574333190918,2.0254945755004883,-0.007453070487827063,-0.0063883461989462376,0.0119781494140625
18258500131300,0.8535329103469849,-9.684545516967773,2.01232647895813,-0.0029279920272529125,-0.008517795242369175,0.0114457868039608
18258501368712,0.8319851160049438,-9.68574333190918,2.0254945755004883,-0.0077192517928779125,-0.00958251953125,0.012776692397892475
18258502606125,0.8523358106613159,-9.683348655700684,1.964442491531372,-0.0090501569211483,-0.013309055007994175,0.014906140975654125
18258503843537,0.8463503122329712,-9.674968719482422,2.0003554821014404,-0.0066545275039970875,-0.010647243820130825,0.01703559048473835
18258505080962,0.8607155084609985,-9.703699111938477,1.988384485244751,-0.0037265352439135313,-0.00958251953125,0.01597086526453495
18258506318375,0.8307880163192749,-9.6989107131958,2.011129379272461,-0.00692070834338665,-0.0114457868039608,0.0138414166867733
18258507555800,0.7565677165985107,-9.651026725769043,1.9764134883880615,-0.00452507846057415,-0.00692070834338665,0.0138414166867733
18258508793225,0.812831461429596,-9.682151794433594,2.008735179901123,-0.0063883461989462376,-0.0037265352439135313,0.013309055007994175
18258510030612,0.812831461429596,-9.639056205749512,2.0159177780151367,-0.0042588976211845875,-0.0071868896484375,0.01357523538172245
18258511268037,0.8307880163192749,-9.62947940826416,2.0219032764434814,-0.003460354171693325,-0.01224433071911335,0.01650322787463665
18258512505475,0.8439561128616333,-9.659406661987305,1.9979612827301025,-0.007453070487827063,-0.010913425125181675,0.014373779296875
18258513742850,0.8248025178909302,-9.680954933166504,2.0207061767578125,-0.0053236219100654125,-0.01703559048473835,0.02022976242005825
18258514980287,0.8343793153762817,-9.680954933166504,1.9500772953033447,-0.004791259765625,-0.012510511092841625,0.015172322280704975
18258516217700,0.8678981065750122,-9.680954933166504,1.9608511924743652,-0.00692070834338665,-0.0071868896484375,0.0114457868039608
18258517455125,0.8212112188339233,-9.690531730651855,1.9620482921600342,-0.00931633822619915,-0.012776692397892475,0.01756795309484005
18258518692537,0.8248025178909302,-9.6618013381958,2.03507137298584,-0.0090501569211483,-0.0138414166867733,0.02076212503015995
18258519929962,0.829590916633606,-9.66419506072998,1.9991583824157715,-0.00958251953125,-0.007985432632267475,0.0162370465695858
18258521167375,0.8655039072036743,-9.680954933166504,2.030282974243164,-0.00452507846057415,-0.00931633822619915,0.0162370465695858
18258522404775,0.8547300100326538,-9.66539192199707,1.985990285873413,-0.0023956298828125,-0.00984870083630085,0.01597086526453495
18258523642200,0.8248025178909302,-9.658209800720215,1.9979612827301025,-0.0071868896484375,-0.0063883461989462376,0.01597086526453495
18258524879612,0.8092401623725891,-9.635464668273926,2.013523578643799,-0.010381062515079975,-0.00452507846057415,0.01357523538172245
18258526117037,0.8607155084609985,-9.672574996948242,1.9764134883880615,-0.005057440605014563,-0.0077192517928779125,0.01836649514734745
18258527354437,0.8367735147476196,-9.716867446899414,1.9345149993896484,-0.00452507846057415,-0.01463996060192585,0.01410759799182415
18258528591850,0.828393816947937,-9.694122314453125,1.9752163887023926,-0.005589802749454975,-0.01650322787463665,0.01117960549890995
18258529829275,0.812831461429596,-9.697713851928711,2.009932279586792,-0.0077192517928779125,-0.01410759799182415,0.010114881210029125
18258531066700,0.8439561128616333,-9.660603523254395,2.005143880844116,-0.010114881210029125,-0.0063883461989462376,0.01224433071911335
18258532304112,0.8367735147476196,-9.66539192199707,2.0195090770721436,-0.00984870083630085,-0.0090501569211483,0.014373779296875
18258533541512,0.8762778043746948,-9.690531730651855,2.009932279586792,-0.010114881210029125,-0.010913425125181675,0.0162370465695858
18258534778937,0.8427590131759644,-9.633070945739746,1.9572598934173584,-0.01171196810901165,-0.0138414166867733,0.01650322787463665
18258536016375,0.8200140595436096,-9.666589736938477,1.964442491531372,-0.00692070834338665,-0.010647243820130825,0.01463996060192585
18258537253775,0.8212112188339233,-9.66419506072998,1.9847931861877441,-0.0071868896484375,-0.010381062515079975,0.01463996060192585
18258538491200,0.8367735147476196,-9.6618013381958,2.0195090770721436,-0.007453070487827063,-0.014373779296875,0.0157046839594841
18258539728612,0.8152256608009338,-9.674968719482422,1.9692308902740479,-0.00984870083630085,-0.01650322787463665,0.0186326764523983
18258540966037,0.8463503122329712,-9.68574333190918,2.0470423698425293,-0.010381062515079975,-0.0173017717897892,0.0173017717897892
18258542203425,0.8463503122329712,-9.65222454071045,2.007538080215454,-0.010381062515079975,-0.01597086526453495,0.01410759799182415
18258543440862,0.8774749040603638,-9.625887870788574,1.9752163887023926,-0.00984870083630085,-0.01171196810901165,0.015438503585755825
18258544678262,0.8678981065750122,-9.691728591918945,2.007538080215454,-0.008251613937318325,-0.013309055007994175,0.01463996060192585
18258545915687,0.8798691034317017,-9.695320129394531,2.0159177780151367,-0.008251613937318325,-0.015172322280704975,0.01597086526453495
18258547153112,0.8188169598579407,-9.713275909423828,2.006340980529785,-0.010114881210029125,-0.0157046839594841,0.012510511092841625
18258548390512,0.8271967172622681,-9.670180320739746,1.9943699836730957,-0.0090501569211483,-0.0119781494140625,0.01171196810901165
18258549627925,0.849941611289978,-9.679757118225098,1.9931728839874268,-0.0114457868039608,-0.013309055007994175,0.014373779296875
18258550865350,0.8271967172622681,-9.674968719482422,2.0242974758148193,-0.01117960549890995,-0.014906140975654125,0.010647243820130825
18258552102750,0.7876923680305481,-9.697713851928711,1.9596540927886963,-0.010913425125181675,-0.013309055007994175,0.0138414166867733
18258553340162,0.8906430602073669,-9.720458984375,1.9919757843017578,-0.013042873702943325,-0.01463996060192585,0.013042873702943325
18258554577587,0.8774749040603638,-9.672574996948242,2.006340980529785,-0.010913425125181675,-0.0157046839594841,0.01224433071911335
18258555815012,0.8535329103469849,-9.68694019317627,1.9620482921600342,-0.0066545275039970875,-0.01756795309484005,0.01783413253724575
18258557052425,0.811634361743927,-9.647436141967773,1.9548656940460205,-0.0090501569211483,-0.0167694091796875,0.015438503585755825
18258558289862,0.8008604645729065,-9.702502250671387,2.0398597717285156,-0.012776692397892475,-0.01996358297765255,0.01117960549890995
18258559527262,0.828393816947937,-9.670180320739746,2.006340980529785,-0.00984870083630085,-0.01836649514734745,0.014906140975654125
18258560764700,0.8655039072036743,-9.66419506072998,1.9740192890167236,-0.007453070487827063,-0.013309055007994175,0.0119781494140625
18258562002112,0.872686505317688,-9.659406661987305,1.9560627937316895,-0.010647243820130825,-0.0162370465695858,0.00984870083630085
18258563239525,0.829590916633606,-9.659406661987305,2.0242974758148193,-0.01463996060192585,-0.0196974016726017,0.014906140975654125
18258564476937,0.872686505317688,-9.660603523254395,2.032677173614502,-0.00931633822619915,-0.02129448764026165,0.010381062515079975
18258565714350,0.8547300100326538,-9.651026725769043,1.9788076877593994,-0.0114457868039608,-0.0234239362180233,0.004791259765625
18258566951775,0.811634361743927,-9.657012939453125,1.9800047874450684,-0.0173017717897892,-0.02076212503015995,0.0066545275039970875
18258568189187,0.7912836670875549,-9.667786598205566,1.9393033981323242,-0.0114457868039608,-0.0162370465695858,0.01171196810901165
18258569426587,0.8379706144332886,-9.683348655700684,1.9728221893310547,-0.01171196810901165,-0.01889885775744915,0.01357523538172245
18258570663987,0.8523358106613159,-9.659406661987305,2.013523578643799,-0.01117960549890995,-0.01597086526453495,0.010381062515079975
18258571901425,0.8367735147476196,-9.66299819946289,2.0171148777008057,-0.012776692397892475,-0.0173017717897892,0.00931633822619915
18258573138837,0.811634361743927,-9.718064308166504,2.0219032764434814,-0.01224433071911335,-0.02022976242005825,0.012510511092841625
18258574376250,0.811634361743927,-9.680954933166504,1.9488801956176758,-0.01224433071911335,-0.0220930315554142,0.0114457868039608
18258575613662,0.8475474119186401,-9.642647743225098,1.945288896560669,-0.010647243820130825,-0.02369011752307415,0.015172322280704975
18258576851075,0.8259996175765991,-9.643844604492188,1.9716250896453857,-0.005589802749454975,-0.02555338479578495,0.013042873702943325
18258578088500,0.849941611289978,-9.655815124511719,2.030282974243164,-0.007453070487827063,-0.0167694091796875,0.0119781494140625
18258579325912,0.8224083185195923,-9.646238327026367,1.9716250896453857,-0.01171196810901165,-0.01836649514734745,0.010381062515079975
18258580563312,0.8319851160049438,-9.658209800720215,1.9776105880737305,-0.0114457868039608,-0.02076212503015995,0.00452507846057415
18258581800762,0.8655039072036743,-9.65222454071045,2.029085874557495,-0.007985432632267475,-0.0247548408806324,0.008251613937318325
18258583038150,0.8319851160049438,-9.625887870788574,1.96683669090271,-0.00984870083630085,-0.0228915736079216,0.00958251953125
18258584275587,0.8104372620582581,-9.633070945739746,1.942894697189331,-0.013042873702943325,-0.0196974016726017,0.012510511092841625
18258585513012,0.8188169598579407,-9.63187313079834,1.9907786846160889,-0.007453070487827063,-0.02182685025036335,0.013042873702943325
18258586750425,0.8236054182052612,-9.625887870788574,2.0590133666992188,-0.007985432632267475,-0.02422248013317585,0.010647243820130825
18258587987825,0.871489405632019,-9.613917350769043,2.0015525817871094,-0.0090501569211483,-0.02369011752307415,0.00958251953125
18258589225237,0.8032546639442444,-9.605537414550781,1.9776105880737305,-0.0066545275039970875,-0.02182685025036335,0.01171196810901165
18258590462650,0.7984662652015686,-9.641449928283691,1.946485996246338,-0.006122165359556675,-0.01889885775744915,0.0090501569211483
18258591700087,0.8080430626869202,-9.63187313079834,1.9716250896453857,-0.0037265352439135313,-0.0191650390625,0.008783976547420025
18258592937487,0.7912836670875549,-9.605537414550781,1.9823989868164062,-0.004791259765625,-0.0215606689453125,0.007985432632267475
18258594174912,0.8271967172622681,-9.647436141967773,2.0470423698425293,-0.0077192517928779125,-0.02422248013317585,0.00692070834338665
18258595412337,0.8259996175765991,-9.601945877075195,2.0231003761291504,-0.0042588976211845875,-0.0252872034907341,0.00958251953125
18258596649737,0.8212112188339233,-9.660603523254395,1.9812018871307373,-0.010114881210029125,-0.0244886614382267,0.008251613937318325
18258597887175,0.8188169598579407,-9.658209800720215,1.9704279899597168,-0.010647243820130825,-0.0282151959836483,0.010381062515079975
18258599124575,0.829590916633606,-9.657012939453125,2.0266916751861572,-0.006122165359556675,-0.02555338479578495,0.00958251953125
18258600361975,0.788889467716217,-9.668983459472656,1.9823989868164062,-0.003460354171693325,-0.02262539230287075,0.00958251953125
18258601599425,0.8020575642585754,-9.6618013381958,1.987187385559082,-0.006122165359556675,-0.02129448764026165,0.007985432632267475
18258602836837,0.7972691655158997,-9.682151794433594,1.9800047874450684,-0.0077192517928779125,-0.0244886614382267,0.0042588976211845875
18258604074250,0.7493851184844971,-9.680954933166504,2.0003554821014404,-0.0037265352439135313,-0.0258195661008358,0.007985432632267475
18258605311650,0.7996633648872375,-9.695320129394531,1.9596540927886963,-0.0042588976211845875,-0.0228915736079216,0.006122165359556675
18258606549075,0.7565677165985107,-9.678560256958008,2.0183119773864746,-0.007453070487827063,-0.0204959437251091,0.0063883461989462376
18258607786487,0.7565677165985107,-9.700108528137207,2.009932279586792,-0.0063883461989462376,-0.0210283063352108,0.00931633822619915
18258609023912,0.7697358727455139,-9.691728591918945,1.9907786846160889,-0.0037265352439135313,-0.0268842913210392,0.01171196810901165
18258610261325,0.7661445736885071,-9.66419506072998,2.0219032764434814,-0.0042588976211845875,-0.0223592109978199,0.0119781494140625
18258611498725,0.7912836670875549,-9.6989107131958,1.98958158493042,-0.00931633822619915,-0.01996358297765255,0.008251613937318325
18258612736150,0.7972691655158997,-9.713275909423828,1.9548656940460205,-0.008251613937318325,-0.02129448764026165,0.007985432632267475
18258613973575,0.8044517636299133,-9.703699111938477,1.9752163887023926,-0.004791259765625,-0.0247548408806324,0.005057440605014563
18258615210975,0.8008604645729065,-9.702502250671387,1.9823989868164062,-0.006122165359556675,-0.02076212503015995,0.0066545275039970875
18258616448387,0.7769184708595276,-9.6989107131958,1.945288896560669,-0.0063883461989462376,-0.02315775491297245,0.0077192517928779125
18258617685825,0.8080430626869202,-9.713275909423828,1.9584569931030273,-0.007985432632267475,-0.02076212503015995,0.01117960549890995
18258618923237,0.8164227604866028,-9.71926212310791,1.968033790588379,-0.005057440605014563,-0.0173017717897892,0.010381062515079975
18258620160675,0.7996633648872375,-9.677363395690918,1.9357120990753174,-0.0053236219100654125,-0.0234239362180233,0.008783976547420025
18258621398062,0.811634361743927,-9.68813705444336,1.9955670833587646,-0.007985432632267475,-0.02262539230287075,0.007985432632267475
18258622635500,0.8259996175765991,-9.683348655700684,1.98958158493042,-0.00452507846057415,-0.0220930315554142,0.010114881210029125
18258623872912,0.8224083185195923,-9.667786598205566,1.96683669090271,-0.0015970865497365594,-0.0244886614382267,0.00984870083630085
18258625110325,0.8475474119186401,-9.690531730651855,1.9967641830444336,-0.008251613937318325,-0.0228915736079216,0.010647243820130825
18258626347750,0.8212112188339233,-9.690531730651855,2.0027496814727783,-0.00452507846057415,-0.02661811001598835,0.01171196810901165
18258627585150,0.7661445736885071,-9.645041465759277,1.9584569931030273,-0.0007985432748682797,-0.0223592109978199,0.0119781494140625
18258628822562,0.812831461429596,-9.660603523254395,2.0015525817871094,-0.00452507846057415,-0.0220930315554142,0.0090501569211483
18258630059987,0.7960720658302307,-9.605537414550781,2.01232647895813,-0.0010647244052961469,-0.01836649514734745,0.0077192517928779125
18258631297400,0.8044517636299133,-9.647436141967773,1.9835960865020752,-0.0023956298828125,-0.01650322787463665,0.008783976547420025
18258632534825,0.788889467716217,-9.627084732055664,1.9955670833587646,0.0005323622026480734,-0.0244886614382267,0.010381062515079975
18258633772237,0.8236054182052612,-9.643844604492188,1.9955670833587646,0.0021294488105922937,-0.0252872034907341,0.01224433071911335
18258635009637,0.8319851160049438,-9.607931137084961,1.9823989868164062,0.0007985432748682797,-0.01943122036755085,0.0031941730994731188
18258636247062,0.7984662652015686,-9.605537414550781,1.9692308902740479,-0.0026618109550327063,-0.014906140975654125,0.0039927163161337376
18258637484475,0.767341673374176,-9.625887870788574,1.9764134883880615,-0.005589802749454975,-0.01996358297765255,-0.0005323622026480734
18258638721887,0.768538773059845,-9.592369079589844,1.9979612827301025,-0.005057440605014563,-0.01836649514734745,0.005589802749454975
18258639959312,0.8056488633155823,-9.659406661987305,2.033874273300171,0.0013309054775163531,-0.01836649514734745,0.008251613937318325
18258641196712,0.7936778664588928,-9.649829864501953,1.9919757843017578,-0.0010647244052961469,-0.01996358297765255,0.005057440605014563
18258642434162,0.7541735172271729,-9.700108528137207,2.011129379272461,-0.0039927163161337376,-0.014906140975654125,0.008517795242369175
18258643671562,0.7625532746315002,-9.68694019317627,2.007538080215454,-0.0077192517928779125,-0.0138414166867733,0.0007985432748682797
18258644909000,0.7912836670875549,-9.643844604492188,1.9584569931030273,-0.0023956298828125,-0.01224433071911335,0.0
18258646146400,0.8403648138046265,-9.712079048156738,1.9608511924743652,-0.005057440605014563,-0.0119781494140625,0.0037265352439135313
18258647383825,0.7829039692878723,-9.701305389404297,2.006340980529785,-0.003460354171693325,-0.0167694091796875,-0.0026618109550327063
18258648621237,0.7781155705451965,-9.709685325622559,1.988384485244751,-0.0007985432748682797,-0.01597086526453495,0.0007985432748682797
18258649858637,0.8068459630012512,-9.66299819946289,1.9943699836730957,-0.01171196810901165,-0.0119781494140625,0.0026618109550327063
18258651096050,0.7876923680305481,-9.712079048156738,1.920149803161621,-0.00692070834338665,-0.010913425125181675,0.004791259765625
18258652333475,0.7781155705451965,-9.734824180603027,2.007538080215454,-0.004791259765625,-0.0114457868039608,0.0005323622026480734
18258653570900,0.7541735172271729,-9.703699111938477,1.9800047874450684,-0.0031941730994731188,-0.01357523538172245,0.0063883461989462376
18258654808312,0.7386112213134766,-9.725247383117676,2.007538080215454,-0.0039927163161337376,-0.015172322280704975,0.0071868896484375
18258656045725,0.7805097699165344,-9.732430458068848,1.9847931861877441,-0.0026618109550327063,-0.013309055007994175,0.005589802749454975
18258657283125,0.7829039692878723,-9.740809440612793,2.008735179901123,-0.0023956298828125,-0.010913425125181675,0.00452507846057415
18258658520575,0.8224083185195923,-9.718064308166504,2.005143880844116,0.003460354171693325,-0.014906140975654125,0.012510511092841625
18258659757975,0.7733271718025208,-9.738415718078613,2.006340980529785,0.0018632676219567657,-0.0186326764523983,0.01117960549890995
18258660995400,0.7876923680305481,-9.732430458068848,2.007538080215454,0.0002661811013240367,-0.0162370465695858,0.0090501569211483
18258662232812,0.7637503743171692,-9.75158405303955,1.9943699836730957,-0.0002661811013240367,-0.00931633822619915,0.005589802749454975
18258663470225,0.7841010689735413,-9.737218856811523,2.006340980529785,-0.005855984054505825,-0.010114881210029125,0.0077192517928779125
18258664707637,0.790086567401886,-9.739612579345703,2.0015525817871094,-0.004791259765625,-0.015438503585755825,0.00692070834338665
18258665945062,0.7817068696022034,-9.747992515563965,2.030282974243164,-0.0015970865497365594,-0.01117960549890995,0.010647243820130825
18258667182487,0.812831461429596,-9.673771858215332,2.0242974758148193,-0.0071868896484375,-0.01224433071911335,0.010913425125181675
18258668419887,0.7721300721168518,-9.672574996948242,2.0171148777008057,-0.004791259765625,-0.010913425125181675,0.0077192517928779125
18258669657325,0.7984662652015686,-9.691728591918945,2.006340980529785,-0.005057440605014563,-0.0119781494140625,0.010647243820130825
18258670894725,0.8056488633155823,-9.668983459472656,1.9907786846160889,-0.0066545275039970875,-0.00958251953125,0.01117960549890995
18258672132150,0.7733271718025208,-9.692925453186035,1.9548656940460205,0.0002661811013240367,-0.01171196810901165,0.010114881210029125
18258673369562,0.7864952683448792,-9.633070945739746,1.9823989868164062,0.0007985432748682797,-0.010114881210029125,0.012776692397892475
18258674606987,0.8224083185195923,-9.691728591918945,2.008735179901123,-0.008251613937318325,-0.00692070834338665,0.010647243820130825
18258675844387,0.8212112188339233,-9.6618013381958,2.0266916751861572,-0.0066545275039970875,-0.00692070834338665,0.0090501569211483
18258677081800,0.7936778664588928,-9.636661529541016,1.988384485244751,-0.0037265352439135313,-0.00958251953125,0.010381062515079975
18258678319225,0.7781155705451965,-9.659406661987305,2.0219032764434814,-0.003460354171693325,-0.007985432632267475,0.01224433071911335
18258679556662,0.7924807667732239,-9.66539192199707,1.9907786846160889,-0.0037265352439135313,-0.0071868896484375,0.010381062515079975
18258680794050,0.8176198601722717,-9.700108528137207,1.9608511924743652,-0.010647243820130825,-0.004791259765625,0.0167694091796875
18258682031487,0.7817068696022034,-9.673771858215332,1.9608511924743652,-0.010381062515079975,-0.0037265352439135313,0.00958251953125
18258683268887,0.7733271718025208,-9.68694019317627,1.9823989868164062,-0.0071868896484375,-0.005057440605014563,0.0071868896484375
18258684506287,0.7912836670875549,-9.658209800720215,1.9979612827301025,-0.0077192517928779125,-0.006122165359556675,0.008517795242369175
18258685743712,0.7852981686592102,-9.667786598205566,1.9823989868164062,-0.0071868896484375,-0.005589802749454975,0.006122165359556675
18258686981125,0.8164227604866028,-9.676166534423828,1.9620482921600342,-0.008783976547420025,-0.004791259765625,0.008783976547420025
18258688218537,0.7996633648872375,-9.682151794433594,1.9728221893310547,-0.015172322280704975,-0.006122165359556675,0.0077192517928779125
18258689455962,0.7864952683448792,-9.68574333190918,1.9800047874450684,-0.008517795242369175,-0.0071868896484375,0.00931633822619915
18258690693387,0.8092401623725891,-9.679757118225098,1.9764134883880615,-0.008783976547420025,-0.00931633822619915,0.00958251953125
18258691930800,0.8379706144332886,-9.704896926879883,1.9991583824157715,-0.010913425125181675,-0.008251613937318325,0.008251613937318325
18258693168212,0.7936778664588928,-9.720458984375,2.0015525817871094,-0.01357523538172245,-0.0007985432748682797,0.007453070487827063
18258694405637,0.8140285611152649,-9.75517463684082,2.027888774871826,-0.014373779296875,0.0,0.004791259765625
18258695643050,0.790086567401886,-9.749189376831055,2.027888774871826,-0.01357523538172245,-0.0031941730994731188,0.0015970865497365594
18258696880450,0.7781155705451965,-9.736021041870117,2.007538080215454,-0.0138414166867733,-0.0026618109550327063,0.0013309054775163531
18258698117887,0.7841010689735413,-9.709685325622559,2.0242974758148193,-0.01597086526453495,-0.0018632676219567657,0.0026618109550327063
18258699355300,0.7805097699165344,-9.727641105651855,1.9847931861877441,-0.0181003138422966,0.0010647244052961469,0.0010647244052961469
18258700592725,0.8176198601722717,-9.713275909423828,1.9835960865020752,-0.01597086526453495,0.0002661811013240367,0.0015970865497365594
18258701830125,0.811634361743927,-9.696516990661621,2.005143880844116,-0.01410759799182415,0.0005323622026480734,0.0002661811013240367
18258703067550,0.828393816947937,-9.696516990661621,2.007538080215454,-0.01224433071911335,-0.0023956298828125,0.0018632676219567657
18258704304987,0.7709329724311829,-9.683348655700684,2.0195090770721436,-0.0119781494140625,0.0007985432748682797,0.0031941730994731188
18258705542375,0.8104372620582581,-9.712079048156738,2.0039467811584473,-0.013309055007994175,0.0018632676219567657,0.0015970865497365594
18258706779787,0.7864952683448792,-9.683348655700684,1.9967641830444336,-0.014906140975654125,-0.003460354171693325,-0.0026618109550327063
18258708017212,0.7398083209991455,-9.657012939453125,2.0242974758148193,-0.0157046839594841,-0.0010647244052961469,-0.0042588976211845875
18258709254612,0.7721300721168518,-9.642647743225098,1.988384485244751,-0.0210283063352108,0.0018632676219567657,-0.0037265352439135313
18258710492025,0.8020575642585754,-9.679757118225098,2.0147206783294678,-0.01597086526453495,0.003460354171693325,-0.006122165359556675
18258711729462,0.7924807667732239,-9.641449928283691,2.0039467811584473,-0.01463996060192585,-0.0013309054775163531,-0.0037265352439135313
18258712966862,0.7996633648872375,-9.653421401977539,2.031480073928833,-0.0173017717897892,-0.0010647244052961469,-0.0015970865497365594
18258714204275,0.7996633648872375,-9.667786598205566,2.0147206783294678,-0.014373779296875,0.0013309054775163531,-0.0039927163161337376
18258715441687,0.7697358727455139,-9.653421401977539,2.033874273300171,-0.012776692397892475,0.004791259765625,-0.0007985432748682797
18258716679137,0.7984662652015686,-9.649829864501953,2.007538080215454,-0.01117960549890995,0.00452507846057415,-0.0018632676219567657
18258717916537,0.8188169598579407,-9.603142738342285,1.9764134883880615,-0.00958251953125,0.007453070487827063,0.0031941730994731188
18258719153962,0.8080430626869202,-9.623494148254395,2.011129379272461,-0.012510511092841625,0.006122165359556675,-0.0029279920272529125
18258720391375,0.7864952683448792,-9.606734275817871,2.0027496814727783,-0.0167694091796875,0.0037265352439135313,-0.007985432632267475
18258721628825,0.7912836670875549,-9.63067626953125,1.9512743949890137,-0.01357523538172245,0.0029279920272529125,0.0013309054775163531
18258722866200,0.8092401623725891,-9.610325813293457,1.9620482921600342,-0.0119781494140625,0.0013309054775163531,0.0007985432748682797
18258724103612,0.8020575642585754,-9.607931137084961,1.96683669090271,-0.013042873702943325,0.010913425125181675,0.0002661811013240367
18258725341037,0.7314286231994629,-9.619902610778809,2.032677173614502,-0.010913425125181675,0.00984870083630085,-0.0042588976211845875
18258726578462,0.7864952683448792,-9.605537414550781,1.9584569931030273,-0.008783976547420025,0.0039927163161337376,-0.00984870083630085
18258727815862,0.8020575642585754,-9.611522674560547,1.9967641830444336,-0.005057440605014563,0.0063883461989462376,-0.0023956298828125
18258729053275,0.8056488633155823,-9.604340553283691,2.01232647895813,-0.0026618109550327063,0.013309055007994175,-0.0031941730994731188
18258730290700,0.7972691655158997,-9.59835433959961,1.9955670833587646,-0.00958251953125,0.012510511092841625,-0.006122165359556675
18258731528137,0.8403648138046265,-9.589975357055664,1.9955670833587646,-0.0066545275039970875,0.005855984054505825,-0.0021294488105922937
18258732765537,0.7936778664588928,-9.601945877075195,1.9560627937316895,-0.0042588976211845875,0.0066545275039970875,0.0021294488105922937
18258734002950,0.788889467716217,-9.639056205749512,1.9704279899597168,-0.005589802749454975,0.008251613937318325,-0.0002661811013240367
18258735240362,0.8331822156906128,-9.615114212036133,2.0015525817871094,-0.0077192517928779125,0.008517795242369175,-0.0071868896484375
18258736477787,0.8104372620582581,-9.617507934570312,1.9764134883880615,-0.0066545275039970875,0.0063883461989462376,-0.00692070834338665
18258737715212,0.8008604645729065,-9.645041465759277,1.9919757843017578,-0.0066545275039970875,0.008783976547420025,-0.0005323622026480734
18258738952625,0.851138710975647,-9.619902610778809,1.9967641830444336,-0.0071868896484375,0.00931633822619915,-0.003460354171693325
18258740190062,0.8271967172622681,-9.599552154541016,2.0219032764434814,-0.005589802749454975,0.00984870083630085,-0.005057440605014563
18258741427437,0.7924807667732239,-9.589975357055664,2.0207061767578125,0.0007985432748682797,0.010114881210029125,-0.00452507846057415
18258742664862,0.8367735147476196,-9.641449928283691,1.9835960865020752,-0.0026618109550327063,0.0053236219100654125,-0.0031941730994731188
18258743902287,0.8379706144332886,-9.599552154541016,2.0027496814727783,0.0,0.0077192517928779125,-0.008517795242369175
18258745139700,0.8104372620582581,-9.619902610778809,1.9991583824157715,0.0013309054775163531,0.0119781494140625,-0.00958251953125
18258746377112,0.8152256608009338,-9.610325813293457,2.013523578643799,-0.0031941730994731188,0.0119781494140625,-0.0053236219100654125
18258747614537,0.8056488633155823,-9.647436141967773,1.9764134883880615,-0.0031941730994731188,0.007985432632267475,-0.005057440605014563
18258748851950,0.8008604645729065,-9.645041465759277,1.9955670833587646,0.0013309054775163531,0.007453070487827063,-0.005855984054505825
18258750089375,0.8259996175765991,-9.609128952026367,2.049436569213867,0.0007985432748682797,0.01650322787463665,-0.010647243820130825
18258751326787,0.8367735147476196,-9.613917350769043,2.0195090770721436,-0.0007985432748682797,0.0162370465695858,-0.00452507846057415
18258752564187,0.8092401623725891,-9.613917350769043,2.0254945755004883,-0.0018632676219567657,0.010381062515079975,-0.0077192517928779125
18258753801600,0.7984662652015686,-9.606734275817871,2.006340980529785,-0.0005323622026480734,0.00958251953125,-0.006122165359556675
18258755039025,0.7769184708595276,-9.603142738342285,2.0242974758148193,-0.0023956298828125,0.008517795242369175,-0.0063883461989462376
18258756276450,0.8188169598579407,-9.609128952026367,1.9524714946746826,-0.0023956298828125,0.013042873702943325,-0.005589802749454975
18258757513862,0.8331822156906128,-9.62828254699707,1.9608511924743652,0.0026618109550327063,0.012776692397892475,-0.0039927163161337376
18258758751300,0.8188169598579407,-9.616311073303223,1.9931728839874268,-0.0018632676219567657,0.013309055007994175,-0.0063883461989462376
18258759988712,0.8104372620582581,-9.627084732055664,1.9979612827301025,0.0010647244052961469,0.010913425125181675,-0.0023956298828125
18258761226125,0.8547300100326538,-9.645041465759277,1.9716250896453857,0.0002661811013240367,0.0162370465695858,-0.00452507846057415
18258762463525,0.8008604645729065,-9.65222454071045,1.9955670833587646,0.004791259765625,0.0162370465695858,-0.0063883461989462376
18258763700950,0.8212112188339233,-9.613917350769043,1.9812018871307373,0.0039927163161337376,0.01996358297765255,-0.0037265352439135313
18258764938362,0.8403648138046265,-9.637859344482422,1.946485996246338,0.0015970865497365594,0.0204959437251091,-0.00931633822619915
18258766175787,0.8331822156906128,-9.659406661987305,1.9728221893310547,0.0039927163161337376,0.014373779296875,-0.0114457868039608
18258767413212,0.8236054182052612,-9.682151794433594,2.0195090770721436,0.00452507846057415,0.015438503585755825,-0.0039927163161337376
18258768650625,0.8451532125473022,-9.66299819946289,2.029085874557495,0.0053236219100654125,0.01650322787463665,-0.00931633822619915
18258769888037,0.8200140595436096,-9.679757118225098,2.0027496814727783,0.0,0.0191650390625,-0.004791259765625
18258771125437,0.8595184087753296,-9.68813705444336,1.985990285873413,0.0029279920272529125,0.01703559048473835,-0.00931633822619915
18258772362862,0.8367735147476196,-9.68813705444336,1.988384485244751,0.005589802749454975,0.01410759799182415,-0.008517795242369175
18258773600275,0.788889467716217,-9.68694019317627,1.9800047874450684,0.0029279920272529125,0.01357523538172245,-0.0066545275039970875
18258774837687,0.8164227604866028,-9.683348655700684,1.9835960865020752,0.004791259765625,0.0157046839594841,-0.008251613937318325
18258776075100,0.829590916633606,-9.682151794433594,2.0242974758148193,0.004791259765625,0.015438503585755825,-0.00931633822619915
18258777312537,0.849941611289978,-9.68694019317627,1.9919757843017578,0.0,0.0173017717897892,-0.006122165359556675
18258778549950,0.8667010068893433,-9.715670585632324,1.965639591217041,0.0013309054775163531,0.0215606689453125,-0.00931633822619915
18258779787375,0.8583213090896606,-9.676166534423828,1.9847931861877441,0.0026618109550327063,0.01703559048473835,-0.00931633822619915
18258781024787,0.8583213090896606,-9.702502250671387,2.013523578643799,0.004791259765625,0.01996358297765255,-0.007453070487827063
18258782262212,0.8619126081466675,-9.68933391571045,2.0219032764434814,0.005589802749454975,0.0220930315554142,-0.01410759799182415
18258783499637,0.8571242094039917,-9.706093788146973,1.9919757843017578,0.0018632676219567657,0.0223592109978199,-0.007453070487827063
18258784737037,0.8690952062606812,-9.639056205749512,1.9847931861877441,0.0005323622026480734,0.0181003138422966,-0.00958251953125
18258785974462,0.8271967172622681,-9.672574996948242,1.9835960865020752,-0.0002661811013240367,0.0196974016726017,-0.013309055007994175
18258787211875,0.8631097078323364,-9.66419506072998,2.008735179901123,0.003460354171693325,0.0181003138422966,-0.01224433071911335
18258788449275,0.8619126081466675,-9.646238327026367,2.0027496814727783,0.0010647244052961469,0.01463996060192585,-0.00931633822619915
18258789686700,0.8990227580070496,-9.63187313079834,1.9991583824157715,-0.0026618109550327063,0.01889885775744915,-0.00984870083630085
18258790924125,0.8870517611503601,-9.642647743225098,2.0183119773864746,0.0026618109550327063,0.01783413253724575,-0.00958251953125
18258792161525,0.8475474119186401,-9.640253067016602,1.9955670833587646,-0.0002661811013240367,0.0210283063352108,-0.010913425125181675
18258793398950,0.9253589510917664,-9.604340553283691,2.0482394695281982,-0.0005323622026480734,0.015172322280704975,-0.008783976547420025
18258794636375,0.8954314589500427,-9.625887870788574,2.0147206783294678,0.003460354171693325,0.01224433071911335,-0.01224433071911335
18258795873775,0.9002198576927185,-9.623494148254395,2.027888774871826,-0.0010647244052961469,0.0167694091796875,-0.0114457868039608
18258797111200,0.8942343592643738,-9.617507934570312,2.0171148777008057,0.0018632676219567657,0.01463996060192585,-0.00984870083630085
18258798348612,0.9421183466911316,-9.642647743225098,2.006340980529785,0.0010647244052961469,0.013309055007994175,-0.004791259765625
18258799586025,0.8810662031173706,-9.65222454071045,1.9931728839874268,0.0021294488105922937,0.015172322280704975,-0.00692070834338665
18258800823450,0.8774749040603638,-9.636661529541016,2.0590133666992188,0.005057440605014563,0.01463996060192585,-0.010913425125181675
18258802060862,0.912190854549408,-9.635464668273926,1.98958158493042,0.0053236219100654125,0.0162370465695858,-0.00958251953125
18258803298275,0.8559271097183228,-9.641449928283691,1.987187385559082,0.0010647244052961469,0.01410759799182415,-0.004791259765625
18258804535712,0.8415619134902954,-9.636661529541016,2.027888774871826,0.0023956298828125,0.010647243820130825,-0.00692070834338665
18258805773112,0.8906430602073669,-9.62947940826416,2.01232647895813,0.004791259765625,0.00931633822619915,-0.01117960549890995
18258807010525,0.9014169573783875,-9.66419506072998,2.0242974758148193,0.0018632676219567657,0.0119781494140625,-0.00958251953125
18258808247950,0.8978256583213806,-9.68813705444336,2.0434510707855225,0.007985432632267475,0.012776692397892475,-0.004791259765625
18258809485362,0.8858546614646912,-9.676166534423828,2.0410568714141846,0.007985432632267475,0.010114881210029125,-0.00692070834338665
18258810722775,0.8930372595787048,-9.653421401977539,2.0219032764434814,0.0021294488105922937,0.0119781494140625,-0.0071868896484375
18258811960200,0.8607155084609985,-9.617507934570312,2.030282974243164,0.0007985432748682797,0.010114881210029125,-0.006122165359556675
18258813197612,0.8487445116043091,-9.639056205749512,2.009932279586792,0.0026618109550327063,0.0066545275039970875,-0.003460354171693325
18258814435025,0.8738836050033569,-9.653421401977539,2.036268472671509,0.0021294488105922937,0.007453070487827063,-0.005589802749454975
18258815672462,0.8547300100326538,-9.670180320739746,2.0219032764434814,0.0018632676219567657,0.0018632676219567657,-0.0029279920272529125
18258816909862,0.851138710975647,-9.674968719482422,1.9931728839874268,0.0010647244052961469,0.008517795242369175,-0.0026618109550327063
18258818147287,0.8678981065750122,-9.672574996948242,2.0410568714141846,0.0039927163161337376,0.007453070487827063,-0.007453070487827063
18258819384700,0.8547300100326538,-9.708487510681152,2.0015525817871094,0.00984870083630085,0.007985432632267475,-0.0077192517928779125
18258820622125,0.8942343592643738,-9.646238327026367,2.0386626720428467,0.0021294488105922937,0.007453070487827063,-0.010381062515079975
18258821859537,0.9349357485771179,-9.714473724365234,2.0039467811584473,0.0018632676219567657,0.006122165359556675,-0.007985432632267475
18258823096937,0.8750807046890259,-9.72165584564209,1.9955670833587646,0.0071868896484375,0.005057440605014563,-0.0042588976211845875
18258824334375,0.8702923059463501,-9.767146110534668,1.9632453918457031,0.008517795242369175,0.0077192517928779125,-0.0013309054775163531
18258825571775,0.9002198576927185,-9.684545516967773,1.9788076877593994,0.0053236219100654125,0.004791259765625,0.0005323622026480734
18258826809187,0.9313444495201111,-9.703699111938477,2.036268472671509,0.007453070487827063,0.006122165359556675,-0.0031941730994731188
18258828046625,0.8990227580070496,-9.7420072555542,1.9716250896453857,0.008783976547420025,0.0021294488105922937,-0.0026618109550327063
18258829284025,0.8846575617790222,-9.704896926879883,1.985990285873413,0.0037265352439135313,0.0002661811013240367,0.00452507846057415
18258830521450,0.8918401598930359,-9.6989107131958,2.0242974758148193,0.006122165359556675,0.004791259765625,0.0023956298828125
18258831758875,0.8702923059463501,-9.672574996948242,2.0410568714141846,0.0090501569211483,0.00692070834338665,-0.0090501569211483
18258832996262,0.8678981065750122,-9.725247383117676,2.0159177780151367,0.00984870083630085,0.00452507846057415,-0.0021294488105922937
18258834233700,0.8667010068893433,-9.692925453186035,2.013523578643799,0.012776692397892475,0.0031941730994731188,-0.0037265352439135313
18258835471125,0.889445960521698,-9.666589736938477,2.0638017654418945,0.005057440605014563,0.0007985432748682797,-0.003460354171693325
18258836708537,0.8774749040603638,-9.672574996948242,2.0877439975738525,0.0042588976211845875,0.0039927163161337376,0.0026618109550327063
18258837945950,0.8978256583213806,-9.648633003234863,2.0422539710998535,0.0010647244052961469,0.006122165359556675,0.0023956298828125
18258839183350,0.8702923059463501,-9.659406661987305,2.0219032764434814,0.0002661811013240367,0.0031941730994731188,0.006122165359556675
18258840420787,0.8846575617790222,-9.646238327026367,2.013523578643799,0.0007985432748682797,0.005855984054505825,0.0023956298828125
18258841658200,0.888248860836029,-9.648633003234863,2.0242974758148193,0.0053236219100654125,0.005855984054505825,0.0018632676219567657
18258842895612,0.8607155084609985,-9.653421401977539,1.988384485244751,0.007985432632267475,0.00452507846057415,0.008251613937318325
18258844133025,0.8403648138046265,-9.66539192199707,2.0195090770721436,0.0066545275039970875,-0.0010647244052961469,0.0090501569211483
18258845370437,0.8463503122329712,-9.706093788146973,1.9692308902740479,0.010647243820130825,-0.0037265352439135313,0.008517795242369175
18258846607862,0.8559271097183228,-9.671378135681152,1.9955670833587646,0.007453070487827063,-0.0005323622026480734,0.0010647244052961469
18258847845300,0.8391677141189575,-9.673771858215332,2.0183119773864746,0.0071868896484375,0.0002661811013240367,0.0
18258849082687,0.8607155084609985,-9.684545516967773,1.9405004978179932,0.00692070834338665,-0.0037265352439135313,0.005589802749454975
18258850320100,0.8415619134902954,-9.704896926879883,1.9991583824157715,0.0,-0.0018632676219567657,0.006122165359556675
18258851557525,0.8451532125473022,-9.692925453186035,2.0386626720428467,0.0015970865497365594,-0.0002661811013240367,0.0037265352439135313
18258852794950,0.8391677141189575,-9.706093788146973,2.005143880844116,0.0031941730994731188,0.0015970865497365594,0.005057440605014563
18258854032375,0.8176198601722717,-9.732430458068848,2.0039467811584473,0.004791259765625,0.0029279920272529125,0.0026618109550327063
18258855269775,0.7852981686592102,-9.720458984375,1.9835960865020752,0.0053236219100654125,0.0005323622026480734,0.0029279920272529125
18258856507212,0.7469909191131592,-9.75517463684082,2.009932279586792,-0.0010647244052961469,0.005057440605014563,-0.0007985432748682797
18258857744612,0.8140285611152649,-9.77791976928711,2.006340980529785,-0.0018632676219567657,0.005589802749454975,0.0015970865497365594
18258858982025,0.788889467716217,-9.72285270690918,1.98958158493042,-0.0015970865497365594,0.0026618109550327063,0.0015970865497365594
18258860219437,0.788889467716217,-9.750386238098145,2.0242974758148193,-0.0063883461989462376,0.0007985432748682797,-0.0031941730994731188
18258861456887,0.7577648162841797,-9.68574333190918,1.9776105880737305,-0.006122165359556675,0.0026618109550327063,-0.0010647244052961469
18258862694262,0.7601590752601624,-9.734824180603027,1.98958158493042,-0.00958251953125,0.00452507846057415,-0.0015970865497365594
18258863931700,0.7841010689735413,-9.783905029296875,1.9919757843017578,-0.01117960549890995,0.0039927163161337376,-0.0010647244052961469
18258865169100,0.7960720658302307,-9.761160850524902,1.985990285873413,-0.00958251953125,0.006122165359556675,-0.0010647244052961469
18258866406550,0.7948749661445618,-9.737218856811523,2.009932279586792,-0.0066545275039970875,0.005855984054505825,-0.0053236219100654125
18258867643937,0.8104372620582581,-9.701305389404297,2.008735179901123,-0.010114881210029125,0.010381062515079975,-0.00984870083630085
18258868881350,0.7864952683448792,-9.703699111938477,2.049436569213867,-0.010647243820130825,0.012510511092841625,-0.00931633822619915
18258870118762,0.7841010689735413,-9.642647743225098,2.0482394695281982,-0.010913425125181675,0.008251613937318325,-0.005589802749454975
18258871356212,0.7829039692878723,-9.713275909423828,1.9823989868164062,-0.010381062515079975,0.012510511092841625,-0.0023956298828125
18258872593612,0.7996633648872375,-9.654618263244629,2.0434510707855225,-0.010114881210029125,0.010114881210029125,-0.005589802749454975
18258873831025,0.8032546639442444,-9.691728591918945,2.050633668899536,-0.013042873702943325,0.010913425125181675,-0.0071868896484375
18258875068437,0.7876923680305481,-9.640253067016602,2.0482394695281982,-0.00984870083630085,0.014373779296875,-0.005589802749454975
18258876305875,0.7817068696022034,-9.658209800720215,2.0446481704711914,-0.00958251953125,0.00984870083630085,-0.007453070487827063
18258877543287,0.767341673374176,-9.647436141967773,1.9907786846160889,-0.0071868896484375,0.010114881210029125,-0.0119781494140625
18258878780687,0.7781155705451965,-9.655815124511719,2.0015525817871094,-0.0077192517928779125,0.012510511092841625,-0.010913425125181675
18258880018112,0.7984662652015686,-9.645041465759277,2.0231003761291504,-0.010381062515079975,0.010913425125181675,-0.006122165359556675
18258881255512,0.8092401623725891,-9.655815124511719,2.0649988651275635,-0.010913425125181675,0.0114457868039608,-0.015172322280704975
18258882492937,0.7972691655158997,-9.635464668273926,2.0422539710998535,-0.010647243820130825,0.01889885775744915,-0.013042873702943325
18258883730350,0.7864952683448792,-9.691728591918945,2.009932279586792,-0.010913425125181675,0.0223592109978199,-0.005589802749454975
18258884967775,0.8092401623725891,-9.674968719482422,2.01232647895813,-0.010647243820130825,0.01836649514734745,-0.0077192517928779125
18258886205187,0.8032546639442444,-9.678560256958008,2.033874273300171,-0.01171196810901165,0.01463996060192585,-0.010913425125181675
18258887442625,0.7948749661445618,-9.660603523254395,1.988384485244751,-0.0119781494140625,0.01703559048473835,-0.008251613937318325
18258888680037,0.727837324142456,-9.657012939453125,2.0171148777008057,-0.0119781494140625,0.0196974016726017,-0.007453070487827063
18258889917450,0.7565677165985107,-9.659406661987305,2.0446481704711914,-0.005855984054505825,0.01889885775744915,-0.004791259765625
18258891154862,0.750582218170166,-9.643844604492188,2.032677173614502,-0.0090501569211483,0.0157046839594841,-0.0077192517928779125
18258892392287,0.7577648162841797,-9.683348655700684,1.9943699836730957,-0.012510511092841625,0.02022976242005825,-0.012776692397892475
18258893629712,0.790086567401886,-9.658209800720215,2.027888774871826,-0.007985432632267475,0.0228915736079216,-0.010913425125181675
18258894867112,0.768538773059845,-9.697713851928711,2.0446481704711914,-0.00958251953125,0.02022976242005825,-0.005855984054505825
18258896104550,0.7433996200561523,-9.68694019317627,2.0386626720428467,-0.012776692397892475,0.0234239362180233,-0.014373779296875
18258897341950,0.7493851184844971,-9.649829864501953,2.0003554821014404,-0.005589802749454975,0.02129448764026165,-0.015438503585755825
18258898579375,0.7481880187988281,-9.63187313079834,2.031480073928833,-0.0090501569211483,0.023956298828125,-0.00958251953125
18258899816787,0.7721300721168518,-9.641449928283691,2.0231003761291504,-0.01117960549890995,0.02555338479578495,-0.0077192517928779125
18258901054212,0.7493851184844971,-9.673771858215332,2.0027496814727783,-0.01410759799182415,0.02661811001598835,-0.01171196810901165
18258902291625,0.7745242714881897,-9.643844604492188,2.0027496814727783,-0.004791259765625,0.02262539230287075,-0.01410759799182415
18258903529037,0.8020575642585754,-9.673771858215332,2.0602104663848877,-0.005589802749454975,0.02315775491297245,-0.008251613937318325
18258904766450,0.7721300721168518,-9.68574333190918,2.053027868270874,-0.010647243820130825,0.0263519287109375,-0.010114881210029125
18258906003875,0.8104372620582581,-9.65222454071045,2.036268472671509,-0.008783976547420025,0.02741665206849575,-0.0114457868039608
18258907241287,0.7625532746315002,-9.651026725769043,2.032677173614502,-0.007453070487827063,0.02555338479578495,-0.008783976547420025
18258908478700,0.7445967197418213,-9.635464668273926,2.030282974243164,-0.008783976547420025,0.0324740931391716,-0.007985432632267475
18258909716112,0.7553706169128418,-9.62828254699707,2.009932279586792,-0.0053236219100654125,0.0324740931391716,-0.014906140975654125
18258910953550,0.7924807667732239,-9.673771858215332,2.011129379272461,-0.0063883461989462376,0.02848137728869915,-0.01597086526453495
18258912190950,0.7864952683448792,-9.639056205749512,2.027888774871826,-0.008517795242369175,0.0314093679189682,-0.01224433071911335
18258913428362,0.7601590752601624,-9.670180320739746,2.0422539710998535,-0.008517795242369175,0.0356682650744915,-0.007985432632267475
18258914665787,0.7924807667732239,-9.68694019317627,2.0422539710998535,-0.01224433071911335,0.0348697230219841,-0.010381062515079975
18258915903225,0.729034423828125,-9.682151794433594,2.0219032764434814,-0.005589802749454975,0.0348697230219841,-0.01171196810901165
18258917140612,0.7613561749458313,-9.65222454071045,2.0398597717285156,-0.00452507846057415,0.0354020856320858,-0.010381062515079975
18258918378025,0.7613561749458313,-9.682151794433594,2.0195090770721436,-0.008251613937318325,0.0346035435795784,-0.008517795242369175
18258919615462,0.7864952683448792,-9.695320129394531,2.0242974758148193,-0.0077192517928779125,0.0356682650744915,-0.010114881210029125
18258920852875,0.790086567401886,-9.692925453186035,2.009932279586792,-0.01410759799182415,0.038330078125,-0.01597086526453495
18258922090275,0.7841010689735413,-9.715670585632324,2.056619167327881,-0.01410759799182415,0.0354020856320858,-0.010647243820130825
18258923327700,0.7565677165985107,-9.690531730651855,2.0266916751861572,-0.008517795242369175,0.0439198799431324,-0.010647243820130825
18258924565112,0.811634361743927,-9.678560256958008,2.0171148777008057,-0.01463996060192585,0.0465816929936409,-0.0196974016726017
18258925802537,0.7469909191131592,-9.68574333190918,2.030282974243164,-0.014373779296875,0.0423227921128273,-0.015172322280704975
18258927039937,0.727837324142456,-9.710882186889648,2.0039467811584473,-0.013042873702943325,0.0423227921128273,-0.01171196810901165
18258928277362,0.751779317855835,-9.695320129394531,1.9500772953033447,-0.0119781494140625,0.0444522425532341,-0.014373779296875
18258929514775,0.7541735172271729,-9.679757118225098,1.9776105880737305,-0.013042873702943325,0.0433875173330307,-0.00984870083630085
18258930752212,0.8020575642585754,-9.713275909423828,1.9931728839874268,-0.01117960549890995,0.0407257080078125,-0.01117960549890995
18258931989625,0.7697358727455139,-9.713275909423828,2.013523578643799,-0.00452507846057415,0.0471140518784523,-0.0114457868039608
18258933227037,0.7194576263427734,-9.72285270690918,2.01232647895813,-0.008251613937318325,0.0495096817612648,-0.00931633822619915
18258934464450,0.751779317855835,-9.701305389404297,1.9907786846160889,-0.014906140975654125,0.0516391322016716,-0.013042873702943325
18258935701875,0.7996633648872375,-9.692925453186035,2.0015525817871094,-0.0162370465695858,0.04791259765625,-0.015172322280704975
18258936939287,0.7817068696022034,-9.7420072555542,1.9931728839874268,-0.01410759799182415,0.047646414488554,-0.01224433071911335
18258938176700,0.8140285611152649,-9.7420072555542,2.030282974243164,-0.01783413253724575,0.0473802350461483,-0.015438503585755825
18258939414125,0.7709329724311829,-9.764751434326172,1.9716250896453857,-0.014906140975654125,0.0433875173330307,-0.0138414166867733
18258940651537,0.7793126702308655,-9.72165584564209,1.9907786846160889,-0.0114457868039608,0.0484449602663517,-0.01410759799182415
18258941888950,0.8032546639442444,-9.710882186889648,2.0207061767578125,-0.0119781494140625,0.0540347620844841,-0.010114881210029125
18258943126375,0.8008604645729065,-9.736021041870117,2.029085874557495,-0.0162370465695858,0.0532362200319767,-0.01463996060192585
18258944363787,0.7936778664588928,-9.695320129394531,2.0242974758148193,-0.01783413253724575,0.0532362200319767,-0.0119781494140625
18258945601200,0.7912836670875549,-9.6989107131958,1.987187385559082,-0.02022976242005825,0.0503082275390625,-0.012510511092841625
18258946838625,0.8212112188339233,-9.732430458068848,2.050633668899536,-0.01783413253724575,0.0519053116440773,-0.01889885775744915
18258948076037,0.8032546639442444,-9.747992515563965,2.054224967956543,-0.01783413253724575,0.047646414488554,-0.0157046839594841
18258949313437,0.8798691034317017,-9.726444244384766,2.0590133666992188,-0.0196974016726017,0.0505744069814682,-0.010647243820130825
18258950550887,0.7793126702308655,-9.738415718078613,2.0434510707855225,-0.01783413253724575,0.0577612966299057,-0.0162370465695858
18258951788287,0.829590916633606,-9.728838920593262,2.0171148777008057,-0.0234239362180233,0.0588260218501091,-0.01943122036755085
18258953025700,0.8200140595436096,-9.731232643127441,2.005143880844116,-0.0234239362180233,0.0580274797976017,-0.0234239362180233
18258954263137,0.8607155084609985,-9.72165584564209,1.9967641830444336,-0.02315775491297245,0.0574951171875,-0.0186326764523983
18258955500550,0.8152256608009338,-9.72165584564209,2.005143880844116,-0.0234239362180233,0.0566965714097023,-0.012510511092841625
18258956737950,0.8008604645729065,-9.715670585632324,2.008735179901123,-0.023956298828125,0.0550994873046875,-0.015438503585755825
18258957975387,0.8595184087753296,-9.683348655700684,2.0254945755004883,-0.02315775491297245,0.0532362200319767,-0.015438503585755825
18258959212787,0.8750807046890259,-9.713275909423828,2.007538080215454,-0.02555338479578495,0.0545671246945858,-0.013309055007994175
18258960450200,0.8702923059463501,-9.713275909423828,1.9776105880737305,-0.02794901467859745,0.0580274797976017,-0.01117960549890995
18258961687637,0.8475474119186401,-9.673771858215332,2.0027496814727783,-0.0247548408806324,0.0566965714097023,-0.0090501569211483
18258962925025,0.8571242094039917,-9.724050521850586,1.98958158493042,-0.02661811001598835,0.0545671246945858,-0.008251613937318325
18258964162462,0.8487445116043091,-9.770737648010254,2.032677173614502,-0.02422248013317585,0.0519053116440773,-0.010114881210029125
18258965399887,0.8535329103469849,-9.734824180603027,1.9764134883880615,-0.0271504707634449,0.0545671246945858,-0.008783976547420025
18258966637300,0.889445960521698,-9.738415718078613,1.9584569931030273,-0.0330064557492733,0.0574951171875,-0.008783976547420025
18258967874687,0.8942343592643738,-9.732430458068848,2.0147206783294678,-0.02901373989880085,0.0596245639026165,-0.012776692397892475
18258969112125,0.8954314589500427,-9.720458984375,1.987187385559082,-0.02874755859375,0.0604231096804142,-0.0119781494140625
18258970349550,0.9169792532920837,-9.745597839355469,1.96683669090271,-0.0292799212038517,0.0569627545773983,-0.007985432632267475
18258971586950,0.9050082564353943,-9.728838920593262,1.9752163887023926,-0.0314093679189682,0.0561642125248909,-0.0071868896484375
18258972824375,0.851138710975647,-9.724050521850586,1.965639591217041,-0.0354020856320858,0.0580274797976017,-0.0063883461989462376
18258974061800,0.8930372595787048,-9.72285270690918,2.0003554821014404,-0.03087700717151165,0.0598907470703125,-0.008517795242369175
18258975299200,0.8858546614646912,-9.713275909423828,2.03507137298584,-0.0252872034907341,0.0577612966299057,-0.0077192517928779125
18258976536625,0.8355764150619507,-9.68694019317627,1.96683669090271,-0.02848137728869915,0.0593583844602108,-0.0063883461989462376
18258977774050,0.8798691034317017,-9.690531730651855,1.9524714946746826,-0.0322079136967659,0.057228934019804,-0.0090501569211483
18258979011462,0.8583213090896606,-9.678560256958008,1.9572598934173584,-0.0330064557492733,0.0550994873046875,-0.00931633822619915
18258980248862,0.8439561128616333,-9.697713851928711,1.9584569931030273,-0.0292799212038517,0.0553656667470932,-0.0066545275039970875
18258981486300,0.8930372595787048,-9.66539192199707,1.9907786846160889,-0.02502102218568325,0.0537685826420784,-0.0015970865497365594
18258982723712,0.8583213090896606,-9.65222454071045,1.988384485244751,-0.02741665206849575,0.0532362200319767,-0.005589802749454975
18258983961137,0.8619126081466675,-9.66539192199707,1.9572598934173584,-0.0247548408806324,0.0489773228764534,-0.0039927163161337376
18258985198537,0.8774749040603638,-9.690531730651855,1.9728221893310547,-0.0314093679189682,0.052703857421875,-0.0015970865497365594
18258986435962,0.8810662031173706,-9.65222454071045,2.0015525817871094,-0.0338049978017807,0.0535023994743824,0.0010647244052961469
18258987673387,0.8762778043746948,-9.677363395690918,1.9752163887023926,-0.03087700717151165,0.0497758649289608,-0.003460354171693325
18258988910800,0.8822633624076843,-9.668983459472656,1.9704279899597168,-0.02981228195130825,0.0543009415268898,0.0018632676219567657
18258990148200,0.8655039072036743,-9.697713851928711,1.9800047874450684,-0.0292799212038517,0.0505744069814682,-0.0002661811013240367
18258991385650,0.8415619134902954,-9.707290649414062,1.96683669090271,-0.0300784632563591,0.0529700368642807,-0.0010647244052961469
18258992623062,0.8942343592643738,-9.667786598205566,1.9823989868164062,-0.02981228195130825,0.0535023994743824,0.0010647244052961469
18258993860462,0.8678981065750122,-9.714473724365234,1.9584569931030273,-0.03034464456140995,0.0505744069814682,-0.0037265352439135313
18258995097900,0.9014169573783875,-9.660603523254395,1.9560627937316895,-0.0359344482421875,0.0505744069814682,-0.0053236219100654125
18258996335312,0.9062053561210632,-9.715670585632324,1.9632453918457031,-0.0292799212038517,0.0519053116440773,0.0066545275039970875
18258997572725,0.9038111567497253,-9.710882186889648,1.9572598934173584,-0.02874755859375,0.0489773228764534,0.00692070834338665
18258998810137,0.8595184087753296,-9.66299819946289,1.9764134883880615,-0.0330064557492733,0.0505744069814682,0.0066545275039970875
18259000047562,0.8595184087753296,-9.625887870788574,2.0015525817871094,-0.0327402763068676,0.0468478724360466,0.007453070487827063
18259001284962,0.8810662031173706,-9.659406661987305,1.9955670833587646,-0.0316755510866642,0.0463155098259449,0.0023956298828125
18259002522387,0.8535329103469849,-9.62828254699707,1.9692308902740479,-0.0306108258664608,0.0497758649289608,0.0015970865497365594
18259003759812,0.8188169598579407,-9.622296333312988,1.9512743949890137,-0.033272635191679,0.0487111397087574,0.00452507846057415
18259004997250,0.8212112188339233,-9.609128952026367,1.985990285873413,-0.02848137728869915,0.0463155098259449,0.0007985432748682797
18259006234650,0.8379706144332886,-9.621099472045898,1.9405004978179932,-0.02981228195130825,0.0463155098259449,0.0010647244052961469
18259007472050,0.7721300721168518,-9.612719535827637,1.945288896560669,-0.02981228195130825,0.0449846051633358,-0.0002661811013240367
18259008709475,0.7541735172271729,-9.616311073303223,1.9704279899597168,-0.0338049978017807,0.0436537005007267,0.0066545275039970875
18259009946887,0.7948749661445618,-9.619902610778809,1.9764134883880615,-0.02794901467859745,0.0473802350461483,0.0023956298828125
18259011184325,0.8523358106613159,-9.634267807006836,1.923741102218628,-0.0228915736079216,0.0457831472158432,-0.0015970865497365594
18259012421737,0.8020575642585754,-9.651026725769043,1.9309237003326416,-0.0300784632563591,0.0460493303835392,0.0015970865497365594
18259013659137,0.8164227604866028,-9.68933391571045,1.9321208000183105,-0.0300784632563591,0.0460493303835392,0.005057440605014563
18259014896562,0.8643068075180054,-9.6989107131958,1.9369091987609863,-0.0276828333735466,0.0487111397087574,0.01117960549890995
18259016134000,0.8140285611152649,-9.694122314453125,1.9069817066192627,-0.02794901467859745,0.0484449602663517,0.0077192517928779125
18259017371400,0.8595184087753296,-9.718064308166504,1.922544002532959,-0.02555338479578495,0.0495096817612648,0.0031941730994731188
18259018608812,0.8319851160049438,-9.680954933166504,1.8782511949539185,-0.02608574740588665,0.0460493303835392,0.007453070487827063
18259019846237,0.851138710975647,-9.682151794433594,1.923741102218628,-0.03034464456140995,0.0521714948117733,0.0066545275039970875
18259021083637,0.9038111567497253,-9.697713851928711,1.9165585041046143,-0.02794901467859745,0.0537685826420784,0.00692070834338665
18259022321075,0.8607155084609985,-9.678560256958008,1.9369091987609863,-0.02874755859375,0.0484449602663517,0.003460354171693325
18259023558475,0.8954314589500427,-9.66419506072998,1.9620482921600342,-0.02981228195130825,0.0489773228764534,0.0026618109550327063
18259024795912,0.8858546614646912,-9.607931137084961,1.965639591217041,-0.03087700717151165,0.0521714948117733,0.0010647244052961469
18259026033300,0.8535329103469849,-9.624691009521484,1.9524714946746826,-0.02608574740588665,0.0487111397087574,0.0026618109550327063
18259027270725,0.8451532125473022,-9.603142738342285,1.9740192890167236,-0.0258195661008358,0.0455169677734375,-0.0002661811013240367
18259028508150,0.8535329103469849,-9.617507934570312,1.9153614044189453,-0.0306108258664608,0.043121337890625,0.0037265352439135313
18259029745562,0.8583213090896606,-9.633070945739746,1.9608511924743652,-0.03034464456140995,0.0463155098259449,0.0071868896484375
18259030983000,0.849941611289978,-9.634267807006836,1.9847931861877441,-0.02874755859375,0.0407257080078125,0.0031941730994731188
18259032220412,0.8631097078323364,-9.639056205749512,1.9249382019042969,-0.0306108258664608,0.0401933453977108,0.005057440605014563
18259033457812,0.8451532125473022,-9.63067626953125,1.9105730056762695,-0.023956298828125,0.0399271659553051,0.00452507846057415
18259034695237,0.849941611289978,-9.674968719482422,1.9045875072479248,-0.02182685025036335,0.0372653529047966,0.008517795242369175
18259035932662,0.8571242094039917,-9.648633003234863,1.9129672050476074,-0.0271504707634449,0.0391286201775074,0.00692070834338665
18259037170087,0.8643068075180054,-9.654618263244629,1.8878281116485596,-0.0282151959836483,0.0356682650744915,-0.0013309054775163531
18259038407500,0.8966285586357117,-9.678560256958008,1.8758569955825806,-0.02422248013317585,0.0327402763068676,0.0005323622026480734
18259039644912,0.8798691034317017,-9.618705749511719,1.8950107097625732,-0.023956298828125,0.0354020856320858,0.006122165359556675
18259040882337,0.8619126081466675,-9.640253067016602,1.920149803161621,-0.0258195661008358,0.0425889752805233,0.0031941730994731188
18259042119725,0.8834604620933533,-9.648633003234863,1.8830395936965942,-0.02794901467859745,0.0391286201775074,0.0015970865497365594
18259043357150,0.8595184087753296,-9.680954933166504,1.8818424940109253,-0.02315775491297245,0.0385962575674057,0.0005323622026480734
18259044594575,0.8379706144332886,-9.701305389404297,1.9381062984466553,-0.02422248013317585,0.038063894957304,-0.003460354171693325
18259045832000,0.8655039072036743,-9.700108528137207,1.944091796875,-0.0268842913210392,0.0369991734623909,-0.0039927163161337376
18259047069400,0.8774749040603638,-9.671378135681152,1.8974049091339111,-0.02874755859375,0.0367329902946949,-0.0029279920272529125
18259048306825,0.8427590131759644,-9.66299819946289,1.9093759059906006,-0.0247548408806324,0.02981228195130825,-0.005855984054505825
18259049544262,0.8846575617790222,-9.709685325622559,1.9177556037902832,-0.0215606689453125,0.0343373604118824,-0.0026618109550327063
18259050781662,0.8475474119186401,-9.6989107131958,1.964442491531372,-0.02262539230287075,0.0343373604118824,-0.0037265352439135313
18259052019087,0.8906430602073669,-9.657012939453125,1.923741102218628,-0.0268842913210392,0.033538818359375,-0.0007985432748682797
18259053256512,0.8678981065750122,-9.682151794433594,1.92134690284729,-0.0271504707634449,0.0295461006462574,-0.0077192517928779125
18259054493925,0.8942343592643738,-9.695320129394531,1.9165585041046143,-0.02741665206849575,0.0282151959836483,-0.0090501569211483
18259055731337,0.8762778043746948,-9.6989107131958,1.8626888990402222,-0.0234239362180233,0.0319417305290699,-0.0037265352439135313
18259056968750,0.9265560507774353,-9.658209800720215,1.8614917993545532,-0.02369011752307415,0.02981228195130825,-0.010647243820130825
18259058206200,0.8822633624076843,-9.660603523254395,1.9333178997039795,-0.0223592109978199,0.0314093679189682,-0.00958251953125
18259059443587,0.888248860836029,-9.62947940826416,1.920149803161621,-0.02262539230287075,0.02794901467859745,-0.00931633822619915
18259060681012,0.9026140570640564,-9.623494148254395,1.9297266006469727,-0.02502102218568325,0.02369011752307415,-0.008783976547420025
18259061918425,0.889445960521698,-9.65222454071045,1.9273324012756348,-0.02502102218568325,0.02661811001598835,-0.00984870083630085
18259063155837,0.8918401598930359,-9.615114212036133,1.866280198097229,-0.023956298828125,0.0263519287109375,-0.00958251953125
18259064393250,0.8750807046890259,-9.612719535827637,1.9033904075622559,-0.0223592109978199,0.0196974016726017,-0.0071868896484375
18259065630675,0.9169792532920837,-9.63067626953125,1.922544002532959,-0.02022976242005825,0.0210283063352108,-0.008251613937318325
18259066868100,0.8942343592643738,-9.609128952026367,1.9369091987609863,-0.0210283063352108,0.023956298828125,-0.010381062515079975
18259068105500,0.9002198576927185,-9.587580680847168,1.9117701053619385,-0.0196974016726017,0.02076212503015995,-0.00958251953125
18259069342912,0.93254154920578,-9.622296333312988,1.899799108505249,-0.015438503585755825,0.02022976242005825,-0.00692070834338665
18259070580337,0.8690952062606812,-9.587580680847168,1.8854339122772217,-0.0167694091796875,0.01703559048473835,-0.0077192517928779125
18259071817750,0.8762778043746948,-9.59476375579834,1.923741102218628,-0.0204959437251091,0.02022976242005825,-0.00958251953125
18259073055175,0.8942343592643738,-9.673771858215332,1.9117701053619385,-0.015172322280704975,0.01463996060192585,-0.007453070487827063
18259074292587,0.8930372595787048,-9.63187313079834,1.900996208190918,-0.0204959437251091,0.0114457868039608,-0.005855984054505825
18259075530012,0.8870517611503601,-9.612719535827637,1.8914194107055664,-0.01783413253724575,0.014906140975654125,-0.014373779296875
18259076767425,0.851138710975647,-9.641449928283691,1.8531121015548706,-0.012510511092841625,0.015172322280704975,-0.01224433071911335
18259078004837,0.8678981065750122,-9.63187313079834,1.8914194107055664,-0.015172322280704975,0.02022976242005825,-0.0119781494140625
18259079242250,0.8607155084609985,-9.634267807006836,1.8926165103912354,-0.0167694091796875,0.012510511092841625,-0.006122165359556675
18259080479662,0.8535329103469849,-9.674968719482422,1.9141643047332764,-0.012776692397892475,0.0090501569211483,-0.00452507846057415
18259081717087,0.8547300100326538,-9.671378135681152,1.922544002532959,-0.0138414166867733,0.01224433071911335,-0.01463996060192585
18259082954512,0.8535329103469849,-9.63187313079834,1.866280198097229,-0.014906140975654125,0.01171196810901165,-0.0157046839594841
18259084191937,0.8547300100326538,-9.603142738342285,1.8555063009262085,-0.012510511092841625,0.0119781494140625,-0.015172322280704975
18259085429362,0.849941611289978,-9.636661529541016,1.8938136100769043,-0.0138414166867733,0.00984870083630085,-0.00958251953125
18259086666762,0.8451532125473022,-9.658209800720215,1.8902223110198975,-0.01783413253724575,0.010114881210029125,-0.01410759799182415
18259087904187,0.829590916633606,-9.6618013381958,1.8938136100769043,-0.01836649514734745,0.0077192517928779125,-0.015438503585755825
18259089141612,0.872686505317688,-9.646238327026367,1.8806453943252563,-0.01756795309484005,0.00692070834338665,-0.01117960549890995
18259090379012,0.8451532125473022,-9.63067626953125,1.8638859987258911,-0.0167694091796875,0.005855984054505825,-0.0157046839594841
18259091616425,0.8343793153762817,-9.655815124511719,1.8818424940109253,-0.0157046839594841,0.010381062515079975,-0.01357523538172245
18259092853862,0.851138710975647,-9.65222454071045,1.8890252113342285,-0.01597086526453495,0.008251613937318325,-0.01171196810901165
18259094091262,0.8475474119186401,-9.660603523254395,1.902193307876587,-0.01597086526453495,0.0071868896484375,-0.0138414166867733
18259095328687,0.8667010068893433,-9.618705749511719,1.9273324012756348,-0.010381062515079975,0.010381062515079975,-0.01597086526453495
18259096566100,0.8954314589500427,-9.588777542114258,1.9261353015899658,-0.015438503585755825,0.0071868896484375,-0.015172322280704975
18259097803525,0.8595184087753296,-9.611522674560547,1.9081788063049316,-0.01117960549890995,0.0031941730994731188,-0.01171196810901165
18259099040925,0.8858546614646912,-9.62947940826416,1.8938136100769043,-0.0119781494140625,0.005057440605014563,-0.01224433071911335
18259100278362,0.8559271097183228,-9.623494148254395,1.867477297782898,-0.010381062515079975,0.005589802749454975,-0.013309055007994175
18259101515762,0.8786720037460327,-9.609128952026367,1.8926165103912354,-0.0071868896484375,0.004791259765625,-0.013309055007994175
18259102753212,0.8415619134902954,-9.623494148254395,1.8614917993545532,-0.008517795242369175,0.0053236219100654125,-0.01756795309484005
18259103990600,0.8834604620933533,-9.611522674560547,1.9057846069335938,-0.01117960549890995,0.0039927163161337376,-0.01463996060192585
18259105228012,0.8427590131759644,-9.621099472045898,1.8926165103912354,-0.007985432632267475,0.0039927163161337376,-0.01463996060192585
18259106465462,0.8403648138046265,-9.578003883361816,1.8758569955825806,-0.0031941730994731188,0.0042588976211845875,-0.010913425125181675
18259107702875,0.8307880163192749,-9.59476375579834,1.9321208000183105,-0.0018632676219567657,0.0037265352439135313,-0.010114881210029125
18259108940275,0.8475474119186401,-9.588777542114258,1.9165585041046143,-0.005589802749454975,0.0077192517928779125,-0.013309055007994175
18259110177700,0.8092401623725891,-9.593565940856934,1.9369091987609863,-0.0010647244052961469,0.0023956298828125,-0.0114457868039608
18259111415125,0.8331822156906128,-9.591172218322754,1.8938136100769043,-0.0031941730994731188,0.0029279920272529125,-0.012510511092841625
18259112652500,0.849941611289978,-9.609128952026367,1.923741102218628,-0.005057440605014563,0.003460354171693325,-0.0157046839594841
18259113889950,0.8439561128616333,-9.609128952026367,1.9321208000183105,0.0,-0.0042588976211845875,-0.013309055007994175
18259115127375,0.829590916633606,-9.62947940826416,1.866280198097229,-0.0031941730994731188,0.0013309054775163531,-0.015438503585755825
18259116364787,0.8200140595436096,-9.649829864501953,1.8782511949539185,0.0,0.0018632676219567657,-0.01463996060192585
18259117602200,0.8451532125473022,-9.59596061706543,1.8818424940109253,-0.0015970865497365594,-0.0018632676219567657,-0.0138414166867733
18259118839612,0.8259996175765991,-9.642647743225098,1.9381062984466553,-0.00452507846057415,-0.0007985432748682797,-0.01943122036755085
18259120077012,0.8200140595436096,-9.646238327026367,1.8818424940109253,-0.00452507846057415,-0.0013309054775163531,-0.0196974016726017
18259121314450,0.8032546639442444,-9.671378135681152,1.8543092012405396,-0.0021294488105922937,-0.0002661811013240367,-0.010381062515079975
18259122551875,0.8236054182052612,-9.677363395690918,1.8363527059555054,-0.0039927163161337376,0.0015970865497365594,-0.014373779296875
18259123789275,0.7841010689735413,-9.6989107131958,1.9165585041046143,-0.0063883461989462376,0.006122165359556675,-0.0167694091796875
18259125026700,0.8355764150619507,-9.68813705444336,1.9045875072479248,-0.0005323622026480734,0.006122165359556675,-0.01463996060192585
18259126264125,0.8523358106613159,-9.694122314453125,1.8890252113342285,-0.0015970865497365594,0.0063883461989462376,-0.01357523538172245
18259127501537,0.8176198601722717,-9.701305389404297,1.8890252113342285,-0.005855984054505825,0.005057440605014563,-0.0167694091796875
18259128738937,0.8355764150619507,-9.728838920593262,1.9117701053619385,-0.0023956298828125,0.0007985432748682797,-0.02129448764026165
18259129976362,0.7984662652015686,-9.710882186889648,1.866280198097229,0.0005323622026480734,-0.0021294488105922937,-0.01836649514734745
18259131213787,0.811634361743927,-9.747992515563965,1.8914194107055664,-0.0015970865497365594,0.0031941730994731188,-0.010913425125181675
18259132451200,0.8044517636299133,-9.749189376831055,1.8878281116485596,0.0013309054775163531,0.0071868896484375,-0.0114457868039608
18259133688612,0.8523358106613159,-9.734824180603027,1.9261353015899658,0.0,0.00984870083630085,-0.0167694091796875
18259134926037,0.8451532125473022,-9.733627319335938,1.9129672050476074,-0.0015970865497365594,0.0031941730994731188,-0.01650322787463665
18259136163462,0.8403648138046265,-9.700108528137207,1.8698714971542358,-0.00452507846057415,0.0026618109550327063,-0.0119781494140625
18259137400862,0.8307880163192749,-9.731232643127441,1.9249382019042969,-0.0002661811013240367,0.00692070834338665,-0.012776692397892475
18259138638287,0.8080430626869202,-9.75517463684082,1.899799108505249,0.0010647244052961469,0.00452507846057415,-0.015438503585755825
18259139875700,0.8236054182052612,-9.715670585632324,1.9512743949890137,-0.005589802749454975,0.00452507846057415,-0.014906140975654125
18259141113112,0.8379706144332886,-9.734824180603027,1.942894697189331,-0.0005323622026480734,0.0005323622026480734,-0.01171196810901165
18259142350537,0.8056488633155823,-9.743204116821289,1.9153614044189453,0.0007985432748682797,0.0042588976211845875,-0.012776692397892475
18259143587962,0.8140285611152649,-9.724050521850586,1.9369091987609863,-0.005855984054505825,0.0037265352439135313,-0.012776692397892475
18259144825375,0.8200140595436096,-9.740809440612793,1.9393033981323242,-0.00692070834338665,-0.0010647244052961469,-0.01117960549890995
18259146062800,0.851138710975647,-9.707290649414062,1.9369091987609863,-0.0037265352439135313,-0.0005323622026480734,-0.00692070834338665
18259147300200,0.8403648138046265,-9.707290649414062,1.9081788063049316,-0.0013309054775163531,0.00452507846057415,-0.008251613937318325
18259148537625,0.8643068075180054,-9.701305389404297,1.9309237003326416,-0.0015970865497365594,0.005855984054505825,-0.010114881210029125
18259149775037,0.8631097078323364,-9.691728591918945,1.923741102218628,-0.0007985432748682797,0.0053236219100654125,-0.010647243820130825
18259151012450,0.8152256608009338,-9.683348655700684,1.922544002532959,-0.0018632676219567657,0.00692070834338665,-0.0066545275039970875
18259152249862,0.8248025178909302,-9.68694019317627,1.9273324012756348,-0.0042588976211845875,0.00984870083630085,-0.00958251953125
18259153487287,0.8427590131759644,-9.679757118225098,1.9129672050476074,-0.0021294488105922937,0.0037265352439135313,-0.0053236219100654125
18259154724712,0.8140285611152649,-9.65222454071045,1.9620482921600342,-0.0063883461989462376,0.005589802749454975,-0.005057440605014563
18259155962125,0.8248025178909302,-9.643844604492188,1.9309237003326416,-0.0005323622026480734,0.0026618109550327063,-0.0053236219100654125
18259157199550,0.7936778664588928,-9.624691009521484,1.9512743949890137,-0.0021294488105922937,0.00692070834338665,-0.0018632676219567657
18259158436975,0.811634361743927,-9.655815124511719,1.8842366933822632,-0.0031941730994731188,0.0029279920272529125,-0.005855984054505825
18259159674375,0.8774749040603638,-9.622296333312988,1.9117701053619385,-0.005057440605014563,0.00692070834338665,-0.0039927163161337376
18259160911800,0.8822633624076843,-9.6618013381958,1.9129672050476074,-0.004791259765625,0.0071868896484375,-0.0031941730994731188
18259162149237,0.851138710975647,-9.682151794433594,1.9177556037902832,-0.0029279920272529125,0.0039927163161337376,-0.005589802749454975
18259163386637,0.8535329103469849,-9.655815124511719,1.9117701053619385,0.0,0.0077192517928779125,-0.0053236219100654125
18259164624050,0.8690952062606812,-9.658209800720215,1.867477297782898,-0.0021294488105922937,0.0053236219100654125,-0.0119781494140625
18259165861450,0.851138710975647,-9.627084732055664,1.9129672050476074,-0.0042588976211845875,0.0013309054775163531,-0.01171196810901165
18259167098875,0.8475474119186401,-9.66299819946289,1.9165585041046143,0.0002661811013240367,0.007453070487827063,-0.0071868896484375
18259168336312,0.8523358106613159,-9.633070945739746,1.92134690284729,0.0013309054775163531,0.0042588976211845875,-0.005057440605014563
18259169573737,0.8702923059463501,-9.622296333312988,1.92134690284729,0.0002661811013240367,0.0007985432748682797,-0.0002661811013240367
18259170811125,0.8678981065750122,-9.701305389404297,1.941697597503662,0.0029279920272529125,0.00452507846057415,-0.0077192517928779125
18259172048537,0.8487445116043091,-9.696516990661621,1.9405004978179932,0.0005323622026480734,-0.0023956298828125,-0.01410759799182415
18259173285950,0.8619126081466675,-9.68813705444336,1.9273324012756348,0.0,-0.0015970865497365594,-0.008517795242369175
18259174523387,0.8643068075180054,-9.671378135681152,1.8854339122772217,-0.0026618109550327063,0.00452507846057415,-0.0114457868039608
18259175760812,0.8595184087753296,-9.706093788146973,1.899799108505249,0.0007985432748682797,0.0023956298828125,-0.0114457868039608
18259176998225,0.8786720037460327,-9.666589736938477,1.923741102218628,-0.0053236219100654125,0.00452507846057415,-0.012510511092841625
18259178235650,0.8619126081466675,-9.757569313049316,1.9297266006469727,-0.0021294488105922937,0.0021294488105922937,-0.01117960549890995
18259179473075,0.8822633624076843,-9.701305389404297,1.9045875072479248,-0.0005323622026480734,0.0021294488105922937,-0.01224433071911335
18259180710475,0.829590916633606,-9.715670585632324,1.944091796875,0.0002661811013240367,0.0042588976211845875,-0.013042873702943325
18259181947887,0.8463503122329712,-9.696516990661621,1.9105730056762695,-0.0039927163161337376,0.0018632676219567657,-0.01703559048473835
18259183185312,0.8236054182052612,-9.708487510681152,1.922544002532959,-0.005057440605014563,0.00452507846057415,-0.0215606689453125
18259184422737,0.889445960521698,-9.708487510681152,1.9560627937316895,-0.007985432632267475,0.0039927163161337376,-0.02182685025036335
18259185660125,0.8774749040603638,-9.68694019317627,1.9536685943603516,-0.0090501569211483,0.0,-0.0162370465695858
18259186897562,0.8475474119186401,-9.712079048156738,1.9381062984466553,-0.0063883461989462376,0.003460354171693325,-0.02182685025036335
18259188135000,0.8595184087753296,-9.695320129394531,1.98958158493042,-0.00452507846057415,0.0066545275039970875,-0.0210283063352108
18259189372412,0.8092401623725891,-9.68933391571045,2.0003554821014404,-0.003460354171693325,0.0026618109550327063,-0.0244886614382267
18259190609812,0.8738836050033569,-9.680954933166504,1.9931728839874268,-0.0026618109550327063,-0.0018632676219567657,-0.0268842913210392
18259191847225,0.8702923059463501,-9.655815124511719,1.9955670833587646,-0.006122165359556675,0.0029279920272529125,-0.0252872034907341
18259193084650,0.8918401598930359,-9.710882186889648,1.965639591217041,-0.0021294488105922937,0.007453070487827063,-0.02741665206849575
18259194322050,0.871489405632019,-9.712079048156738,1.968033790588379,-0.0053236219100654125,0.005855984054505825,-0.0276828333735466
18259195559487,0.9097966551780701,-9.707290649414062,1.923741102218628,-0.005855984054505825,0.0023956298828125,-0.02661811001598835
18259196796912,0.9097966551780701,-9.679757118225098,1.942894697189331,-0.0071868896484375,0.0018632676219567657,-0.02555338479578495
18259198034312,0.8930372595787048,-9.703699111938477,1.9572598934173584,0.0018632676219567657,0.00452507846057415,-0.02661811001598835
18259199271750,0.8906430602073669,-9.708487510681152,1.965639591217041,-0.0031941730994731188,0.0023956298828125,-0.02422248013317585
18259200509150,0.8667010068893433,-9.700108528137207,1.9620482921600342,-0.0018632676219567657,0.0063883461989462376,-0.0247548408806324
18259201746575,0.872686505317688,-9.680954933166504,1.9776105880737305,0.0002661811013240367,0.0018632676219567657,-0.02848137728869915
18259202983987,0.912190854549408,-9.649829864501953,1.964442491531372,0.0018632676219567657,0.0013309054775163531,-0.0247548408806324
18259204221400,0.9133879542350769,-9.643844604492188,1.9716250896453857,0.0010647244052961469,0.0039927163161337376,-0.02848137728869915
18259205458825,0.8535329103469849,-9.695320129394531,1.9608511924743652,0.0026618109550327063,0.005855984054505825,-0.0282151959836483
18259206696262,0.872686505317688,-9.660603523254395,1.9273324012756348,0.0002661811013240367,0.0077192517928779125,-0.0271504707634449
18259207933650,0.9600749015808105,-9.653421401977539,1.96683669090271,-0.0042588976211845875,0.0029279920272529125,-0.0234239362180233
18259209171075,0.8810662031173706,-9.654618263244629,1.968033790588379,0.0042588976211845875,-0.0015970865497365594,-0.02661811001598835
18259210408487,0.9014169573783875,-9.62947940826416,1.9381062984466553,0.0063883461989462376,0.0005323622026480734,-0.02981228195130825
18259211645912,0.8738836050033569,-9.660603523254395,1.9309237003326416,0.003460354171693325,0.0042588976211845875,-0.02502102218568325
18259212883325,0.8786720037460327,-9.66419506072998,1.9369091987609863,0.0029279920272529125,0.0042588976211845875,-0.02741665206849575
18259214120737,0.8774749040603638,-9.654618263244629,1.9261353015899658,0.0037265352439135313,0.0039927163161337376,-0.0295461006462574
18259215358162,0.888248860836029,-9.66299819946289,1.9249382019042969,0.0018632676219567657,0.0042588976211845875,-0.0244886614382267
18259216595587,0.9181763529777527,-9.655815124511719,1.92134690284729,0.0077192517928779125,0.0053236219100654125,-0.0258195661008358
18259217833000,0.8667010068893433,-9.622296333312988,1.9560627937316895,0.012510511092841625,0.0021294488105922937,-0.0234239362180233
18259219070425,0.8583213090896606,-9.691728591918945,1.96683669090271,0.005855984054505825,0.006122165359556675,-0.0228915736079216
18259220307837,0.9181763529777527,-9.676166534423828,1.9536685943603516,0.0037265352439135313,0.0010647244052961469,-0.0196974016726017
18259221545250,0.9241618514060974,-9.710882186889648,1.9500772953033447,0.00984870083630085,0.0010647244052961469,-0.0215606689453125
18259222782675,0.9085995554924011,-9.726444244384766,1.9345149993896484,0.010114881210029125,0.0005323622026480734,-0.02315775491297245
18259224020087,0.9014169573783875,-9.683348655700684,1.8902223110198975,0.004791259765625,-0.0010647244052961469,-0.01783413253724575
18259225257500,0.8942343592643738,-9.690531730651855,1.9560627937316895,0.0071868896484375,0.0023956298828125,-0.0191650390625
18259226494925,0.8595184087753296,-9.6989107131958,1.9045875072479248,0.0,0.0063883461989462376,-0.02182685025036335
18259227732350,0.8822633624076843,-9.694122314453125,1.8710685968399048,0.0015970865497365594,0.0018632676219567657,-0.01996358297765255
18259228969750,0.8810662031173706,-9.730035781860352,1.9369091987609863,0.007985432632267475,0.0066545275039970875,-0.0138414166867733
18259230207175,0.8930372595787048,-9.68694019317627,1.9381062984466553,0.0053236219100654125,0.005855984054505825,-0.014906140975654125
18259231444587,0.9205705523490906,-9.697713851928711,1.9285295009613037,-0.0002661811013240367,0.0021294488105922937,-0.01171196810901165
18259232682012,0.8523358106613159,-9.720458984375,1.9512743949890137,0.0015970865497365594,0.005057440605014563,-0.01410759799182415
18259233919437,0.8918401598930359,-9.72165584564209,1.9524714946746826,0.0023956298828125,0.0018632676219567657,-0.01703559048473835
18259235156825,0.8966285586357117,-9.678560256958008,1.9405004978179932,0.0031941730994731188,0.0018632676219567657,-0.01117960549890995
18259236394262,0.8870517611503601,-9.739612579345703,1.9512743949890137,0.0002661811013240367,0.0053236219100654125,-0.00958251953125
18259237631687,0.9397241473197937,-9.744400978088379,1.9189527034759521,0.0010647244052961469,0.003460354171693325,-0.010913425125181675
18259238869100,0.9002198576927185,-9.709685325622559,1.9141643047332764,0.0007985432748682797,0.0029279920272529125,-0.008517795242369175
18259240106512,0.9313444495201111,-9.724050521850586,1.9165585041046143,-0.0037265352439135313,0.0029279920272529125,-0.008251613937318325
18259241343937,0.8942343592643738,-9.730035781860352,1.9512743949890137,-0.0031941730994731188,0.0053236219100654125,-0.0114457868039608
18259242581350,0.9014169573783875,-9.740809440612793,1.9297266006469727,-0.0002661811013240367,0.005855984054505825,-0.0053236219100654125
18259243818775,0.8822633624076843,-9.710882186889648,1.941697597503662,-0.0039927163161337376,0.0071868896484375,-0.0026618109550327063
18259245056187,0.9038111567497253,-9.707290649414062,1.92134690284729,-0.008517795242369175,0.0071868896484375,-0.007453070487827063
18259246293600,0.8786720037460327,-9.706093788146973,1.9333178997039795,-0.0013309054775163531,0.005057440605014563,-0.00931633822619915
18259247531025,0.8978256583213806,-9.702502250671387,1.9321208000183105,-0.005589802749454975,0.008251613937318325,-0.01117960549890995
18259248768450,0.8762778043746948,-9.6989107131958,1.902193307876587,-0.0090501569211483,0.00958251953125,-0.006122165359556675
18259250005862,0.9085995554924011,-9.72285270690918,1.9045875072479248,-0.015172322280704975,0.01357523538172245,-0.003460354171693325
18259251243262,0.8810662031173706,-9.725247383117676,1.8902223110198975,-0.01357523538172245,0.013309055007994175,-0.0015970865497365594
18259252480675,0.8834604620933533,-9.728838920593262,1.8902223110198975,-0.0114457868039608,0.010381062515079975,-0.0010647244052961469
18259253718112,0.8966285586357117,-9.720458984375,1.9141643047332764,-0.015172322280704975,0.010647243820130825,-0.007985432632267475
18259254955512,0.8954314589500427,-9.697713851928711,1.9033904075622559,-0.013042873702943325,0.013309055007994175,-0.00984870083630085
18259256192925,0.8954314589500427,-9.749189376831055,1.9297266006469727,-0.0138414166867733,0.008251613937318325,-0.004791259765625
18259257430350,0.9002198576927185,-9.745597839355469,1.9057846069335938,-0.01463996060192585,0.01171196810901165,-0.0005323622026480734
18259258667762,0.889445960521698,-9.730035781860352,1.920149803161621,-0.013309055007994175,0.007453070487827063,-0.0013309054775163531
18259259905187,0.8942343592643738,-9.701305389404297,1.9141643047332764,-0.014373779296875,0.0063883461989462376,-0.0002661811013240367
18259261142612,0.8798691034317017,-9.746795654296875,1.9297266006469727,-0.013309055007994175,0.012776692397892475,-0.0018632676219567657
18259262380012,0.8750807046890259,-9.739612579345703,1.9345149993896484,-0.014906140975654125,0.012510511092841625,-0.0013309054775163531
18259263617437,0.9050082564353943,-9.731232643127441,1.8962078094482422,-0.01703559048473835,0.010647243820130825,-0.0018632676219567657
18259264854875,0.8906430602073669,-9.750386238098145,1.965639591217041,-0.0220930315554142,0.014906140975654125,-0.0026618109550327063
18259266092287,0.9038111567497253,-9.730035781860352,1.900996208190918,-0.0162370465695858,0.010647243820130825,-0.0037265352439135313
18259267329687,0.9026140570640564,-9.68813705444336,1.89860200881958,-0.0162370465695858,0.010114881210029125,-0.0010647244052961469
18259268567100,0.9133879542350769,-9.6989107131958,1.9620482921600342,-0.02315775491297245,0.010114881210029125,-0.00452507846057415
18259269804525,0.9169792532920837,-9.72165584564209,1.9488801956176758,-0.0186326764523983,0.0090501569211483,-0.0015970865497365594
18259271041950,0.8954314589500427,-9.676166534423828,1.9548656940460205,-0.0167694091796875,0.010647243820130825,-0.0021294488105922937
18259272279375,0.872686505317688,-9.68694019317627,1.900996208190918,-0.0157046839594841,0.013042873702943325,-0.0002661811013240367
18259273516787,0.8930372595787048,-9.674968719482422,1.945288896560669,-0.0157046839594841,0.013309055007994175,-0.0021294488105922937
18259274754187,0.9241618514060974,-9.712079048156738,1.9105730056762695,-0.01756795309484005,0.014373779296875,-0.0005323622026480734
18259275991612,0.912190854549408,-9.647436141967773,1.9177556037902832,-0.01889885775744915,0.0114457868039608,-0.003460354171693325
18259277229025,0.9421183466911316,-9.653421401977539,1.92134690284729,-0.01650322787463665,0.014906140975654125,0.0
18259278466450,0.970848798751831,-9.642647743225098,1.9261353015899658,-0.0204959437251091,0.015172322280704975,0.0005323622026480734
18259279703850,0.8930372595787048,-9.65222454071045,1.9357120990753174,-0.0157046839594841,0.0138414166867733,0.0010647244052961469
18259280941262,0.9133879542350769,-9.660603523254395,1.8902223110198975,-0.01650322787463665,0.015172322280704975,-0.0029279920272529125
18259282178687,0.8906430602073669,-9.646238327026367,1.9057846069335938,-0.01463996060192585,0.01463996060192585,-0.0042588976211845875
18259283416125,0.9229647517204285,-9.634267807006836,1.9105730056762695,-0.0090501569211483,0.01836649514734745,-0.0026618109550327063
18259284653525,0.8966285586357117,-9.617507934570312,1.923741102218628,-0.02076212503015995,0.01836649514734745,0.0031941730994731188
18259285890962,0.8954314589500427,-9.627084732055664,1.923741102218628,-0.0215606689453125,0.0138414166867733,-0.0010647244052961469
18259287128375,0.9193734526634216,-9.617507934570312,1.9177556037902832,-0.015438503585755825,0.0196974016726017,-0.0002661811013240367
18259288365787,0.9133879542350769,-9.592369079589844,1.9081788063049316,-0.013309055007994175,0.0191650390625,-0.0039927163161337376
18259289603200,0.8954314589500427,-9.588777542114258,1.9081788063049316,-0.0181003138422966,0.0157046839594841,-0.0042588976211845875
18259290840612,0.8834604620933533,-9.563638687133789,1.8914194107055664,-0.0210283063352108,0.015438503585755825,-0.0007985432748682797
18259292078037,0.912190854549408,-9.591172218322754,1.8974049091339111,-0.02129448764026165,0.0119781494140625,-0.0066545275039970875
18259293315450,0.9050082564353943,-9.57201862335205,1.9345149993896484,-0.01783413253724575,0.014906140975654125,-0.0010647244052961469
18259294552875,0.9097966551780701,-9.588777542114258,1.9141643047332764,-0.0138414166867733,0.0167694091796875,0.0026618109550327063
18259295790287,0.9074024558067322,-9.607931137084961,1.9033904075622559,-0.0138414166867733,0.0162370465695858,0.0013309054775163531
18259297027725,0.8810662031173706,-9.618705749511719,1.8483237028121948,-0.012776692397892475,0.0162370465695858,0.0007985432748682797
18259298265137,0.9313444495201111,-9.63067626953125,1.9093759059906006,-0.0138414166867733,0.0173017717897892,0.0018632676219567657
18259299502537,0.9445126056671143,-9.646238327026367,1.9045875072479248,-0.0138414166867733,0.008251613937318325,0.0010647244052961469
18259300739962,0.9085995554924011,-9.634267807006836,1.8734627962112427,-0.00984870083630085,0.013309055007994175,0.0021294488105922937
18259301977387,0.9002198576927185,-9.65222454071045,1.8579005002975464,-0.0063883461989462376,0.0162370465695858,0.0021294488105922937
18259303214800,0.9229647517204285,-9.679757118225098,1.8363527059555054,-0.0066545275039970875,0.01171196810901165,0.0002661811013240367
18259304452212,0.8906430602073669,-9.68574333190918,1.8698714971542358,-0.008783976547420025,0.01463996060192585,0.0021294488105922937
18259305689650,0.9313444495201111,-9.68933391571045,1.8842366933822632,-0.0077192517928779125,0.0173017717897892,0.010381062515079975
18259306927025,0.9301473498344421,-9.703699111938477,1.8746598958969116,-0.0042588976211845875,0.015172322280704975,0.008517795242369175
18259308164475,0.9097966551780701,-9.6989107131958,1.8854339122772217,-0.0013309054775163531,0.01597086526453495,0.0037265352439135313
18259309401887,0.93254154920578,-9.658209800720215,1.8866310119628906,-0.006122165359556675,0.0138414166867733,0.0021294488105922937
18259310639300,0.9469068050384521,-9.654618263244629,1.900996208190918,-0.00692070834338665,0.0157046839594841,0.0077192517928779125
18259311876712,0.9349357485771179,-9.654618263244629,1.9165585041046143,-0.0037265352439135313,0.014373779296875,0.007985432632267475
18259313114125,0.9624691009521484,-9.655815124511719,1.8950107097625732,-0.0005323622026480734,0.00958251953125,0.007453070487827063
18259314351562,0.9289502501487732,-9.653421401977539,1.9045875072479248,0.0010647244052961469,0.012510511092841625,0.0090501569211483
18259315588975,0.9361328482627869,-9.65222454071045,1.8866310119628906,-0.0018632676219567657,0.015172322280704975,0.008783976547420025
18259316826387,0.9612720012664795,-9.63187313079834,1.8902223110198975,-0.0023956298828125,0.012510511092841625,0.010114881210029125
18259318063825,0.9421183466911316,-9.625887870788574,1.8974049091339111,0.0005323622026480734,0.010381062515079975,0.0071868896484375
18259319301212,0.9445126056671143,-9.636661529541016,1.9105730056762695,0.0,0.012510511092841625,0.005855984054505825
18259320538650,0.9792284965515137,-9.603142738342285,1.8926165103912354,0.0013309054775163531,0.010114881210029125,0.007985432632267475
18259321776075,0.9780313968658447,-9.641449928283691,1.8495208024978638,0.0063883461989462376,0.014906140975654125,0.007453070487827063
18259323013475,0.9612720012664795,-9.653421401977539,1.900996208190918,0.0013309054775163531,0.01463996060192585,0.004791259765625
18259324250887,0.9289502501487732,-9.660603523254395,1.9117701053619385,0.0015970865497365594,0.0114457868039608,0.0077192517928779125
18259325488312,0.93254154920578,-9.66419506072998,1.89860200881958,0.003460354171693325,0.0071868896484375,0.004791259765625
18259326725750,0.9768342971801758,-9.671378135681152,1.866280198097229,-0.0015970865497365594,0.0090501569211483,0.0023956298828125
18259327963137,0.933738648891449,-9.680954933166504,1.8614917993545532,-0.0015970865497365594,0.005855984054505825,0.0042588976211845875
18259329200562,0.8798691034317017,-9.68694019317627,1.8902223110198975,-0.0015970865497365594,0.008783976547420025,0.003460354171693325
18259330437987,0.8822633624076843,-9.707290649414062,1.8938136100769043,0.0007985432748682797,0.010647243820130825,0.0031941730994731188
18259331675412,0.9157821536064148,-9.716867446899414,1.86508309841156,0.005855984054505825,0.01463996060192585,0.0013309054775163531
18259332912825,0.912190854549408,-9.731232643127441,1.844732403755188,0.0021294488105922937,0.010381062515079975,0.0007985432748682797
18259334150250,0.8822633624076843,-9.744400978088379,1.8830395936965942,0.0031941730994731188,0.008783976547420025,-0.0002661811013240367
18259335387662,0.8810662031173706,-9.7420072555542,1.8626888990402222,-0.0007985432748682797,0.0063883461989462376,-0.0010647244052961469
18259336625062,0.8858546614646912,-9.727641105651855,1.8926165103912354,-0.0015970865497365594,0.01410759799182415,-0.0018632676219567657
18259337862512,0.8702923059463501,-9.745597839355469,1.9141643047332764,-0.0066545275039970875,0.014373779296875,-0.0015970865497365594
18259339099912,0.8583213090896606,-9.726444244384766,1.8638859987258911,-0.0010647244052961469,0.01224433071911335,-0.0039927163161337376
18259340337325,0.8990227580070496,-9.724050521850586,1.8614917993545532,-0.007453070487827063,0.010381062515079975,-0.0029279920272529125
18259341574750,0.9217676520347595,-9.763554573059082,1.8842366933822632,-0.006122165359556675,0.0090501569211483,-0.005589802749454975
18259342812162,0.8906430602073669,-9.746795654296875,1.8483237028121948,-0.008251613937318325,0.010647243820130825,-0.0066545275039970875
18259344049575,0.8966285586357117,-9.747992515563965,1.8734627962112427,-0.0023956298828125,0.010114881210029125,-0.00452507846057415
18259345286987,0.8870517611503601,-9.731232643127441,1.8842366933822632,-0.0029279920272529125,0.00931633822619915,-0.006122165359556675
18259346524387,0.9301473498344421,-9.715670585632324,1.8962078094482422,-0.005589802749454975,0.00984870083630085,-0.008517795242369175
18259347761825,0.9085995554924011,-9.694122314453125,1.8926165103912354,-0.008251613937318325,0.008517795242369175,-0.007985432632267475
18259348999250,0.9409212470054626,-9.708487510681152,1.8806453943252563,-0.00692070834338665,0.00931633822619915,-0.0063883461989462376
18259350236650,0.9792284965515137,-9.654618263244629,1.8590975999832153,-0.0063883461989462376,0.01171196810901165,-0.01357523538172245
18259351474087,0.9481039047241211,-9.65222454071045,1.8926165103912354,-0.0077192517928779125,0.00984870083630085,-0.012510511092841625
18259352711512,0.9157821536064148,-9.666589736938477,1.8890252113342285,-0.0042588976211845875,0.010913425125181675,-0.008251613937318325
18259353948912,0.9421183466911316,-9.683348655700684,1.8782511949539185,-0.005589802749454975,0.013042873702943325,-0.015172322280704975
18259355186350,0.9301473498344421,-9.658209800720215,1.9309237003326416,-0.0037265352439135313,0.014906140975654125,-0.01357523538172245
18259356423737,0.9265560507774353,-9.606734275817871,1.902193307876587,0.0,0.010114881210029125,-0.008517795242369175
18259357661162,0.9277531504631042,-9.607931137084961,1.899799108505249,-0.0026618109550327063,0.01117960549890995,-0.005855984054505825
18259358898600,0.950498104095459,-9.637859344482422,1.89860200881958,-0.0021294488105922937,0.01117960549890995,-0.004791259765625
18259360136000,0.9564836025238037,-9.609128952026367,1.9177556037902832,0.0010647244052961469,0.01171196810901165,-0.012510511092841625
18259361373425,0.9481039047241211,-9.62947940826416,1.8914194107055664,-0.0023956298828125,0.010381062515079975,-0.007985432632267475
18259362610837,0.9696516990661621,-9.615114212036133,1.8782511949539185,-0.0031941730994731188,0.007985432632267475,-0.0114457868039608
18259363848262,0.9409212470054626,-9.59715747833252,1.92134690284729,0.0037265352439135313,0.0114457868039608,-0.0090501569211483
18259365085675,0.9433155059814453,-9.641449928283691,1.8602946996688843,0.0,0.010381062515079975,-0.0066545275039970875
18259366323087,0.9373299479484558,-9.623494148254395,1.8806453943252563,0.0023956298828125,0.0119781494140625,-0.007453070487827063
18259367560500,0.9540894031524658,-9.643844604492188,1.8974049091339111,0.0026618109550327063,0.00984870083630085,-0.00692070834338665
18259368797925,0.9852139949798584,-9.657012939453125,1.902193307876587,0.0039927163161337376,0.008251613937318325,-0.003460354171693325
18259370035350,0.9481039047241211,-9.65222454071045,1.8579005002975464,0.0037265352439135313,0.010381062515079975,-0.005855984054505825
18259371272762,0.9445126056671143,-9.655815124511719,1.9165585041046143,0.0031941730994731188,0.014373779296875,-0.005057440605014563
18259372510187,0.9552865028381348,-9.647436141967773,1.8866310119628906,0.004791259765625,0.00692070834338665,-0.0018632676219567657
18259373747612,0.9409212470054626,-9.651026725769043,1.8590975999832153,0.0077192517928779125,0.005057440605014563,0.0026618109550327063
18259374985025,0.9983820915222168,-9.639056205749512,1.8531121015548706,0.0039927163161337376,0.008517795242369175,-0.0015970865497365594
18259376222425,0.9301473498344421,-9.625887870788574,1.8938136100769043,0.005057440605014563,0.012776692397892475,0.0002661811013240367
18259377459862,0.9552865028381348,-9.615114212036133,1.8818424940109253,0.0015970865497365594,0.01357523538172245,-0.005057440605014563
18259378697275,0.9193734526634216,-9.680954933166504,1.8914194107055664,0.0023956298828125,0.008517795242369175,-0.0037265352439135313
18259379934700,0.94930100440979,-9.677363395690918,1.8926165103912354,0.008517795242369175,0.010913425125181675,-0.0031941730994731188
18259381172112,0.9469068050384521,-9.634267807006836,1.8746598958969116,0.0053236219100654125,0.005855984054505825,-0.0042588976211845875
18259382409525,0.9648633003234863,-9.62828254699707,1.8818424940109253,0.0037265352439135313,-0.0002661811013240367,-0.0002661811013240367
18259383646925,0.950498104095459,-9.589975357055664,1.900996208190918,0.00692070834338665,0.00692070834338665,0.0005323622026480734
18259384884375,0.9361328482627869,-9.62947940826416,1.8698714971542358,0.005855984054505825,0.01171196810901165,-0.0018632676219567657
18259386121775,0.9193734526634216,-9.625887870788574,1.8950107097625732,0.0071868896484375,0.01224433071911335,0.0029279920272529125
18259387359200,0.910993754863739,-9.654618263244629,1.8818424940109253,0.006122165359556675,0.0090501569211483,0.005855984054505825
18259388596612,0.910993754863739,-9.651026725769043,1.8878281116485596,0.00984870083630085,0.0090501569211483,0.0015970865497365594
18259389834037,0.9385270476341248,-9.648633003234863,1.866280198097229,0.005855984054505825,0.005855984054505825,0.0007985432748682797
18259391071425,0.9265560507774353,-9.645041465759277,1.8602946996688843,0.00452507846057415,0.0063883461989462376,-0.0010647244052961469
18259392308850,0.9265560507774353,-9.659406661987305,1.9057846069335938,0.00984870083630085,0.010913425125181675,0.0029279920272529125
18259393546287,0.9768342971801758,-9.624691009521484,1.8806453943252563,0.008517795242369175,0.008783976547420025,-0.0007985432748682797
18259394783725,0.9469068050384521,-9.65222454071045,1.8866310119628906,0.00931633822619915,0.0090501569211483,0.0039927163161337376
18259396021125,0.9349357485771179,-9.697713851928711,1.866280198097229,0.008517795242369175,0.01224433071911335,0.0037265352439135313
18259397258537,0.9911994934082031,-9.658209800720215,1.8782511949539185,0.006122165359556675,0.0077192517928779125,0.0005323622026480734
18259398495937,0.9660604000091553,-9.651026725769043,1.9093759059906006,0.010647243820130825,0.00452507846057415,0.0005323622026480734
18259399733362,0.9552865028381348,-9.655815124511719,1.9117701053619385,0.008251613937318325,0.01117960549890995,0.005855984054505825
18259400970787,0.9181763529777527,-9.635464668273926,1.8938136100769043,0.00958251953125,0.008783976547420025,0.0039927163161337376
18259402208212,0.933738648891449,-9.642647743225098,1.9081788063049316,0.008783976547420025,0.00692070834338665,0.0063883461989462376
18259403445612,0.9062053561210632,-9.666589736938477,1.942894697189331,0.0063883461989462376,0.0090501569211483,0.00931633822619915
18259404683050,0.9433155059814453,-9.648633003234863,1.946485996246338,0.010913425125181675,0.008783976547420025,0.0119781494140625
18259405920462,0.9385270476341248,-9.641449928283691,1.89860200881958,0.01117960549890995,0.004791259765625,0.01224433071911335
18259407157887,0.9516952037811279,-9.637859344482422,1.8866310119628906,0.007985432632267475,0.003460354171693325,0.00931633822619915
18259408395275,0.9397241473197937,-9.690531730651855,1.923741102218628,0.01597086526453495,0.008251613937318325,0.0002661811013240367
18259409632712,0.9397241473197937,-9.660603523254395,1.9165585041046143,0.014906140975654125,0.010913425125181675,0.005855984054505825
18259410870137,0.99479079246521,-9.678560256958008,1.8890252113342285,0.010913425125181675,0.01224433071911335,0.005057440605014563
18259412107537,0.9469068050384521,-9.66419506072998,1.8267759084701538,0.006122165359556675,0.013042873702943325,0.008783976547420025
18259413344950,0.9660604000091553,-9.707290649414062,1.902193307876587,0.0090501569211483,0.0090501569211483,0.0071868896484375
18259414582387,0.950498104095459,-9.696516990661621,1.9045875072479248,0.01171196810901165,0.0162370465695858,0.0066545275039970875
