timestamp_ns,accel_x,accel_y,accel_z,gyro_x,gyro_y,gyro_z
2625340733262,1.459265947341919,-9.770737648010254,1.1803414821624756,0.00692070834338665,0.0066545275039970875,0.0077192517928779125
2625341970512,1.5083470344543457,-9.756372451782227,1.2018892765045166,0.008517795242369175,0.006122165359556675,0.0066545275039970875
2625343207712,1.4772224426269531,-9.75158405303955,1.1803414821624756,0.00984870083630085,0.012510511092841625,0.005855984054505825
2625344444937,1.4844050407409668,-9.758766174316406,1.2102689743041992,0.006122165359556675,0.005589802749454975,0.0053236219100654125
2625345682162,1.5143325328826904,-9.724050521850586,1.1803414821624756,0.00692070834338665,0.0037265352439135313,0.007453070487827063
2625346919400,1.482010841369629,-9.750386238098145,1.2282254695892334,0.005057440605014563,0.0026618109550327063,0.006122165359556675
2625348156625,1.5263036489486694,-9.732430458068848,1.1815385818481445,0.0077192517928779125,0.0071868896484375,0.007985432632267475
2625349393837,1.5430630445480347,-9.740809440612793,1.1563994884490967,0.010647243820130825,0.003460354171693325,0.007985432632267475
2625350631062,1.4987702369689941,-9.749189376831055,1.213860273361206,0.007453070487827063,0.0037265352439135313,0.008517795242369175
2625351868275,1.5155296325683594,-9.786299705505371,1.2102689743041992,0.00931633822619915,0.0039927163161337376,0.01171196810901165
2625353105500,1.5143325328826904,-9.759963035583496,1.217451572418213,0.005855984054505825,0.005855984054505825,0.0090501569211483
2625354342725,1.5083470344543457,-9.71926212310791,1.1528080701828003,0.0013309054775163531,0.0066545275039970875,0.010381062515079975
2625355579962,1.499967336654663,-9.769539833068848,1.1599907875061035,0.0039927163161337376,0.0029279920272529125,0.0114457868039608
2625356817175,1.501164436340332,-9.731232643127441,1.1743559837341309,0.005057440605014563,0.0010647244052961469,0.0066545275039970875
2625358054400,1.5310920476913452,-9.75517463684082,1.170764684677124,0.008517795242369175,0.00452507846057415,0.007985432632267475
2625359291625,1.5418659448623657,-9.747992515563965,1.1994950771331787,0.013309055007994175,-0.0021294488105922937,0.008783976547420025
2625360528850,1.5143325328826904,-9.768342971801758,1.193509578704834,0.00931633822619915,-0.0007985432748682797,0.008251613937318325
2625361766087,1.5466543436050415,-9.734824180603027,1.1791443824768066,0.00692070834338665,0.0031941730994731188,0.010114881210029125
2625363003287,1.5155296325683594,-9.733627319335938,1.173158884048462,0.0071868896484375,0.005589802749454975,0.00931633822619915
2625364240525,1.5131354331970215,-9.798270225524902,1.1635820865631104,0.004791259765625,0.006122165359556675,0.00692070834338665
2625365477737,1.4987702369689941,-9.782708168029785,1.2234370708465576,0.0029279920272529125,0.0037265352439135313,0.008251613937318325
2625366714987,1.556231141090393,-9.734824180603027,1.192312479019165,0.006122165359556675,0.0,0.0114457868039608
2625367952175,1.5083470344543457,-9.740809440612793,1.2234370708465576,0.010381062515079975,-0.0029279920272529125,0.00692070834338665
2625369189437,1.4712369441986084,-9.745597839355469,1.194706678390503,0.008517795242369175,0.0023956298828125,0.005057440605014563
2625370426650,1.4963760375976562,-9.762357711791992,1.212663173675537,0.0077192517928779125,0.007453070487827063,0.0090501569211483
2625371663875,1.5131354331970215,-9.737218856811523,1.1827356815338135,0.0031941730994731188,-0.0013309054775163531,0.006122165359556675
2625372901100,1.533486247062683,-9.727641105651855,1.173158884048462,0.005855984054505825,0.0013309054775163531,0.008251613937318325
2625374138312,1.558625340461731,-9.758766174316406,1.1635820865631104,0.007985432632267475,0.0063883461989462376,0.0071868896484375
2625375375550,1.4616601467132568,-9.767146110534668,1.1815385818481445,0.0138414166867733,-0.0026618109550327063,0.00958251953125
2625376612750,1.5047557353973389,-9.750386238098145,1.171961784362793,0.010114881210029125,0.0053236219100654125,0.0063883461989462376
2625377849975,1.4963760375976562,-9.749189376831055,1.1683704853057861,0.0071868896484375,0.0002661811013240367,0.0037265352439135313
2625379087200,1.5119383335113525,-9.7420072555542,1.1791443824768066,0.008517795242369175,0.0039927163161337376,0.007985432632267475
2625380324437,1.5119383335113525,-9.767146110534668,1.1552022695541382,0.0029279920272529125,0.00984870083630085,0.007453070487827063
2625381561650,1.5143325328826904,-9.799468040466309,1.1899182796478271,0.0039927163161337376,0.0013309054775163531,0.010913425125181675
2625382798900,1.4951789379119873,-9.771934509277344,1.2198457717895508,0.0026618109550327063,0.0,0.00984870083630085
2625384036087,1.478419542312622,-9.725247383117676,1.1779472827911377,0.0015970865497365594,0.004791259765625,0.008783976547420025
2625385273337,1.4987702369689941,-9.764751434326172,1.1887211799621582,0.00692070834338665,0.0021294488105922937,0.008251613937318325
2625386510575,1.533486247062683,-9.736021041870117,1.2078747749328613,0.0071868896484375,0.0002661811013240367,0.013042873702943325
2625387747787,1.5143325328826904,-9.743204116821289,1.1815385818481445,0.005589802749454975,-0.0005323622026480734,0.00958251953125
2625388985012,1.5215152502059937,-9.780314445495605,1.1779472827911377,0.0031941730994731188,0.0015970865497365594,0.010114881210029125
2625390222225,1.4903905391693115,-9.761160850524902,1.1743559837341309,0.0077192517928779125,-0.0002661811013240367,0.015438503585755825
2625391459437,1.4724340438842773,-9.789891242980957,1.1863269805908203,0.0053236219100654125,0.0013309054775163531,0.010647243820130825
2625392696687,1.5502456426620483,-9.782708168029785,1.2413935661315918,0.0066545275039970875,0.0005323622026480734,0.012776692397892475
2625393933900,1.5215152502059937,-9.758766174316406,1.1803414821624756,0.0010647244052961469,-0.0031941730994731188,0.0119781494140625
2625395171125,1.4736311435699463,-9.768342971801758,1.170764684677124,0.0021294488105922937,0.0002661811013240367,0.00692070834338665
2625396408350,1.48081374168396,-9.761160850524902,1.1803414821624756,0.0026618109550327063,-0.0010647244052961469,0.0077192517928779125
2625397645575,1.5263036489486694,-9.734824180603027,1.1791443824768066,0.006122165359556675,0.0002661811013240367,0.0114457868039608
2625398882800,1.5215152502059937,-9.728838920593262,1.1899182796478271,0.00692070834338665,0.0023956298828125,0.01117960549890995
2625400120012,1.478419542312622,-9.771934509277344,1.1647791862487793,0.008251613937318325,-0.0002661811013240367,0.014373779296875
2625401357225,1.4903905391693115,-9.712079048156738,1.192312479019165,0.005589802749454975,0.0002661811013240367,0.00984870083630085
2625402594450,1.4891934394836426,-9.75158405303955,1.1887211799621582,0.0023956298828125,-0.004791259765625,0.0138414166867733
2625403831687,1.5071499347686768,-9.762357711791992,1.2258312702178955,-0.0002661811013240367,-0.0015970865497365594,0.010114881210029125
2625405068912,1.4975731372833252,-9.759963035583496,1.1803414821624756,-0.0010647244052961469,-0.0029279920272529125,0.013309055007994175
2625406306150,1.4951789379119873,-9.747992515563965,1.2018892765045166,0.0007985432748682797,-0.00452507846057415,0.0191650390625
2625407543350,1.5131354331970215,-9.770737648010254,1.2186486721038818,-0.0002661811013240367,-0.0039927163161337376,0.0114457868039608
2625408780587,1.4867992401123047,-9.7420072555542,1.1791443824768066,0.0015970865497365594,-0.0021294488105922937,0.010647243820130825
2625410017812,1.5143325328826904,-9.734824180603027,1.1623849868774414,0.00452507846057415,-0.0053236219100654125,0.0138414166867733
2625411255012,1.4760253429412842,-9.720458984375,1.2066776752471924,-0.0013309054775163531,-0.0026618109550327063,0.01171196810901165
2625412492275,1.4544775485992432,-9.773131370544434,1.171961784362793,0.0010647244052961469,0.0021294488105922937,0.01224433071911335
2625413729475,1.4939818382263184,-9.77791976928711,1.215057373046875,0.0010647244052961469,-0.0023956298828125,0.010913425125181675
2625414966712,1.4856021404266357,-9.75158405303955,1.2006921768188477,-0.0026618109550327063,-0.00692070834338665,0.013309055007994175
2625416203937,1.502361536026001,-9.738415718078613,1.137245774269104,-0.0018632676219567657,-0.003460354171693325,0.01650322787463665
2625417441150,1.5203181505203247,-9.767146110534668,1.171961784362793,0.0013309054775163531,-0.0042588976211845875,0.01996358297765255
2625418678387,1.455674648284912,-9.731232643127441,1.2210428714752197,-0.0018632676219567657,-0.0018632676219567657,0.01650322787463665
2625419915600,1.478419542312622,-9.728838920593262,1.2282254695892334,-0.0005323622026480734,-0.0007985432748682797,0.0157046839594841
2625421152812,1.4688427448272705,-9.765949249267578,1.2030863761901855,-0.0037265352439135313,-0.0042588976211845875,0.01650322787463665
2625422390037,1.4736311435699463,-9.736021041870117,1.1815385818481445,0.0002661811013240367,-0.005589802749454975,0.02022976242005825
2625423627287,1.4891934394836426,-9.739612579345703,1.1599907875061035,0.0021294488105922937,-0.0002661811013240367,0.01836649514734745
2625424864475,1.5047557353973389,-9.806650161743164,1.1791443824768066,0.0005323622026480734,-0.0026618109550327063,0.010381062515079975
2625426101725,1.5155296325683594,-9.7791166305542,1.212663173675537,-0.0026618109550327063,-0.006122165359556675,0.0173017717897892
2625427338937,1.437718152999878,-9.795876502990723,1.1755530834197998,-0.0015970865497365594,-0.0053236219100654125,0.0191650390625
2625428576175,1.4712369441986084,-9.75397777557373,1.1875240802764893,0.0013309054775163531,-0.0037265352439135313,0.0204959437251091
2625429813400,1.4987702369689941,-9.767146110534668,1.191115379333496,-0.0042588976211845875,-0.004791259765625,0.01597086526453495
2625431050625,1.4987702369689941,-9.780314445495605,1.170764684677124,-0.005855984054505825,-0.0013309054775163531,0.015172322280704975
2625432287825,1.4496891498565674,-9.763554573059082,1.2198457717895508,-0.00452507846057415,-0.0039927163161337376,0.0162370465695858
2625433525062,1.4879963397979736,-9.761160850524902,1.2006921768188477,-0.0039927163161337376,-0.004791259765625,0.012776692397892475
2625434762275,1.4760253429412842,-9.739612579345703,1.217451572418213,-0.004791259765625,-0.0031941730994731188,0.01756795309484005
2625435999512,1.4652514457702637,-9.7791166305542,1.1683704853057861,-0.0031941730994731188,-0.0053236219100654125,0.01996358297765255
2625437236737,1.4437036514282227,-9.785102844238281,1.2258312702178955,-0.0066545275039970875,-0.005855984054505825,0.0204959437251091
2625438473975,1.482010841369629,-9.797073364257812,1.194706678390503,-0.008783976547420025,0.0007985432748682797,0.0191650390625
2625439711187,1.4628572463989258,-9.769539833068848,1.2090718746185303,-0.0077192517928779125,-0.0002661811013240367,0.01889885775744915
2625440948400,1.4472949504852295,-9.77552604675293,1.1791443824768066,-0.0029279920272529125,-0.005589802749454975,0.0244886614382267
2625442185625,1.4736311435699463,-9.75397777557373,1.2054805755615234,-0.0021294488105922937,-0.0021294488105922937,0.01703559048473835
2625443422850,1.4544775485992432,-9.757569313049316,1.1887211799621582,-0.0071868896484375,-0.0018632676219567657,0.015172322280704975
2625444660075,1.460463047027588,-9.75397777557373,1.1743559837341309,-0.005589802749454975,-0.006122165359556675,0.02129448764026165
2625445897312,1.460463047027588,-9.759963035583496,1.2437877655029297,-0.0063883461989462376,-0.0042588976211845875,0.02555338479578495
2625447134525,1.4951789379119873,-9.745597839355469,1.1851298809051514,-0.005057440605014563,-0.004791259765625,0.02315775491297245
2625448371762,1.4844050407409668,-9.733627319335938,1.2210428714752197,-0.0002661811013240367,-0.00692070834338665,0.0204959437251091
2625449608975,1.4832079410552979,-9.75397777557373,1.191115379333496,-0.0005323622026480734,-0.0042588976211845875,0.01996358297765255
2625450846200,1.4664485454559326,-9.734824180603027,1.173158884048462,-0.008517795242369175,-0.0015970865497365594,0.0228915736079216
2625452083425,1.4724340438842773,-9.767146110534668,1.1827356815338135,-0.008517795242369175,-0.0023956298828125,0.0210283063352108
2625453320675,1.50355863571167,-9.7420072555542,1.2006921768188477,-0.008517795242369175,-0.007985432632267475,0.0204959437251091
2625454557875,1.4879963397979736,-9.743204116821289,1.236605167388916,-0.010114881210029125,-0.0071868896484375,0.0204959437251091
2625455795100,1.4700398445129395,-9.780314445495605,1.1540051698684692,-0.010647243820130825,-0.0026618109550327063,0.0196974016726017
2625457032325,1.5131354331970215,-9.763554573059082,1.237802267074585,-0.0042588976211845875,-0.0029279920272529125,0.015172322280704975
2625458269550,1.5047557353973389,-9.761160850524902,1.192312479019165,-0.005057440605014563,-0.008251613937318325,0.0162370465695858
2625459506787,1.4676456451416016,-9.743204116821289,1.1587936878204346,-0.0077192517928779125,-0.0053236219100654125,0.02262539230287075
2625460744000,1.459265947341919,-9.72285270690918,1.2234370708465576,-0.0114457868039608,-0.004791259765625,0.0228915736079216
2625461981212,1.5167267322540283,-9.738415718078613,1.215057373046875,-0.010647243820130825,0.0,0.01650322787463665
2625463218425,1.4832079410552979,-9.7420072555542,1.1875240802764893,-0.01224433071911335,0.0031941730994731188,0.0191650390625
2625464455662,1.5071499347686768,-9.714473724365234,1.1635820865631104,-0.0066545275039970875,-0.0021294488105922937,0.0191650390625
2625465692900,1.460463047027588,-9.761160850524902,1.1971008777618408,-0.0063883461989462376,-0.00692070834338665,0.01996358297765255
2625466930125,1.4867992401123047,-9.725247383117676,1.192312479019165,-0.007985432632267475,-0.0077192517928779125,0.0223592109978199
2625468167350,1.4963760375976562,-9.7420072555542,1.1827356815338135,-0.006122165359556675,-0.0071868896484375,0.02182685025036335
2625469404562,1.4963760375976562,-9.734824180603027,1.173158884048462,-0.005589802749454975,-0.006122165359556675,0.02022976242005825
2625470641787,1.4712369441986084,-9.75397777557373,1.171961784362793,-0.006122165359556675,-0.00452507846057415,0.02022976242005825
2625471879025,1.4832079410552979,-9.72165584564209,1.193509578704834,-0.008517795242369175,-0.0018632676219567657,0.013309055007994175
2625473116250,1.437718152999878,-9.750386238098145,1.1623849868774414,-0.013309055007994175,-0.003460354171693325,0.014373779296875
2625474353462,1.4508862495422363,-9.736021041870117,1.2090718746185303,-0.012776692397892475,-0.0071868896484375,0.0204959437251091
2625475590687,1.4520833492279053,-9.71926212310791,1.2066776752471924,-0.005057440605014563,-0.0042588976211845875,0.01943122036755085
2625476827912,1.48081374168396,-9.6989107131958,1.1827356815338135,-0.007985432632267475,-0.0031941730994731188,0.0196974016726017
2625478065150,1.5191209316253662,-9.737218856811523,1.193509578704834,-0.00984870083630085,-0.0031941730994731188,0.01889885775744915
2625479302375,1.5119383335113525,-9.71926212310791,1.1683704853057861,-0.010647243820130825,-0.004791259765625,0.01783413253724575
2625480539600,1.48081374168396,-9.734824180603027,1.216254472732544,-0.01224433071911335,-0.0023956298828125,0.02182685025036335
2625481776812,1.4293384552001953,-9.737218856811523,1.2342109680175781,-0.010381062515079975,0.003460354171693325,0.02315775491297245
2625483014050,1.4664485454559326,-9.736021041870117,1.2342109680175781,-0.005855984054505825,-0.0013309054775163531,0.0181003138422966
2625484251275,1.460463047027588,-9.7420072555542,1.2054805755615234,-0.006122165359556675,-0.005855984054505825,0.01996358297765255
2625485488487,1.434126853942871,-9.734824180603027,1.1851298809051514,-0.0090501569211483,-0.008783976547420025,0.0220930315554142
2625486725712,1.4532804489135742,-9.690531730651855,1.1659762859344482,-0.0066545275039970875,0.0,0.0223592109978199
2625487962950,1.416170358657837,-9.75517463684082,1.191115379333496,-0.008517795242369175,0.0007985432748682797,0.023956298828125
2625489200187,1.4305355548858643,-9.780314445495605,1.1575965881347656,-0.0063883461989462376,-0.0021294488105922937,0.02608574740588665
2625490437387,1.456871747970581,-9.733627319335938,1.193509578704834,-0.01224433071911335,-0.0023956298828125,0.0247548408806324
2625491674612,1.4413094520568848,-9.744400978088379,1.2342109680175781,-0.0157046839594841,-0.00692070834338665,0.02555338479578495
2625492911837,1.4389152526855469,-9.759963035583496,1.1959037780761719,-0.00692070834338665,-0.0021294488105922937,0.0228915736079216
2625494149062,1.4389152526855469,-9.724050521850586,1.1875240802764893,-0.008517795242369175,0.0,0.0204959437251091
2625495386250,1.4449007511138916,-9.75158405303955,1.1827356815338135,-0.015438503585755825,-0.006122165359556675,0.0247548408806324
2625496623500,1.4724340438842773,-9.757569313049316,1.1863269805908203,-0.007985432632267475,-0.00452507846057415,0.02502102218568325
2625497860737,1.4508862495422363,-9.781511306762695,1.2102689743041992,-0.0071868896484375,-0.0013309054775163531,0.02262539230287075
2625499097975,1.4748282432556152,-9.758766174316406,1.193509578704834,-0.00931633822619915,-0.0013309054775163531,0.02129448764026165
2625500335187,1.4389152526855469,-9.774328231811523,1.2042834758758545,-0.0138414166867733,-0.0002661811013240367,0.0210283063352108
2625501572400,1.4305355548858643,-9.763554573059082,1.1887211799621582,-0.010913425125181675,0.0018632676219567657,0.0223592109978199
2625502809637,1.459265947341919,-9.765949249267578,1.2114660739898682,-0.00958251953125,0.0015970865497365594,0.02369011752307415
2625504046875,1.4484920501708984,-9.744400978088379,1.1791443824768066,-0.010381062515079975,0.0018632676219567657,0.023956298828125
2625505284087,1.48081374168396,-9.724050521850586,1.2030863761901855,-0.010381062515079975,-0.0005323622026480734,0.02422248013317585
2625506521312,1.4293384552001953,-9.758766174316406,1.1647791862487793,-0.00984870083630085,0.0018632676219567657,0.0223592109978199
2625507758537,1.4508862495422363,-9.756372451782227,1.1791443824768066,-0.012510511092841625,0.006122165359556675,0.0220930315554142
2625508995762,1.4508862495422363,-9.732430458068848,1.1540051698684692,-0.013309055007994175,-0.0002661811013240367,0.023956298828125
2625510232975,1.4221558570861816,-9.739612579345703,1.2030863761901855,-0.01117960549890995,0.0002661811013240367,0.02422248013317585
2625511470212,1.4041993618011475,-9.75278091430664,1.1599907875061035,-0.0186326764523983,0.0090501569211483,0.0210283063352108
2625512707437,1.4736311435699463,-9.804256439208984,1.1587936878204346,-0.0138414166867733,0.0066545275039970875,0.0173017717897892
2625513944650,1.4305355548858643,-9.728838920593262,1.1994950771331787,-0.0114457868039608,0.0007985432748682797,0.0234239362180233
2625515181875,1.4508862495422363,-9.743204116821289,1.192312479019165,-0.012510511092841625,0.0005323622026480734,0.02262539230287075
2625516419112,1.3970166444778442,-9.764751434326172,1.1611878871917725,-0.013309055007994175,0.0018632676219567657,0.02022976242005825
2625517656337,1.4293384552001953,-9.715670585632324,1.1959037780761719,-0.01650322787463665,0.0023956298828125,0.01756795309484005
2625518893550,1.455674648284912,-9.792284965515137,1.1839327812194824,-0.01783413253724575,0.0013309054775163531,0.0191650390625
2625520130775,1.3982137441635132,-9.759963035583496,1.1815385818481445,-0.0157046839594841,0.0037265352439135313,0.023956298828125
2625521367987,1.4437036514282227,-9.762357711791992,1.192312479019165,-0.0119781494140625,0.0002661811013240367,0.0223592109978199
2625522605212,1.4760253429412842,-9.75397777557373,1.138442873954773,-0.010647243820130825,0.0015970865497365594,0.01943122036755085
2625523842437,1.459265947341919,-9.744400978088379,1.1528080701828003,-0.0138414166867733,0.0031941730994731188,0.01889885775744915
2625525079687,1.4915876388549805,-9.781511306762695,1.1599907875061035,-0.015172322280704975,-0.0005323622026480734,0.01943122036755085
2625526316912,1.4437036514282227,-9.770737648010254,1.1623849868774414,-0.0167694091796875,0.00452507846057415,0.0196974016726017
2625527554125,1.4640543460845947,-9.732430458068848,1.1779472827911377,-0.012776692397892475,0.004791259765625,0.01597086526453495
2625528791350,1.460463047027588,-9.731232643127441,1.1982979774475098,-0.012510511092841625,-0.0005323622026480734,0.01783413253724575
2625530028600,1.414973258972168,-9.713275909423828,1.1563994884490967,-0.014906140975654125,-0.0018632676219567657,0.0173017717897892
2625531265812,1.45806884765625,-9.7420072555542,1.1432312726974487,-0.0157046839594841,-0.0066545275039970875,0.0215606689453125
2625532503025,1.456871747970581,-9.744400978088379,1.1504138708114624,-0.0162370465695858,-0.0010647244052961469,0.01650322787463665
2625533740250,1.4197616577148438,-9.718064308166504,1.1875240802764893,-0.015438503585755825,0.0071868896484375,0.012510511092841625
2625534977500,1.455674648284912,-9.75158405303955,1.1875240802764893,-0.01650322787463665,0.007985432632267475,0.0167694091796875
2625536214712,1.45806884765625,-9.728838920593262,1.1755530834197998,-0.01410759799182415,0.004791259765625,0.01463996060192585
2625537451912,1.4520833492279053,-9.720458984375,1.1587936878204346,-0.013042873702943325,0.0037265352439135313,0.01783413253724575
2625538689162,1.4281413555145264,-9.720458984375,1.2198457717895508,-0.01463996060192585,0.007453070487827063,0.01171196810901165
2625539926350,1.4460978507995605,-9.740809440612793,1.194706678390503,-0.00958251953125,0.005855984054505825,0.01889885775744915
2625541163587,1.4269442558288574,-9.709685325622559,1.1815385818481445,-0.01224433071911335,0.008783976547420025,0.0196974016726017
2625542400837,1.4065935611724854,-9.733627319335938,1.1815385818481445,-0.01597086526453495,0.00931633822619915,0.0167694091796875
2625543638037,1.4664485454559326,-9.727641105651855,1.1899182796478271,-0.0090501569211483,0.0010647244052961469,0.01836649514734745
2625544875262,1.4089877605438232,-9.72285270690918,1.173158884048462,-0.0066545275039970875,-0.0013309054775163531,0.01650322787463665
2625546112487,1.43532395362854,-9.703699111938477,1.1623849868774414,-0.01703559048473835,0.0026618109550327063,0.01357523538172245
2625547349712,1.4317326545715332,-9.725247383117676,1.1468225717544556,-0.0181003138422966,0.0042588976211845875,0.01410759799182415
2625548586937,1.4221558570861816,-9.737218856811523,1.1540051698684692,-0.015172322280704975,0.01117960549890995,0.008517795242369175
2625549824162,1.4640543460845947,-9.72285270690918,1.137245774269104,-0.01463996060192585,0.01224433071911335,0.0138414166867733
2625551061400,1.4317326545715332,-9.736021041870117,1.1827356815338135,-0.013042873702943325,0.0077192517928779125,0.01996358297765255
2625552298650,1.4676456451416016,-9.727641105651855,1.1420341730117798,-0.0181003138422966,0.0010647244052961469,0.01836649514734745
2625553535837,1.482010841369629,-9.720458984375,1.1683704853057861,-0.0114457868039608,0.00452507846057415,0.013042873702943325
2625554773075,1.4496891498565674,-9.712079048156738,1.1312602758407593,-0.01171196810901165,0.0023956298828125,0.010381062515079975
2625556010275,1.45806884765625,-9.71926212310791,1.2042834758758545,-0.0162370465695858,0.00692070834338665,0.012776692397892475
2625557247512,1.4652514457702637,-9.740809440612793,1.1659762859344482,-0.014373779296875,0.010647243820130825,0.0114457868039608
2625558484750,1.4089877605438232,-9.747992515563965,1.193509578704834,-0.0162370465695858,0.005589802749454975,0.012776692397892475
2625559721962,1.45806884765625,-9.750386238098145,1.1647791862487793,-0.010913425125181675,0.0042588976211845875,0.010381062515079975
2625560959187,1.4245500564575195,-9.745597839355469,1.1839327812194824,-0.01597086526453495,0.00692070834338665,0.010913425125181675
2625562196425,1.455674648284912,-9.745597839355469,1.1791443824768066,-0.01224433071911335,0.008251613937318325,0.00931633822619915
2625563433637,1.456871747970581,-9.75158405303955,1.1444283723831177,-0.00931633822619915,0.0090501569211483,0.00931633822619915
2625564670850,1.4544775485992432,-9.716867446899414,1.1839327812194824,-0.01224433071911335,0.0063883461989462376,0.01357523538172245
2625565908087,1.4401123523712158,-9.703699111938477,1.2210428714752197,-0.0114457868039608,0.005855984054505825,0.00931633822619915
2625567145312,1.4700398445129395,-9.738415718078613,1.2018892765045166,-0.00958251953125,0.008251613937318325,0.013309055007994175
2625568382537,1.4413094520568848,-9.731232643127441,1.1623849868774414,-0.01224433071911335,0.008251613937318325,0.0066545275039970875
2625569619787,1.4269442558288574,-9.730035781860352,1.1324573755264282,-0.01117960549890995,0.01410759799182415,0.010913425125181675
2625570856987,1.4329297542572021,-9.740809440612793,1.1767501831054688,-0.0119781494140625,0.010647243820130825,0.01117960549890995
2625572094212,1.4221558570861816,-9.743204116821289,1.1779472827911377,-0.01357523538172245,0.007453070487827063,0.0090501569211483
2625573331425,1.459265947341919,-9.728838920593262,1.1827356815338135,-0.0119781494140625,0.010913425125181675,0.01171196810901165
2625574568637,1.416170358657837,-9.737218856811523,1.1180921792984009,-0.010114881210029125,0.01117960549890995,0.008517795242369175
2625575805875,1.4281413555145264,-9.727641105651855,1.1432312726974487,-0.010381062515079975,0.0063883461989462376,0.00984870083630085
2625577043100,1.4712369441986084,-9.702502250671387,1.1492167711257935,-0.01410759799182415,0.008517795242369175,0.00958251953125
2625578280325,1.456871747970581,-9.738415718078613,1.1300631761550903,-0.010114881210029125,0.007453070487827063,0.010114881210029125
2625579517562,1.4269442558288574,-9.692925453186035,1.1671733856201172,-0.010381062515079975,0.0039927163161337376,0.0063883461989462376
2625580754775,1.4724340438842773,-9.716867446899414,1.138442873954773,-0.00984870083630085,0.0077192517928779125,0.0063883461989462376
2625581992000,1.459265947341919,-9.720458984375,1.173158884048462,-0.012776692397892475,0.0071868896484375,0.008251613937318325
2625583229237,1.4317326545715332,-9.761160850524902,1.113303780555725,-0.007453070487827063,0.0071868896484375,0.010647243820130825
2625584466462,1.4460978507995605,-9.68574333190918,1.1324573755264282,-0.0071868896484375,0.01117960549890995,0.010381062515079975
2625585703687,1.434126853942871,-9.714473724365234,1.1504138708114624,-0.0077192517928779125,0.013309055007994175,0.0063883461989462376
2625586940925,1.4389152526855469,-9.71926212310791,1.1623849868774414,-0.00984870083630085,0.010114881210029125,0.010114881210029125
2625588178137,1.4496891498565674,-9.700108528137207,1.2186486721038818,-0.013042873702943325,0.01463996060192585,0.010647243820130825
2625589415337,1.4305355548858643,-9.758766174316406,1.1755530834197998,-0.01171196810901165,0.010381062515079975,0.0114457868039608
2625590652575,1.4640543460845947,-9.739612579345703,1.1324573755264282,-0.0114457868039608,0.0090501569211483,0.015438503585755825
2625591889812,1.4484920501708984,-9.747992515563965,1.1767501831054688,-0.0053236219100654125,0.0186326764523983,0.00931633822619915
2625593127025,1.4245500564575195,-9.72165584564209,1.1791443824768066,-0.005589802749454975,0.010913425125181675,0.0031941730994731188
2625594364250,1.478419542312622,-9.745597839355469,1.1312602758407593,-0.010114881210029125,0.007985432632267475,0.0090501569211483
2625595601475,1.48081374168396,-9.7420072555542,1.1456254720687866,-0.007985432632267475,0.008517795242369175,0.0077192517928779125
2625596838675,1.4832079410552979,-9.736021041870117,1.1288660764694214,-0.00958251953125,0.013042873702943325,0.0002661811013240367
2625598075925,1.4676456451416016,-9.72165584564209,1.1528080701828003,-0.0066545275039970875,0.0157046839594841,0.007985432632267475
2625599313162,1.4305355548858643,-9.713275909423828,1.138442873954773,-0.007453070487827063,0.010913425125181675,0.00984870083630085
2625600550362,1.437718152999878,-9.710882186889648,1.1468225717544556,-0.007453070487827063,0.008783976547420025,0.010381062515079975
2625601787612,1.4305355548858643,-9.744400978088379,1.1851298809051514,-0.0053236219100654125,0.00931633822619915,0.010114881210029125
2625603024825,1.459265947341919,-9.71926212310791,1.1623849868774414,-0.00452507846057415,0.00984870083630085,0.005589802749454975
2625604262050,1.478419542312622,-9.709685325622559,1.1743559837341309,-0.0031941730994731188,0.015438503585755825,0.007453070487827063
2625605499287,1.478419542312622,-9.730035781860352,1.1408370733261108,-0.008517795242369175,0.0157046839594841,0.006122165359556675
2625606736487,1.4305355548858643,-9.733627319335938,1.1659762859344482,-0.007985432632267475,0.013042873702943325,0.003460354171693325
2625607973725,1.4472949504852295,-9.724050521850586,1.1611878871917725,-0.0053236219100654125,0.010647243820130825,0.007453070487827063
2625609210937,1.48081374168396,-9.72285270690918,1.137245774269104,-0.0066545275039970875,0.010913425125181675,0.008517795242369175
2625610448175,1.456871747970581,-9.727641105651855,1.138442873954773,-0.005589802749454975,0.013042873702943325,0.008251613937318325
2625611685400,1.4317326545715332,-9.743204116821289,1.1228805780410767,-0.0077192517928779125,0.01117960549890995,0.004791259765625
2625612922625,1.436521053314209,-9.749189376831055,1.136048674583435,-0.005057440605014563,0.01224433071911335,0.010381062515079975
2625614159837,1.4293384552001953,-9.727641105651855,1.1073182821273804,-0.0042588976211845875,0.01224433071911335,0.00931633822619915
2625615397062,1.456871747970581,-9.720458984375,1.116895079612732,-0.004791259765625,0.0138414166867733,0.008517795242369175
2625616634275,1.4927847385406494,-9.765949249267578,1.1815385818481445,-0.003460354171693325,0.0114457868039608,0.00931633822619915
2625617871525,1.4449007511138916,-9.68813705444336,1.1563994884490967,-0.0015970865497365594,0.01224433071911335,0.010114881210029125
2625619108737,1.4472949504852295,-9.714473724365234,1.1779472827911377,-0.003460354171693325,0.01171196810901165,0.010381062515079975
2625620345975,1.4628572463989258,-9.731232643127441,1.1528080701828003,-0.0042588976211845875,0.012510511092841625,0.008517795242369175
2625621583200,1.4460978507995605,-9.702502250671387,1.1611878871917725,-0.00452507846057415,0.01650322787463665,0.0066545275039970875
2625622820412,1.4496891498565674,-9.733627319335938,1.137245774269104,-0.0031941730994731188,0.013042873702943325,0.005057440605014563
2625624057625,1.4736311435699463,-9.757569313049316,1.137245774269104,-0.0037265352439135313,0.02129448764026165,0.008251613937318325
2625625294875,1.4652514457702637,-9.750386238098145,1.091755986213684,-0.0053236219100654125,0.01410759799182415,0.00984870083630085
2625626532087,1.414973258972168,-9.743204116821289,1.1348515748977661,-0.0077192517928779125,0.0114457868039608,0.010114881210029125
2625627769312,1.4640543460845947,-9.780314445495605,1.1456254720687866,-0.008251613937318325,0.0077192517928779125,0.0029279920272529125
2625629006537,1.4688427448272705,-9.761160850524902,1.1635820865631104,-0.0037265352439135313,0.0077192517928779125,0.006122165359556675
2625630243762,1.4293384552001953,-9.743204116821289,1.1204863786697388,-0.006122165359556675,0.01224433071911335,0.007985432632267475
2625631480975,1.4269442558288574,-9.738415718078613,1.1324573755264282,-0.005855984054505825,0.0167694091796875,0.008517795242369175
2625632718225,1.4676456451416016,-9.700108528137207,1.1288660764694214,-0.006122165359556675,0.014906140975654125,0.00984870083630085
2625633955437,1.4449007511138916,-9.75158405303955,1.1444283723831177,-0.006122165359556675,0.01224433071911335,0.0090501569211483
2625635192675,1.4903905391693115,-9.745597839355469,1.1863269805908203,-0.004791259765625,0.010647243820130825,0.006122165359556675
2625636429900,1.4305355548858643,-9.732430458068848,1.138442873954773,-0.0002661811013240367,0.0053236219100654125,0.010114881210029125
2625637667112,1.460463047027588,-9.6989107131958,1.1623849868774414,-0.0026618109550327063,0.005057440605014563,0.007453070487827063
2625638904337,1.48081374168396,-9.716867446899414,1.1085153818130493,-0.0077192517928779125,0.0090501569211483,0.006122165359556675
2625640141562,1.456871747970581,-9.759963035583496,1.1552022695541382,-0.0039927163161337376,0.01357523538172245,0.008783976547420025
2625641378787,1.459265947341919,-9.692925453186035,1.138442873954773,-0.0007985432748682797,0.012776692397892475,0.0063883461989462376
2625642616025,1.4449007511138916,-9.75517463684082,1.1192892789840698,-0.00692070834338665,0.01410759799182415,0.0039927163161337376
2625643853237,1.501164436340332,-9.761160850524902,1.1875240802764893,-0.005057440605014563,0.01224433071911335,0.01117960549890995
2625645090475,1.4772224426269531,-9.740809440612793,1.171961784362793,-0.0023956298828125,0.008517795242369175,0.01117960549890995
2625646327700,1.456871747970581,-9.758766174316406,1.1827356815338135,0.0007985432748682797,0.01224433071911335,0.00692070834338665
2625647564912,1.4724340438842773,-9.712079048156738,1.1815385818481445,-0.0031941730994731188,0.0071868896484375,0.00452507846057415
2625648802150,1.5071499347686768,-9.716867446899414,1.1743559837341309,-0.0031941730994731188,0.010647243820130825,0.00984870083630085
2625650039362,1.455674648284912,-9.700108528137207,1.1611878871917725,0.0007985432748682797,0.0138414166867733,0.010913425125181675
2625651276600,1.479616641998291,-9.75397777557373,1.1456254720687866,-0.0013309054775163531,0.0181003138422966,0.008517795242369175
2625652513812,1.4856021404266357,-9.704896926879883,1.173158884048462,-0.0031941730994731188,0.01171196810901165,0.01117960549890995
2625653751025,1.4460978507995605,-9.658209800720215,1.1085153818130493,-0.0010647244052961469,0.007985432632267475,0.0063883461989462376
2625654988262,1.4879963397979736,-9.695320129394531,1.1348515748977661,-0.0018632676219567657,0.005589802749454975,0.00958251953125
2625656225487,1.4987702369689941,-9.692925453186035,1.192312479019165,0.0013309054775163531,0.007453070487827063,0.01224433071911335
2625657462725,1.4616601467132568,-9.68574333190918,1.1839327812194824,0.0023956298828125,0.0071868896484375,0.013042873702943325
2625658699950,1.4867992401123047,-9.624691009521484,1.1480196714401245,0.0018632676219567657,0.00931633822619915,0.010381062515079975
2625659937175,1.4664485454559326,-9.660603523254395,1.1587936878204346,0.0023956298828125,0.008517795242369175,0.0077192517928779125
2625661174387,1.482010841369629,-9.683348655700684,1.1755530834197998,0.0031941730994731188,0.007453070487827063,0.0077192517928779125
2625662411612,1.4963760375976562,-9.691728591918945,1.139639973640442,0.005057440605014563,0.0063883461989462376,0.010647243820130825
2625663648837,1.4532804489135742,-9.714473724365234,1.1492167711257935,-0.003460354171693325,0.0066545275039970875,0.0031941730994731188
2625664886075,1.4520833492279053,-9.716867446899414,1.1240776777267456,0.0015970865497365594,0.012510511092841625,0.013042873702943325
2625666123287,1.4676456451416016,-9.68933391571045,1.1480196714401245,0.0029279920272529125,0.010381062515079975,0.0167694091796875
2625667360512,1.4844050407409668,-9.72165584564209,1.1312602758407593,-0.0018632676219567657,0.008251613937318325,0.00984870083630085
2625668597737,1.4700398445129395,-9.708487510681152,1.1001356840133667,0.0007985432748682797,0.01117960549890995,0.012776692397892475
2625669834962,1.4245500564575195,-9.683348655700684,1.115697979927063,0.00692070834338665,0.010913425125181675,0.01171196810901165
2625671072187,1.4772224426269531,-9.750386238098145,1.1528080701828003,0.0026618109550327063,0.005855984054505825,0.0119781494140625
2625672309400,1.4484920501708984,-9.746795654296875,1.1504138708114624,0.0,0.0042588976211845875,0.01650322787463665
2625673546650,1.4544775485992432,-9.737218856811523,1.1671733856201172,0.0039927163161337376,0.0037265352439135313,0.01783413253724575
2625674783862,1.4664485454559326,-9.761160850524902,1.1432312726974487,0.005057440605014563,0.0077192517928779125,0.01357523538172245
2625676021087,1.4760253429412842,-9.746795654296875,1.1623849868774414,0.0029279920272529125,0.00452507846057415,0.01410759799182415
2625677258312,1.4844050407409668,-9.756372451782227,1.1336544752120972,-0.006122165359556675,0.007453070487827063,0.01224433071911335
2625678495537,1.4832079410552979,-9.730035781860352,1.116895079612732,-0.0063883461989462376,0.0053236219100654125,0.01171196810901165
2625679732762,1.4616601467132568,-9.759963035583496,1.1420341730117798,0.0013309054775163531,0.0090501569211483,0.014373779296875
2625680970000,1.4688427448272705,-9.765949249267578,1.1013327836990356,0.0015970865497365594,0.007985432632267475,0.0119781494140625
2625682207212,1.456871747970581,-9.773131370544434,1.1324573755264282,-0.0007985432748682797,0.005057440605014563,0.0114457868039608
2625683444437,1.4700398445129395,-9.765949249267578,1.1085153818130493,-0.0023956298828125,0.005057440605014563,0.0114457868039608
2625684681662,1.4975731372833252,-9.764751434326172,1.1037269830703735,0.0,0.005057440605014563,0.010114881210029125
2625685918887,1.4736311435699463,-9.75278091430664,1.1575965881347656,-0.0013309054775163531,0.0031941730994731188,0.010913425125181675
2625687156112,1.4484920501708984,-9.762357711791992,1.1180921792984009,0.0023956298828125,0.006122165359556675,0.01117960549890995
2625688393325,1.4401123523712158,-9.771934509277344,1.1504138708114624,0.0039927163161337376,0.004791259765625,0.00692070834338665
2625689630550,1.4927847385406494,-9.744400978088379,1.1216834783554077,0.0013309054775163531,0.00452507846057415,0.01650322787463665
2625690867787,1.456871747970581,-9.736021041870117,1.1635820865631104,-0.003460354171693325,0.010381062515079975,0.015438503585755825
2625692105012,1.4233529567718506,-9.781511306762695,1.1204863786697388,-0.004791259765625,0.00452507846057415,0.010647243820130825
2625693342262,1.4736311435699463,-9.774328231811523,1.137245774269104,-0.0039927163161337376,0.0031941730994731188,0.01357523538172245
2625694579475,1.3982137441635132,-9.798270225524902,1.1336544752120972,-0.00692070834338665,0.003460354171693325,0.0114457868039608
2625695816687,1.4628572463989258,-9.765949249267578,1.1180921792984009,-0.0023956298828125,0.005057440605014563,0.013309055007994175
2625697053912,1.48081374168396,-9.780314445495605,1.1444283723831177,-0.005589802749454975,0.0071868896484375,0.01171196810901165
2625698291162,1.4449007511138916,-9.757569313049316,1.139639973640442,-0.0071868896484375,0.010381062515079975,0.01357523538172245
2625699528350,1.4544775485992432,-9.763554573059082,1.1288660764694214,-0.00958251953125,0.008251613937318325,0.005057440605014563
2625700765600,1.4389152526855469,-9.771934509277344,1.1348515748977661,-0.007985432632267475,0.00692070834338665,0.01117960549890995
2625702002812,1.4616601467132568,-9.75517463684082,1.1264718770980835,-0.005589802749454975,0.0039927163161337376,0.008517795242369175
2625703240037,1.4245500564575195,-9.773131370544434,1.1204863786697388,-0.0053236219100654125,0.0023956298828125,0.008783976547420025
2625704477250,1.4305355548858643,-9.791088104248047,1.1121066808700562,-0.0071868896484375,0.0090501569211483,0.007453070487827063
2625705714487,1.43532395362854,-9.763554573059082,1.1743559837341309,-0.0066545275039970875,0.00984870083630085,0.008783976547420025
2625706951725,1.4496891498565674,-9.728838920593262,1.1623849868774414,-0.005855984054505825,0.0066545275039970875,0.012510511092841625
2625708188925,1.436521053314209,-9.773131370544434,1.1348515748977661,-0.005855984054505825,0.0039927163161337376,0.012776692397892475
2625709426150,1.4496891498565674,-9.744400978088379,1.116895079612732,-0.004791259765625,0.0042588976211845875,0.014906140975654125
2625710663387,1.459265947341919,-9.757569313049316,1.136048674583435,-0.012510511092841625,0.005589802749454975,0.007985432632267475
2625711900637,1.45806884765625,-9.789891242980957,1.1252747774124146,-0.010381062515079975,0.007453070487827063,0.0037265352439135313
2625713137837,1.4437036514282227,-9.81024169921875,1.1647791862487793,-0.00931633822619915,0.005855984054505825,0.0090501569211483
2625714375075,1.4460978507995605,-9.780314445495605,1.0845733880996704,-0.006122165359556675,0.00958251953125,0.0071868896484375
2625715612275,1.436521053314209,-9.791088104248047,1.1300631761550903,-0.010114881210029125,0.0119781494140625,0.0039927163161337376
2625716849512,1.3946224451065063,-9.769539833068848,1.1109095811843872,-0.012776692397892475,0.0119781494140625,0.00452507846057415
2625718086750,1.4185645580291748,-9.799468040466309,1.1492167711257935,-0.01171196810901165,0.0066545275039970875,0.0063883461989462376
2625719323975,1.434126853942871,-9.829395294189453,1.115697979927063,-0.0162370465695858,0.01171196810901165,0.0063883461989462376
2625720561187,1.4065935611724854,-9.805453300476074,1.1001356840133667,-0.01117960549890995,0.005589802749454975,0.008517795242369175
2625721798412,1.4413094520568848,-9.813833236694336,1.1025298833847046,-0.010381062515079975,0.00452507846057415,0.0023956298828125
2625723035650,1.4736311435699463,-9.807847023010254,1.138442873954773,-0.014373779296875,0.0066545275039970875,0.005589802749454975
2625724272875,1.4389152526855469,-9.824606895446777,1.0869675874710083,-0.01463996060192585,0.0090501569211483,0.004791259765625
2625725510100,1.436521053314209,-9.781511306762695,1.1240776777267456,-0.012510511092841625,0.0031941730994731188,0.005589802749454975
2625726747312,1.4508862495422363,-9.81263542175293,1.138442873954773,-0.0138414166867733,0.006122165359556675,0.006122165359556675
2625727984537,1.4676456451416016,-9.789891242980957,1.114500880241394,-0.0167694091796875,0.005855984054505825,0.0010647244052961469
2625729221762,1.4449007511138916,-9.789891242980957,1.1587936878204346,-0.01836649514734745,0.007985432632267475,0.0002661811013240367
2625730459000,1.4688427448272705,-9.825803756713867,1.113303780555725,-0.0196974016726017,0.0162370465695858,-0.0010647244052961469
2625731696225,1.4185645580291748,-9.759963035583496,1.1025298833847046,-0.015438503585755825,0.010913425125181675,0.0021294488105922937
2625732933425,1.4484920501708984,-9.7791166305542,1.1635820865631104,-0.01889885775744915,0.0053236219100654125,-0.0013309054775163531
2625734170662,1.4532804489135742,-9.783905029296875,1.1240776777267456,-0.0191650390625,0.003460354171693325,-0.0010647244052961469
2625735407900,1.479616641998291,-9.757569313049316,1.137245774269104,-0.0167694091796875,0.00452507846057415,0.0031941730994731188
2625736645112,1.4508862495422363,-9.767146110534668,1.1300631761550903,-0.01996358297765255,0.0119781494140625,-0.0010647244052961469
2625737882337,1.4879963397979736,-9.782708168029785,1.1264718770980835,-0.01889885775744915,0.0071868896484375,-0.0031941730994731188
2625739119562,1.4544775485992432,-9.756372451782227,1.1348515748977661,-0.0138414166867733,0.007453070487827063,-0.0010647244052961469
2625740356800,1.5059528350830078,-9.738415718078613,1.1324573755264282,-0.0181003138422966,0.007453070487827063,0.004791259765625
2625741594025,1.4867992401123047,-9.72285270690918,1.114500880241394,-0.01650322787463665,0.008251613937318325,0.0
2625742831237,1.4712369441986084,-9.727641105651855,1.1468225717544556,-0.01996358297765255,0.01117960549890995,0.0
2625744068475,1.4700398445129395,-9.730035781860352,1.138442873954773,-0.02182685025036335,0.01171196810901165,0.0005323622026480734
2625745305700,1.4688427448272705,-9.708487510681152,1.139639973640442,-0.01703559048473835,0.00692070834338665,0.0013309054775163531
2625746542912,1.5203181505203247,-9.68694019317627,1.1288660764694214,-0.014373779296875,0.007453070487827063,-0.005855984054505825
2625747780137,1.4915876388549805,-9.72165584564209,1.1300631761550903,-0.01357523538172245,0.0037265352439135313,-0.0077192517928779125
2625749017350,1.456871747970581,-9.683348655700684,1.1288660764694214,-0.01410759799182415,0.00958251953125,-0.0021294488105922937
2625750254600,1.4951789379119873,-9.697713851928711,1.094150185585022,-0.013309055007994175,0.01224433071911335,-0.0018632676219567657
2625751491825,1.5155296325683594,-9.703699111938477,1.1121066808700562,-0.013042873702943325,0.010647243820130825,-0.004791259765625
2625752729037,1.501164436340332,-9.66419506072998,1.1504138708114624,-0.01410759799182415,0.010114881210029125,-0.008517795242369175
2625753966262,1.5179238319396973,-9.679757118225098,1.138442873954773,-0.012776692397892475,0.008251613937318325,-0.0042588976211845875
2625755203475,1.4963760375976562,-9.703699111938477,1.169567584991455,-0.010647243820130825,0.005855984054505825,-0.0031941730994731188
2625756440725,1.48081374168396,-9.658209800720215,1.1504138708114624,-0.007453070487827063,0.0077192517928779125,-0.0005323622026480734
2625757677950,1.4903905391693115,-9.682151794433594,1.1300631761550903,-0.0119781494140625,0.004791259765625,-0.0005323622026480734
2625758915162,1.4963760375976562,-9.658209800720215,1.0989385843276978,-0.02129448764026165,0.005855984054505825,-0.008517795242369175
2625760152387,1.4664485454559326,-9.66419506072998,1.1348515748977661,-0.0114457868039608,0.0071868896484375,-0.0015970865497365594
2625761389612,1.4891934394836426,-9.701305389404297,1.1647791862487793,-0.005855984054505825,0.005855984054505825,-0.0037265352439135313
2625762626837,1.4401123523712158,-9.68574333190918,1.1240776777267456,-0.0071868896484375,0.008251613937318325,-0.0039927163161337376
2625763864050,1.4844050407409668,-9.68933391571045,1.1288660764694214,-0.0063883461989462376,0.0039927163161337376,-0.0077192517928779125
2625765101300,1.459265947341919,-9.65222454071045,1.1492167711257935,-0.0042588976211845875,0.007453070487827063,-0.00931633822619915
2625766338512,1.5275007486343384,-9.68694019317627,1.1192892789840698,-0.0015970865497365594,0.005855984054505825,-0.0039927163161337376
2625767575750,1.50355863571167,-9.676166534423828,1.1025298833847046,0.0013309054775163531,0.0042588976211845875,0.0023956298828125
2625768812962,1.5263036489486694,-9.667786598205566,1.1528080701828003,0.0039927163161337376,0.0026618109550327063,0.0
2625770050187,1.5251065492630005,-9.734824180603027,1.1599907875061035,0.0026618109550327063,0.0039927163161337376,-0.0005323622026480734
2625771287412,1.4903905391693115,-9.703699111938477,1.1456254720687866,-0.0013309054775163531,0.004791259765625,-0.0023956298828125
2625772524662,1.53707754611969,-9.68574333190918,1.1348515748977661,-0.0018632676219567657,0.0026618109550327063,-0.0007985432748682797
2625773761862,1.5119383335113525,-9.666589736938477,1.1049240827560425,-0.0015970865497365594,0.004791259765625,-0.0029279920272529125
2625774999087,1.5251065492630005,-9.690531730651855,1.1444283723831177,0.0031941730994731188,0.00452507846057415,-0.0021294488105922937
2625776236325,1.5155296325683594,-9.68813705444336,1.138442873954773,0.00452507846057415,-0.003460354171693325,-0.005589802749454975
2625777473537,1.5526398420333862,-9.725247383117676,1.1264718770980835,0.006122165359556675,-0.0005323622026480734,-0.0023956298828125
2625778710775,1.5131354331970215,-9.738415718078613,1.1767501831054688,0.01117960549890995,0.0005323622026480734,-0.004791259765625
2625779948000,1.5071499347686768,-9.71926212310791,1.1336544752120972,0.01410759799182415,0.0015970865497365594,0.0013309054775163531
2625781185225,1.5107412338256836,-9.715670585632324,1.116895079612732,0.010647243820130825,0.005057440605014563,0.0023956298828125
2625782422450,1.499967336654663,-9.72165584564209,1.136048674583435,0.007453070487827063,0.0039927163161337376,-0.003460354171693325
2625783659662,1.5239094495773315,-9.707290649414062,1.1276689767837524,0.005589802749454975,0.0037265352439135313,-0.0013309054775163531
2625784896887,1.5047557353973389,-9.732430458068848,1.1109095811843872,0.00692070834338665,-0.0015970865497365594,0.0031941730994731188
2625786134125,1.5059528350830078,-9.68933391571045,1.137245774269104,0.0071868896484375,-0.003460354171693325,0.0010647244052961469
2625787371350,1.5215152502059937,-9.696516990661621,1.115697979927063,0.0077192517928779125,-0.0018632676219567657,0.0029279920272529125
2625788608562,1.5143325328826904,-9.715670585632324,1.115697979927063,0.008251613937318325,0.003460354171693325,0.0031941730994731188
2625789845812,1.5179238319396973,-9.707290649414062,1.1468225717544556,0.00452507846057415,-0.0002661811013240367,0.0039927163161337376
2625791083025,1.4951789379119873,-9.710882186889648,1.1492167711257935,0.008517795242369175,0.0010647244052961469,-0.0010647244052961469
2625792320262,1.5275007486343384,-9.701305389404297,1.138442873954773,0.01117960549890995,-0.0042588976211845875,-0.0005323622026480734
2625793557475,1.5634137392044067,-9.709685325622559,1.1324573755264282,0.0114457868039608,-0.005855984054505825,0.0037265352439135313
2625794794700,1.5155296325683594,-9.710882186889648,1.1204863786697388,0.0119781494140625,-0.0015970865497365594,0.0066545275039970875
2625796031925,1.502361536026001,-9.733627319335938,1.2090718746185303,0.01117960549890995,-0.0039927163161337376,0.0037265352439135313
2625797269137,1.5239094495773315,-9.730035781860352,1.1336544752120972,0.0119781494140625,-0.0039927163161337376,0.0039927163161337376
2625798506375,1.4856021404266357,-9.700108528137207,1.1504138708114624,0.01463996060192585,-0.004791259765625,0.0039927163161337376
2625799743600,1.5047557353973389,-9.702502250671387,1.1252747774124146,0.01357523538172245,-0.005057440605014563,0.005855984054505825
2625800980825,1.5275007486343384,-9.725247383117676,1.1264718770980835,0.008251613937318325,-0.003460354171693325,-0.0018632676219567657
2625802218062,1.4664485454559326,-9.66419506072998,1.1192892789840698,0.010114881210029125,-0.0039927163161337376,0.0018632676219567657
2625803455287,1.5179238319396973,-9.677363395690918,1.1492167711257935,0.013309055007994175,-0.00692070834338665,0.005589802749454975
2625804692500,1.4772224426269531,-9.6989107131958,1.1432312726974487,0.0138414166867733,-0.007453070487827063,0.0039927163161337376
2625805929725,1.5119383335113525,-9.728838920593262,1.0857704877853394,0.014906140975654125,-0.0090501569211483,0.0063883461989462376
2625807166950,1.502361536026001,-9.750386238098145,1.1180921792984009,0.014906140975654125,-0.0071868896484375,0.0039927163161337376
2625808404162,1.4676456451416016,-9.724050521850586,1.1528080701828003,0.01117960549890995,-0.00931633822619915,0.006122165359556675
2625809641400,1.501164436340332,-9.702502250671387,1.1468225717544556,0.013042873702943325,-0.010913425125181675,0.0071868896484375
2625810878625,1.4832079410552979,-9.7420072555542,1.115697979927063,0.0119781494140625,-0.007985432632267475,0.0010647244052961469
2625812115862,1.4951789379119873,-9.758766174316406,1.1073182821273804,0.01703559048473835,-0.013042873702943325,0.0053236219100654125
2625813353075,1.5131354331970215,-9.746795654296875,1.1109095811843872,0.0186326764523983,-0.01357523538172245,0.0029279920272529125
2625814590300,1.501164436340332,-9.763554573059082,1.1228805780410767,0.0114457868039608,-0.010381062515079975,-0.0005323622026480734
2625815827537,1.4736311435699463,-9.745597839355469,1.1121066808700562,0.012510511092841625,-0.010913425125181675,0.00452507846057415
2625817064750,1.4664485454559326,-9.736021041870117,1.1037269830703735,0.0138414166867733,-0.010381062515079975,0.0063883461989462376
2625818301987,1.502361536026001,-9.77791976928711,1.1516109704971313,0.0119781494140625,-0.0077192517928779125,0.0066545275039970875
2625819539200,1.5215152502059937,-9.75397777557373,1.1228805780410767,0.0223592109978199,-0.00984870083630085,0.014906140975654125
2625820776425,1.5394717454910278,-9.75517463684082,1.139639973640442,0.01703559048473835,-0.01410759799182415,0.010647243820130825
2625822013650,1.5394717454910278,-9.794679641723633,1.1432312726974487,0.01117960549890995,-0.013309055007994175,0.00984870083630085
2625823250862,1.5143325328826904,-9.727641105651855,1.1300631761550903,0.012776692397892475,-0.012776692397892475,0.005855984054505825
2625824488100,1.455674648284912,-9.765949249267578,1.1875240802764893,0.013042873702943325,-0.0162370465695858,0.008251613937318325
2625825725337,1.4652514457702637,-9.801861763000488,1.113303780555725,0.010114881210029125,-0.012776692397892475,0.0063883461989462376
2625826962562,1.4891934394836426,-9.795876502990723,1.1492167711257935,0.005855984054505825,-0.00958251953125,0.00984870083630085
2625828199775,1.4724340438842773,-9.78869342803955,1.1192892789840698,0.010913425125181675,-0.01224433071911335,0.012510511092841625
2625829437012,1.4664485454559326,-9.72285270690918,1.094150185585022,0.007985432632267475,-0.01463996060192585,0.0119781494140625
2625830674237,1.4544775485992432,-9.749189376831055,1.1324573755264282,0.0071868896484375,-0.01357523538172245,0.010381062515079975
2625831911450,1.4975731372833252,-9.758766174316406,1.116895079612732,0.012776692397892475,-0.00984870083630085,0.010381062515079975
2625833148687,1.4903905391693115,-9.745597839355469,1.1216834783554077,0.01117960549890995,-0.0114457868039608,0.0138414166867733
2625834385900,1.479616641998291,-9.767146110534668,1.1061211824417114,0.008517795242369175,-0.012776692397892475,0.014373779296875
2625835623125,1.4724340438842773,-9.746795654296875,1.1444283723831177,0.005589802749454975,-0.0119781494140625,0.012510511092841625
2625836860350,1.5406688451766968,-9.774328231811523,1.1444283723831177,0.005589802749454975,-0.01703559048473835,0.012776692397892475
2625838097575,1.4724340438842773,-9.747992515563965,1.1264718770980835,0.0063883461989462376,-0.014906140975654125,0.010381062515079975
2625839334812,1.502361536026001,-9.749189376831055,1.1276689767837524,0.008783976547420025,-0.013042873702943325,0.00931633822619915
2625840572012,1.4915876388549805,-9.749189376831055,1.1097124814987183,0.006122165359556675,-0.01650322787463665,0.01171196810901165
2625841809250,1.4772224426269531,-9.75278091430664,1.113303780555725,0.0053236219100654125,-0.0173017717897892,0.0162370465695858
2625843046475,1.4664485454559326,-9.765949249267578,1.1468225717544556,0.007453070487827063,-0.01410759799182415,0.01703559048473835
2625844283712,1.4449007511138916,-9.757569313049316,1.1504138708114624,0.005057440605014563,-0.01836649514734745,0.0157046839594841
2625845520937,1.45806884765625,-9.759963035583496,1.1540051698684692,0.005855984054505825,-0.0157046839594841,0.01756795309484005
2625846758162,1.4867992401123047,-9.749189376831055,1.1851298809051514,0.0026618109550327063,-0.01410759799182415,0.01357523538172245
2625847995375,1.4856021404266357,-9.72165584564209,1.1623849868774414,0.0031941730994731188,-0.01463996060192585,0.01650322787463665
2625849232587,1.4736311435699463,-9.761160850524902,1.1743559837341309,0.00452507846057415,-0.01703559048473835,0.01597086526453495
2625850469825,1.4760253429412842,-9.731232643127441,1.1432312726974487,0.003460354171693325,-0.01650322787463665,0.0186326764523983
2625851707037,1.4544775485992432,-9.701305389404297,1.1683704853057861,0.0018632676219567657,-0.015172322280704975,0.0157046839594841
2625852944287,1.4664485454559326,-9.704896926879883,1.1276689767837524,0.007453070487827063,-0.01650322787463665,0.01410759799182415
2625854181512,1.45806884765625,-9.763554573059082,1.1671733856201172,0.0023956298828125,-0.0204959437251091,0.0186326764523983
2625855418725,1.4748282432556152,-9.782708168029785,1.1743559837341309,0.0029279920272529125,-0.0167694091796875,0.0204959437251091
2625856655975,1.4460978507995605,-9.744400978088379,1.1803414821624756,0.0026618109550327063,-0.01889885775744915,0.02369011752307415
2625857893162,1.4089877605438232,-9.75278091430664,1.1516109704971313,0.0018632676219567657,-0.0181003138422966,0.02608574740588665
2625859130400,1.4425065517425537,-9.758766174316406,1.170764684677124,0.005057440605014563,-0.014906140975654125,0.02262539230287075
2625860367625,1.43532395362854,-9.747992515563965,1.1563994884490967,0.003460354171693325,-0.010114881210029125,0.0196974016726017
2625861604862,1.413776159286499,-9.764751434326172,1.1348515748977661,0.0005323622026480734,-0.0191650390625,0.0244886614382267
2625862842075,1.456871747970581,-9.733627319335938,1.1599907875061035,0.00452507846057415,-0.0223592109978199,0.0300784632563591
2625864079312,1.4520833492279053,-9.749189376831055,1.169567584991455,0.0021294488105922937,-0.01783413253724575,0.02182685025036335
2625865316537,1.4257471561431885,-9.727641105651855,1.1456254720687866,0.0,-0.0191650390625,0.0223592109978199
2625866553750,1.4317326545715332,-9.733627319335938,1.1252747774124146,0.0026618109550327063,-0.0186326764523983,0.02608574740588665
2625867790987,1.4281413555145264,-9.746795654296875,1.1408370733261108,0.0053236219100654125,-0.01996358297765255,0.0295461006462574
2625869028187,1.41257905960083,-9.768342971801758,1.2246341705322266,0.00452507846057415,-0.01756795309484005,0.02369011752307415
2625870265437,1.4449007511138916,-9.763554573059082,1.1743559837341309,0.0007985432748682797,-0.0173017717897892,0.01756795309484005
2625871502662,1.4484920501708984,-9.78869342803955,1.1982979774475098,0.0026618109550327063,-0.0167694091796875,0.02076212503015995
2625872739887,1.4329297542572021,-9.77552604675293,1.2090718746185303,0.005855984054505825,-0.01703559048473835,0.02555338479578495
2625873977100,1.4484920501708984,-9.75158405303955,1.1839327812194824,0.0053236219100654125,-0.01889885775744915,0.02502102218568325
2625875214337,1.4305355548858643,-9.700108528137207,1.2018892765045166,-0.0015970865497365594,-0.01783413253724575,0.0276828333735466
2625876451562,1.4233529567718506,-9.732430458068848,1.1827356815338135,0.0023956298828125,-0.01463996060192585,0.0263519287109375
2625877688787,1.4472949504852295,-9.7420072555542,1.1575965881347656,0.0007985432748682797,-0.013309055007994175,0.02608574740588665
2625878926025,1.4951789379119873,-9.770737648010254,1.139639973640442,-0.0015970865497365594,-0.01783413253724575,0.0252872034907341
2625880163237,1.4257471561431885,-9.739612579345703,1.1659762859344482,0.0031941730994731188,-0.01889885775744915,0.0220930315554142
2625881400450,1.4173674583435059,-9.728838920593262,1.1683704853057861,0.0002661811013240367,-0.0181003138422966,0.01943122036755085
2625882637687,1.434126853942871,-9.77552604675293,1.1863269805908203,-0.0002661811013240367,-0.02076212503015995,0.02661811001598835
2625883874912,1.455674648284912,-9.727641105651855,1.1468225717544556,-0.0005323622026480734,-0.0181003138422966,0.02848137728869915
2625885112125,1.4640543460845947,-9.746795654296875,1.171961784362793,0.0,-0.0157046839594841,0.02422248013317585
2625886349362,1.4460978507995605,-9.726444244384766,1.1528080701828003,-0.0018632676219567657,-0.0157046839594841,0.0247548408806324
2625887586600,1.4700398445129395,-9.745597839355469,1.1300631761550903,0.0013309054775163531,-0.0138414166867733,0.0244886614382267
2625888823812,1.4712369441986084,-9.730035781860352,1.1851298809051514,0.0026618109550327063,-0.0114457868039608,0.023956298828125
2625890061037,1.4233529567718506,-9.759963035583496,1.2066776752471924,0.0026618109550327063,-0.014373779296875,0.02608574740588665
2625891298250,1.3958195447921753,-9.692925453186035,1.1803414821624756,0.0023956298828125,-0.01357523538172245,0.0263519287109375
2625892535475,1.4401123523712158,-9.68813705444336,1.1851298809051514,0.0066545275039970875,-0.0181003138422966,0.023956298828125
2625893772725,1.4401123523712158,-9.743204116821289,1.194706678390503,0.0029279920272529125,-0.0181003138422966,0.0244886614382267
2625895009962,1.3970166444778442,-9.726444244384766,1.1994950771331787,-0.0023956298828125,-0.01463996060192585,0.02315775491297245
2625896247162,1.4257471561431885,-9.738415718078613,1.1575965881347656,0.0,-0.01836649514734745,0.0215606689453125
2625897484412,1.380257248878479,-9.756372451782227,1.1755530834197998,0.0018632676219567657,-0.0167694091796875,0.0186326764523983
2625898721637,1.436521053314209,-9.702502250671387,1.1540051698684692,-0.0010647244052961469,-0.01889885775744915,0.01756795309484005
2625899958837,1.434126853942871,-9.708487510681152,1.1671733856201172,-0.0037265352439135313,-0.0173017717897892,0.0191650390625
2625901196075,1.416170358657837,-9.750386238098145,1.1899182796478271,-0.0005323622026480734,-0.0162370465695858,0.01703559048473835
2625902433287,1.434126853942871,-9.720458984375,1.1683704853057861,0.0013309054775163531,-0.01836649514734745,0.0157046839594841
2625903670537,1.437718152999878,-9.731232643127441,1.2030863761901855,0.0010647244052961469,-0.0157046839594841,0.0157046839594841
2625904907762,1.4305355548858643,-9.746795654296875,1.1528080701828003,0.0007985432748682797,-0.0119781494140625,0.015172322280704975
2625906144975,1.4041993618011475,-9.762357711791992,1.1492167711257935,0.0031941730994731188,-0.012510511092841625,0.0215606689453125
2625907382200,1.4185645580291748,-9.77791976928711,1.1767501831054688,0.0005323622026480734,-0.010647243820130825,0.01756795309484005
2625908619425,1.4221558570861816,-9.780314445495605,1.1899182796478271,-0.0007985432748682797,-0.010647243820130825,0.014906140975654125
2625909856637,1.416170358657837,-9.771934509277344,1.1180921792984009,-0.0002661811013240367,-0.0157046839594841,0.02076212503015995
2625911093875,1.382651448249817,-9.783905029296875,1.1456254720687866,0.0015970865497365594,-0.0162370465695858,0.0173017717897892
2625912331087,1.4233529567718506,-9.77672290802002,1.2018892765045166,0.0039927163161337376,-0.01783413253724575,0.01889885775744915
2625913568312,1.4185645580291748,-9.75517463684082,1.1863269805908203,0.0013309054775163531,-0.01410759799182415,0.014373779296875
2625914805537,1.4173674583435059,-9.725247383117676,1.2090718746185303,-0.0015970865497365594,-0.013042873702943325,0.0138414166867733
2625916042775,1.4221558570861816,-9.750386238098145,1.170764684677124,-0.0013309054775163531,-0.007985432632267475,0.010114881210029125
2625917279987,1.43532395362854,-9.737218856811523,1.1432312726974487,0.0007985432748682797,-0.010381062515079975,0.00984870083630085
2625918517212,1.3982137441635132,-9.740809440612793,1.1324573755264282,0.0010647244052961469,-0.005589802749454975,0.0090501569211483
2625919754462,1.4030022621154785,-9.75397777557373,1.1288660764694214,-0.00452507846057415,-0.005057440605014563,0.01117960549890995
2625920991675,1.4077906608581543,-9.743204116821289,1.1456254720687866,0.0013309054775163531,-0.01117960549890995,0.01224433071911335
2625922228900,1.4281413555145264,-9.75158405303955,1.1767501831054688,-0.0023956298828125,-0.008517795242369175,0.013042873702943325
2625923466112,1.437718152999878,-9.738415718078613,1.139639973640442,0.0010647244052961469,-0.010647243820130825,0.012510511092841625
2625924703337,1.4006080627441406,-9.730035781860352,1.1336544752120972,0.0010647244052961469,-0.005855984054505825,0.0090501569211483
2625925940575,1.4317326545715332,-9.740809440612793,1.1659762859344482,0.0,-0.006122165359556675,0.008251613937318325
2625927177800,1.413776159286499,-9.740809440612793,1.2018892765045166,-0.0005323622026480734,-0.00931633822619915,0.010647243820130825
2625928415012,1.455674648284912,-9.736021041870117,1.194706678390503,-0.0015970865497365594,-0.0077192517928779125,0.005855984054505825
2625929652262,1.4496891498565674,-9.673771858215332,1.192312479019165,0.0015970865497365594,-0.008783976547420025,0.008517795242369175
2625930889475,1.4413094520568848,-9.709685325622559,1.136048674583435,0.0053236219100654125,-0.008251613937318325,0.008517795242369175
2625932126712,1.4508862495422363,-9.724050521850586,1.1887211799621582,-0.0007985432748682797,-0.0119781494140625,0.0077192517928779125
2625933363937,1.4305355548858643,-9.704896926879883,1.1863269805908203,-0.0013309054775163531,-0.0119781494140625,0.0042588976211845875
2625934601150,1.413776159286499,-9.72285270690918,1.2282254695892334,0.003460354171693325,-0.0114457868039608,0.0037265352439135313
2625935838375,1.3970166444778442,-9.720458984375,1.2222399711608887,0.0029279920272529125,-0.010913425125181675,0.005589802749454975
2625937075612,1.4233529567718506,-9.695320129394531,1.1827356815338135,-0.0018632676219567657,-0.007985432632267475,0.005855984054505825
2625938312825,1.3934253454208374,-9.720458984375,1.1264718770980835,-0.0031941730994731188,-0.007985432632267475,0.0013309054775163531
2625939550037,1.4508862495422363,-9.759963035583496,1.1324573755264282,0.0018632676219567657,-0.010381062515079975,0.003460354171693325
2625940787262,1.4688427448272705,-9.727641105651855,1.1635820865631104,0.0039927163161337376,-0.00984870083630085,0.006122165359556675
2625942024512,1.4532804489135742,-9.710882186889648,1.1468225717544556,0.0029279920272529125,-0.01224433071911335,0.0026618109550327063
2625943261725,1.4616601467132568,-9.701305389404297,1.1803414821624756,0.0026618109550327063,-0.005855984054505825,0.0029279920272529125
2625944498962,1.4628572463989258,-9.733627319335938,1.1671733856201172,0.0039927163161337376,-0.00958251953125,-0.0007985432748682797
2625945736187,1.4413094520568848,-9.701305389404297,1.1408370733261108,0.0031941730994731188,-0.0119781494140625,0.0005323622026480734
2625946973425,1.3958195447921753,-9.709685325622559,1.1599907875061035,-0.0002661811013240367,-0.00931633822619915,0.0031941730994731188
2625948210637,1.4041993618011475,-9.72285270690918,1.1516109704971313,0.005057440605014563,-0.012510511092841625,0.0026618109550327063
2625949447850,1.4317326545715332,-9.71926212310791,1.1480196714401245,0.00452507846057415,-0.014373779296875,0.0029279920272529125
2625950685087,1.4305355548858643,-9.6989107131958,1.2018892765045166,0.0037265352439135313,-0.0026618109550327063,0.0021294488105922937
2625951922325,1.413776159286499,-9.732430458068848,1.1468225717544556,0.005855984054505825,-0.0053236219100654125,0.0010647244052961469
2625953159550,1.4245500564575195,-9.709685325622559,1.171961784362793,0.008517795242369175,-0.00452507846057415,0.0013309054775163531
2625954396762,1.4185645580291748,-9.72285270690918,1.1552022695541382,0.007985432632267475,-0.004791259765625,-0.0005323622026480734
2625955634000,1.4867992401123047,-9.7420072555542,1.1252747774124146,0.0053236219100654125,-0.0066545275039970875,0.0015970865497365594
2625956871200,1.4867992401123047,-9.731232643127441,1.1528080701828003,0.008251613937318325,-0.005855984054505825,-0.0031941730994731188
2625958108462,1.4748282432556152,-9.744400978088379,1.1192892789840698,0.0077192517928779125,-0.006122165359556675,0.0010647244052961469
2625959345675,1.4532804489135742,-9.716867446899414,1.1563994884490967,0.0023956298828125,-0.008517795242369175,0.0042588976211845875
2625960582900,1.4712369441986084,-9.736021041870117,1.1252747774124146,0.0042588976211845875,-0.005589802749454975,-0.0002661811013240367
2625961820112,1.4089877605438232,-9.707290649414062,1.170764684677124,0.008251613937318325,-0.005589802749454975,0.0005323622026480734
2625963057337,1.4903905391693115,-9.75278091430664,1.1336544752120972,0.006122165359556675,-0.0005323622026480734,-0.0018632676219567657
2625964294587,1.5083470344543457,-9.77552604675293,1.1336544752120972,0.0039927163161337376,-0.0053236219100654125,-0.0023956298828125
2625965531775,1.455674648284912,-9.763554573059082,1.1432312726974487,0.005855984054505825,-0.0077192517928779125,0.0002661811013240367
2625966769025,1.501164436340332,-9.763554573059082,1.1528080701828003,0.0029279920272529125,-0.0042588976211845875,-0.0039927163161337376
2625968006237,1.4544775485992432,-9.746795654296875,1.1647791862487793,0.0066545275039970875,-0.0066545275039970875,-0.0002661811013240367
2625969243462,1.4652514457702637,-9.77791976928711,1.1671733856201172,0.0077192517928779125,-0.00452507846057415,0.0
2625970480712,1.4389152526855469,-9.731232643127441,1.1336544752120972,0.005855984054505825,-0.0066545275039970875,-0.0018632676219567657
2625971717912,1.460463047027588,-9.749189376831055,1.1504138708114624,0.0031941730994731188,-0.0066545275039970875,-0.0021294488105922937
2625972955137,1.4664485454559326,-9.731232643127441,1.1049240827560425,0.0042588976211845875,-0.00984870083630085,-0.0018632676219567657
2625974192375,1.437718152999878,-9.720458984375,1.138442873954773,0.0031941730994731188,-0.0090501569211483,-0.0013309054775163531
2625975429587,1.434126853942871,-9.678560256958008,1.1982979774475098,0.006122165359556675,-0.005057440605014563,-0.0029279920272529125
2625976666812,1.4269442558288574,-9.7420072555542,1.1552022695541382,0.006122165359556675,-0.007985432632267475,-0.005589802749454975
2625977904050,1.434126853942871,-9.714473724365234,1.1540051698684692,0.0026618109550327063,-0.007985432632267475,-0.0026618109550327063
2625979141287,1.4209587574005127,-9.745597839355469,1.1492167711257935,-0.0021294488105922937,-0.0071868896484375,-0.0037265352439135313
2625980378500,1.4173674583435059,-9.750386238098145,1.173158884048462,0.003460354171693325,-0.005589802749454975,0.0010647244052961469
2625981615737,1.4437036514282227,-9.709685325622559,1.1540051698684692,0.0031941730994731188,-0.005855984054505825,-0.0013309054775163531
2625982852962,1.436521053314209,-9.761160850524902,1.1444283723831177,0.0023956298828125,-0.00931633822619915,-0.008517795242369175
2625984090187,1.4089877605438232,-9.704896926879883,1.169567584991455,0.005855984054505825,-0.007453070487827063,-0.0039927163161337376
2625985327412,1.4401123523712158,-9.736021041870117,1.1540051698684692,0.008517795242369175,-0.01171196810901165,-0.0007985432748682797
2625986564637,1.4185645580291748,-9.758766174316406,1.1575965881347656,0.005589802749454975,-0.005589802749454975,-0.0071868896484375
2625987801850,1.4425065517425537,-9.7420072555542,1.1336544752120972,0.0071868896484375,-0.005589802749454975,-0.0002661811013240367
2625989039087,1.4293384552001953,-9.72165584564209,1.1420341730117798,0.0077192517928779125,-0.00692070834338665,0.0005323622026480734
2625990276312,1.4401123523712158,-9.728838920593262,1.1444283723831177,0.0066545275039970875,-0.005855984054505825,-0.0031941730994731188
2625991513537,1.459265947341919,-9.767146110534668,1.1240776777267456,0.010647243820130825,-0.0063883461989462376,0.003460354171693325
2625992750737,1.4317326545715332,-9.728838920593262,1.136048674583435,0.0077192517928779125,-0.005057440605014563,0.0037265352439135313
2625993987962,1.434126853942871,-9.709685325622559,1.169567584991455,0.0071868896484375,-0.006122165359556675,-0.0002661811013240367
2625995225212,1.3910311460494995,-9.731232643127441,1.212663173675537,0.007453070487827063,-0.0077192517928779125,0.0018632676219567657
2625996462425,1.459265947341919,-9.750386238098145,1.1552022695541382,0.008517795242369175,-0.008517795242369175,0.0021294488105922937
2625997699675,1.4760253429412842,-9.75397777557373,1.1659762859344482,0.0077192517928779125,-0.010647243820130825,0.0029279920272529125
2625998936887,1.4413094520568848,-9.762357711791992,1.137245774269104,0.0063883461989462376,-0.0029279920272529125,0.0053236219100654125
2626000174112,1.4281413555145264,-9.75517463684082,1.1408370733261108,0.007453070487827063,-0.00452507846057415,0.0066545275039970875
2626001411362,1.4484920501708984,-9.75397777557373,1.136048674583435,0.008783976547420025,-0.008517795242369175,0.0071868896484375
2626002648562,1.4712369441986084,-9.78869342803955,1.1587936878204346,0.007453070487827063,-0.005057440605014563,0.0077192517928779125
2626003885787,1.4425065517425537,-9.792284965515137,1.1755530834197998,0.007453070487827063,-0.008517795242369175,0.010381062515079975
2626005123012,1.4724340438842773,-9.736021041870117,1.1228805780410767,0.0031941730994731188,-0.0066545275039970875,0.006122165359556675
2626006360237,1.455674648284912,-9.715670585632324,1.1480196714401245,0.00452507846057415,-0.00452507846057415,0.0063883461989462376
2626007597462,1.4772224426269531,-9.747992515563965,1.1635820865631104,0.005855984054505825,-0.0063883461989462376,0.0090501569211483
2626008834700,1.4449007511138916,-9.787496566772461,1.1743559837341309,0.005057440605014563,-0.007453070487827063,0.0090501569211483
2626010071912,1.460463047027588,-9.770737648010254,1.1599907875061035,0.0018632676219567657,-0.005855984054505825,0.0039927163161337376
2626011309137,1.4628572463989258,-9.764751434326172,1.1599907875061035,0.00452507846057415,-0.007453070487827063,0.006122165359556675
2626012546362,1.4508862495422363,-9.745597839355469,1.138442873954773,-0.0002661811013240367,-0.00692070834338665,0.008517795242369175
2626013783587,1.434126853942871,-9.720458984375,1.1563994884490967,0.0029279920272529125,-0.0063883461989462376,0.0066545275039970875
2626015020812,1.4508862495422363,-9.744400978088379,1.1025298833847046,0.005855984054505825,-0.010381062515079975,0.0090501569211483
2626016258050,1.4449007511138916,-9.737218856811523,1.1635820865631104,0.0042588976211845875,-0.010913425125181675,0.0090501569211483
2626017495275,1.4413094520568848,-9.718064308166504,1.1480196714401245,-0.0002661811013240367,-0.00984870083630085,0.005057440605014563
2626018732487,1.4281413555145264,-9.727641105651855,1.1575965881347656,0.005589802749454975,-0.0066545275039970875,0.008251613937318325
2626019969712,1.4209587574005127,-9.7420072555542,1.1468225717544556,0.0053236219100654125,-0.008783976547420025,0.00931633822619915
2626021206962,1.478419542312622,-9.72165584564209,1.1444283723831177,0.0018632676219567657,-0.0042588976211845875,0.0119781494140625
2626022444187,1.4460978507995605,-9.737218856811523,1.1348515748977661,0.0015970865497365594,-0.0029279920272529125,0.0090501569211483
2626023681400,1.4305355548858643,-9.728838920593262,1.1336544752120972,0.0010647244052961469,-0.0042588976211845875,0.012776692397892475
2626024918612,1.45806884765625,-9.716867446899414,1.138442873954773,0.0031941730994731188,0.0021294488105922937,0.015172322280704975
2626026155825,1.4293384552001953,-9.768342971801758,1.1456254720687866,0.005057440605014563,-0.0026618109550327063,0.01117960549890995
2626027393075,1.4616601467132568,-9.75278091430664,1.1647791862487793,0.0029279920272529125,-0.00692070834338665,0.007985432632267475
2626028630300,1.5071499347686768,-9.758766174316406,1.1611878871917725,-0.0005323622026480734,-0.0023956298828125,0.012510511092841625
2626029867537,1.434126853942871,-9.736021041870117,1.171961784362793,0.0037265352439135313,0.0013309054775163531,0.0138414166867733
2626031104750,1.4628572463989258,-9.767146110534668,1.1456254720687866,0.0010647244052961469,-0.0039927163161337376,0.0090501569211483
2626032341962,1.4688427448272705,-9.773131370544434,1.1767501831054688,0.0002661811013240367,-0.0042588976211845875,0.0037265352439135313
2626033579187,1.4987702369689941,-9.799468040466309,1.1456254720687866,0.0007985432748682797,-0.0042588976211845875,0.00931633822619915
2626034816437,1.4413094520568848,-9.767146110534668,1.1587936878204346,0.0026618109550327063,-0.004791259765625,0.01117960549890995
2626036053662,1.436521053314209,-9.750386238098145,1.1875240802764893,0.0026618109550327063,-0.0031941730994731188,0.0119781494140625
2626037290875,1.459265947341919,-9.757569313049316,1.137245774269104,-0.0013309054775163531,-0.0042588976211845875,0.0119781494140625
2626038528100,1.434126853942871,-9.746795654296875,1.137245774269104,-0.0005323622026480734,-0.0053236219100654125,0.013309055007994175
2626039765312,1.4736311435699463,-9.749189376831055,1.1456254720687866,0.0029279920272529125,-0.0066545275039970875,0.008517795242369175
2626041002562,1.4449007511138916,-9.765949249267578,1.1216834783554077,0.0039927163161337376,0.0010647244052961469,0.008517795242369175
2626042239787,1.4544775485992432,-9.762357711791992,1.137245774269104,0.0,-0.0042588976211845875,0.01463996060192585
2626043477000,1.4401123523712158,-9.730035781860352,1.192312479019165,-0.0023956298828125,-0.005589802749454975,0.01117960549890995
2626044714237,1.478419542312622,-9.737218856811523,1.1456254720687866,-0.0015970865497365594,-0.003460354171693325,0.01463996060192585
2626045951462,1.4329297542572021,-9.732430458068848,1.1288660764694214,-0.0015970865497365594,-0.0013309054775163531,0.015172322280704975
2626047188675,1.4616601467132568,-9.7420072555542,1.114500880241394,-0.0013309054775163531,-0.0005323622026480734,0.01171196810901165
2626048425900,1.4317326545715332,-9.731232643127441,1.1480196714401245,-0.0023956298828125,-0.0031941730994731188,0.0119781494140625
2626049663112,1.4724340438842773,-9.78869342803955,1.1635820865631104,-0.0010647244052961469,-0.0039927163161337376,0.010913425125181675
2626050900362,1.4269442558288574,-9.781511306762695,1.0965443849563599,-0.0023956298828125,-0.0023956298828125,0.010381062515079975
2626052137587,1.4712369441986084,-9.75278091430664,1.1659762859344482,-0.0039927163161337376,-0.004791259765625,0.00984870083630085
2626053374812,1.4472949504852295,-9.793481826782227,1.1468225717544556,-0.0026618109550327063,-0.0013309054775163531,0.0114457868039608
2626054612037,1.4185645580291748,-9.78869342803955,1.1528080701828003,-0.0026618109550327063,0.0002661811013240367,0.0090501569211483
2626055849262,1.3982137441635132,-9.794679641723633,1.1671733856201172,-0.0013309054775163531,-0.0018632676219567657,0.01117960549890995
2626057086500,1.4197616577148438,-9.774328231811523,1.1192892789840698,-0.0042588976211845875,-0.0042588976211845875,0.012510511092841625
2626058323725,1.4173674583435059,-9.813833236694336,1.1587936878204346,-0.0026618109550327063,-0.0063883461989462376,0.010381062515079975
2626059560962,1.4269442558288574,-9.789891242980957,1.1480196714401245,-0.005057440605014563,-0.006122165359556675,0.015172322280704975
2626060798162,1.4437036514282227,-9.736021041870117,1.1252747774124146,0.0002661811013240367,-0.010114881210029125,0.01463996060192585
2626062035387,1.4484920501708984,-9.744400978088379,1.116895079612732,0.0031941730994731188,-0.003460354171693325,0.01224433071911335
2626063272625,1.4245500564575195,-9.744400978088379,1.136048674583435,0.0,0.0007985432748682797,0.01463996060192585
2626064509837,1.43532395362854,-9.770737648010254,1.1635820865631104,-0.0029279920272529125,0.0023956298828125,0.01650322787463665
2626065747075,1.4484920501708984,-9.72165584564209,1.1815385818481445,0.0015970865497365594,-0.0007985432748682797,0.014373779296875
2626066984300,1.4844050407409668,-9.739612579345703,1.1971008777618408,0.0015970865497365594,-0.0023956298828125,0.012776692397892475
2626068221525,1.4401123523712158,-9.774328231811523,1.1815385818481445,-0.0039927163161337376,0.0005323622026480734,0.012510511092841625
2626069458762,1.4844050407409668,-9.763554573059082,1.1204863786697388,-0.005057440605014563,-0.0037265352439135313,0.01463996060192585
2626070695950,1.4664485454559326,-9.702502250671387,1.1863269805908203,-0.004791259765625,-0.0031941730994731188,0.010913425125181675
2626071933212,1.4437036514282227,-9.757569313049316,1.193509578704834,-0.0015970865497365594,-0.0021294488105922937,0.0119781494140625
2626073170450,1.4185645580291748,-9.745597839355469,1.1635820865631104,0.0,-0.0023956298828125,0.01836649514734745
2626074407650,1.4305355548858643,-9.77791976928711,1.1587936878204346,0.0005323622026480734,-0.0031941730994731188,0.01889885775744915
2626075644875,1.4736311435699463,-9.731232643127441,1.193509578704834,-0.0013309054775163531,-0.0023956298828125,0.013309055007994175
2626076882100,1.4317326545715332,-9.714473724365234,1.2066776752471924,-0.0010647244052961469,-0.0029279920272529125,0.01171196810901165
2626078119350,1.45806884765625,-9.726444244384766,1.1635820865631104,0.0042588976211845875,-0.005855984054505825,0.012776692397892475
2626079356562,1.4401123523712158,-9.728838920593262,1.1971008777618408,0.0066545275039970875,-0.003460354171693325,0.0181003138422966
2626080593775,1.4736311435699463,-9.68694019317627,1.1516109704971313,0.0029279920272529125,-0.0018632676219567657,0.0138414166867733
2626081831012,1.4425065517425537,-9.695320129394531,1.1767501831054688,0.0021294488105922937,-0.004791259765625,0.01597086526453495
2626083068237,1.4317326545715332,-9.713275909423828,1.115697979927063,0.005855984054505825,-0.0037265352439135313,0.01463996060192585
2626084305462,1.4185645580291748,-9.724050521850586,1.1420341730117798,0.004791259765625,-0.0039927163161337376,0.01650322787463665
2626085542675,1.4472949504852295,-9.679757118225098,1.1623849868774414,0.004791259765625,-0.0021294488105922937,0.015172322280704975
2626086779912,1.478419542312622,-9.725247383117676,1.169567584991455,0.0071868896484375,-0.0066545275039970875,0.0162370465695858
2626088017137,1.4221558570861816,-9.720458984375,1.1575965881347656,0.0029279920272529125,-0.0037265352439135313,0.01117960549890995
2626089254375,1.4329297542572021,-9.736021041870117,1.1552022695541382,0.004791259765625,-0.00452507846057415,0.01117960549890995
2626090491575,1.3934253454208374,-9.6989107131958,1.1552022695541382,0.0037265352439135313,-0.0018632676219567657,0.0157046839594841
2626091728800,1.4245500564575195,-9.710882186889648,1.1587936878204346,0.005855984054505825,-0.0031941730994731188,0.01756795309484005
2626092966012,1.4616601467132568,-9.670180320739746,1.1635820865631104,0.005057440605014563,-0.0037265352439135313,0.01836649514734745
2626094203275,1.459265947341919,-9.710882186889648,1.169567584991455,0.005589802749454975,-0.0031941730994731188,0.015172322280704975
2626095440487,1.437718152999878,-9.713275909423828,1.1755530834197998,0.004791259765625,-0.0053236219100654125,0.01597086526453495
2626096677725,1.4736311435699463,-9.68694019317627,1.1779472827911377,0.007985432632267475,-0.0037265352439135313,0.014906140975654125
2626097914950,1.459265947341919,-9.702502250671387,1.139639973640442,0.0063883461989462376,0.0010647244052961469,0.01171196810901165
2626099152200,1.4245500564575195,-9.720458984375,1.1492167711257935,0.0077192517928779125,-0.0018632676219567657,0.00984870083630085
2626100389387,1.4269442558288574,-9.744400978088379,1.1982979774475098,0.010913425125181675,-0.006122165359556675,0.01171196810901165
2626101626625,1.4425065517425537,-9.71926212310791,1.1623849868774414,0.01117960549890995,-0.0013309054775163531,0.01597086526453495
2626102863862,1.4293384552001953,-9.72165584564209,1.1528080701828003,0.012776692397892475,-0.0026618109550327063,0.0119781494140625
2626104101087,1.479616641998291,-9.691728591918945,1.1851298809051514,0.00931633822619915,0.0015970865497365594,0.0090501569211483
2626105338312,1.45806884765625,-9.714473724365234,1.1839327812194824,0.0066545275039970875,-0.0002661811013240367,0.00931633822619915
2626106575525,1.4640543460845947,-9.758766174316406,1.1480196714401245,0.007985432632267475,-0.0029279920272529125,0.00984870083630085
2626107812750,1.456871747970581,-9.715670585632324,1.1324573755264282,0.010913425125181675,-0.0042588976211845875,0.010381062515079975
2626109049987,1.4197616577148438,-9.6989107131958,1.1803414821624756,0.006122165359556675,-0.0031941730994731188,0.0071868896484375
2626110287212,1.4460978507995605,-9.715670585632324,1.1563994884490967,0.010647243820130825,-0.0018632676219567657,0.0053236219100654125
2626111524425,1.4173674583435059,-9.715670585632324,1.1659762859344482,0.0066545275039970875,-0.00452507846057415,0.00692070834338665
2626112761662,1.4065935611724854,-9.701305389404297,1.217451572418213,0.0071868896484375,-0.0031941730994731188,0.010647243820130825
2626113998887,1.4257471561431885,-9.740809440612793,1.191115379333496,0.010647243820130825,0.0015970865497365594,0.015172322280704975
2626115236125,1.4281413555145264,-9.756372451782227,1.1240776777267456,0.008251613937318325,-0.0037265352439135313,0.0138414166867733
2626116473325,1.4496891498565674,-9.75278091430664,1.1587936878204346,0.008251613937318325,-0.0005323622026480734,0.008783976547420025
2626117710562,1.4664485454559326,-9.736021041870117,1.1982979774475098,0.00984870083630085,0.0013309054775163531,0.0053236219100654125
2626118947812,1.4676456451416016,-9.655815124511719,1.1671733856201172,0.0071868896484375,-0.0002661811013240367,0.0071868896484375
2626120185025,1.4281413555145264,-9.720458984375,1.1563994884490967,0.008783976547420025,0.0013309054775163531,0.0015970865497365594
2626121422237,1.4413094520568848,-9.75517463684082,1.1611878871917725,0.0090501569211483,0.0015970865497365594,0.0037265352439135313
2626122659462,1.437718152999878,-9.728838920593262,1.1659762859344482,0.010114881210029125,0.0,0.010381062515079975
2626123896712,1.4389152526855469,-9.72285270690918,1.1528080701828003,0.008517795242369175,-0.0026618109550327063,0.0063883461989462376
2626125133925,1.4329297542572021,-9.713275909423828,1.1803414821624756,0.004791259765625,-0.0007985432748682797,0.00452507846057415
2626126371150,1.4113819599151611,-9.72165584564209,1.1575965881347656,0.0090501569211483,-0.0005323622026480734,0.005589802749454975
2626127608375,1.4329297542572021,-9.750386238098145,1.1659762859344482,0.00692070834338665,0.0005323622026480734,0.005057440605014563
2626128845600,1.3994109630584717,-9.794679641723633,1.1599907875061035,0.005855984054505825,-0.0002661811013240367,0.0007985432748682797
2626130082800,1.4484920501708984,-9.767146110534668,1.1420341730117798,-0.0002661811013240367,-0.004791259765625,-0.0013309054775163531
2626131320037,1.414973258972168,-9.787496566772461,1.1575965881347656,0.0015970865497365594,-0.0013309054775163531,0.0031941730994731188
2626132557275,1.4257471561431885,-9.793481826782227,1.1516109704971313,0.0037265352439135313,-0.0010647244052961469,0.0013309054775163531
2626133794500,1.43532395362854,-9.771934509277344,1.1444283723831177,0.008783976547420025,0.0005323622026480734,-0.0007985432748682797
2626135031725,1.4185645580291748,-9.789891242980957,1.1671733856201172,0.0026618109550327063,-0.0023956298828125,0.0005323622026480734
2626136268950,1.4018051624298096,-9.75158405303955,1.1599907875061035,0.0010647244052961469,-0.0007985432748682797,0.0015970865497365594
2626137506162,1.4245500564575195,-9.795876502990723,1.1456254720687866,0.003460354171693325,0.0053236219100654125,0.0007985432748682797
2626138743412,1.4389152526855469,-9.787496566772461,1.1312602758407593,0.0021294488105922937,0.0013309054775163531,0.0
2626139980637,1.4437036514282227,-9.798270225524902,1.173158884048462,0.005855984054505825,-0.003460354171693325,0.0026618109550327063
2626141217850,1.434126853942871,-9.818621635437012,1.1540051698684692,0.00452507846057415,0.0002661811013240367,0.0021294488105922937
2626142455087,1.4484920501708984,-9.764751434326172,1.1587936878204346,0.0007985432748682797,0.0037265352439135313,0.0023956298828125
2626143692300,1.4484920501708984,-9.786299705505371,1.1324573755264282,0.0013309054775163531,0.00452507846057415,0.0005323622026480734
2626144929550,1.4472949504852295,-9.75397777557373,1.1767501831054688,0.0010647244052961469,0.0,-0.0015970865497365594
2626146166762,1.45806884765625,-9.7791166305542,1.1252747774124146,-0.0026618109550327063,-0.0029279920272529125,-0.003460354171693325
2626147403987,1.4496891498565674,-9.747992515563965,1.1288660764694214,0.0007985432748682797,0.0029279920272529125,-0.0026618109550327063
2626148641225,1.4293384552001953,-9.757569313049316,1.1432312726974487,0.0013309054775163531,0.0053236219100654125,-0.0021294488105922937
2626149878437,1.4077906608581543,-9.765949249267578,1.1552022695541382,-0.0018632676219567657,0.0053236219100654125,0.0018632676219567657
2626151115662,1.4221558570861816,-9.813833236694336,1.1540051698684692,-0.0002661811013240367,0.0042588976211845875,0.0007985432748682797
2626152352887,1.4472949504852295,-9.782708168029785,1.1791443824768066,-0.0002661811013240367,0.0071868896484375,-0.0037265352439135313
2626153590112,1.4496891498565674,-9.765949249267578,1.1815385818481445,0.0010647244052961469,0.007453070487827063,-0.0023956298828125
2626154827337,1.4520833492279053,-9.756372451782227,1.1192892789840698,-0.0031941730994731188,0.004791259765625,-0.0066545275039970875
2626156064562,1.434126853942871,-9.774328231811523,1.1336544752120972,-0.006122165359556675,0.005589802749454975,-0.0090501569211483
2626157301800,1.416170358657837,-9.746795654296875,1.1827356815338135,-0.004791259765625,0.005057440605014563,-0.0039927163161337376
2626158539012,1.4628572463989258,-9.773131370544434,1.1324573755264282,-0.0018632676219567657,0.0,-0.0021294488105922937
2626159776250,1.4245500564575195,-9.77552604675293,1.1827356815338135,-0.0042588976211845875,0.0018632676219567657,-0.0039927163161337376
2626161013462,1.4700398445129395,-9.756372451782227,1.1240776777267456,-0.0021294488105922937,0.008251613937318325,-0.005855984054505825
2626162250687,1.459265947341919,-9.714473724365234,1.1779472827911377,-0.0010647244052961469,0.008251613937318325,-0.0018632676219567657
2626163487937,1.436521053314209,-9.725247383117676,1.1587936878204346,-0.0015970865497365594,0.0018632676219567657,0.0010647244052961469
2626164725162,1.4245500564575195,-9.75397777557373,1.171961784362793,0.0,0.0,0.0015970865497365594
2626165962375,1.436521053314209,-9.774328231811523,1.1288660764694214,-0.006122165359556675,0.0013309054775163531,-0.0037265352439135313
2626167199600,1.4544775485992432,-9.734824180603027,1.1647791862487793,-0.0039927163161337376,0.006122165359556675,-0.0037265352439135313
2626168436825,1.4520833492279053,-9.749189376831055,1.2114660739898682,-0.0023956298828125,0.0015970865497365594,-0.0013309054775163531
2626169674050,1.4484920501708984,-9.6989107131958,1.1552022695541382,-0.0037265352439135313,0.007453070487827063,-0.0037265352439135313
2626170911275,1.459265947341919,-9.743204116821289,1.1743559837341309,-0.0021294488105922937,-0.0002661811013240367,-0.004791259765625
2626172148500,1.4688427448272705,-9.730035781860352,1.1815385818481445,-0.003460354171693325,-0.0037265352439135313,-0.0042588976211845875
2626173385737,1.4520833492279053,-9.709685325622559,1.171961784362793,0.0,-0.0007985432748682797,0.0005323622026480734
2626174622962,1.4879963397979736,-9.728838920593262,1.1336544752120972,-0.0026618109550327063,0.0029279920272529125,0.0010647244052961469
2626175860187,1.4209587574005127,-9.7420072555542,1.1899182796478271,-0.005855984054505825,0.0013309054775163531,-0.0029279920272529125
2626177097400,1.4676456451416016,-9.7791166305542,1.1575965881347656,-0.0053236219100654125,0.0002661811013240367,-0.003460354171693325
2626178334662,1.4927847385406494,-9.747992515563965,1.1827356815338135,-0.0021294488105922937,0.0023956298828125,-0.0018632676219567657
2626179571850,1.4437036514282227,-9.724050521850586,1.236605167388916,-0.0031941730994731188,0.0010647244052961469,-0.010647243820130825
2626180809100,1.4041993618011475,-9.724050521850586,1.1671733856201172,0.0031941730994731188,0.0018632676219567657,-0.006122165359556675
2626182046312,1.456871747970581,-9.725247383117676,1.1492167711257935,-0.0005323622026480734,0.00452507846057415,-0.0077192517928779125
2626183283537,1.479616641998291,-9.727641105651855,1.136048674583435,-0.0037265352439135313,0.00452507846057415,-0.0039927163161337376
2626184520762,1.4664485454559326,-9.706093788146973,1.1743559837341309,-0.0018632676219567657,-0.0002661811013240367,-0.005855984054505825
2626185758000,1.4927847385406494,-9.75158405303955,1.1887211799621582,0.0005323622026480734,0.0013309054775163531,-0.005589802749454975
2626186995237,1.4484920501708984,-9.734824180603027,1.1528080701828003,0.0005323622026480734,0.004791259765625,-0.0053236219100654125
2626188232425,1.4496891498565674,-9.720458984375,1.1516109704971313,-0.0002661811013240367,0.0029279920272529125,-0.008517795242369175
2626189469662,1.4245500564575195,-9.750386238098145,1.1779472827911377,0.0,0.0010647244052961469,-0.01224433071911335
2626190706900,1.4281413555145264,-9.730035781860352,1.1863269805908203,0.0026618109550327063,0.00452507846057415,-0.008251613937318325
2626191944137,1.4496891498565674,-9.696516990661621,1.170764684677124,0.007985432632267475,0.0013309054775163531,-0.005589802749454975
2626193181337,1.437718152999878,-9.75517463684082,1.1563994884490967,0.0002661811013240367,-0.0023956298828125,0.0
2626194418575,1.4496891498565674,-9.707290649414062,1.1288660764694214,-0.0018632676219567657,-0.0002661811013240367,-0.0063883461989462376
2626195655812,1.460463047027588,-9.704896926879883,1.1276689767837524,0.0007985432748682797,0.0031941730994731188,-0.0114457868039608
2626196893025,1.4772224426269531,-9.692925453186035,1.1552022695541382,-0.0021294488105922937,0.0026618109550327063,-0.0077192517928779125
2626198130262,1.4736311435699463,-9.731232643127441,1.173158884048462,-0.0007985432748682797,0.0,-0.0042588976211845875
2626199367475,1.4496891498565674,-9.743204116821289,1.1851298809051514,0.0023956298828125,0.005589802749454975,-0.00452507846057415
2626200604712,1.4329297542572021,-9.731232643127441,1.1540051698684692,0.003460354171693325,0.0015970865497365594,-0.0053236219100654125
2626201841950,1.456871747970581,-9.737218856811523,1.1420341730117798,0.0005323622026480734,0.0031941730994731188,-0.008251613937318325
2626203079150,1.4305355548858643,-9.727641105651855,1.1587936878204346,-0.0007985432748682797,0.003460354171693325,-0.00931633822619915
2626204316387,1.479616641998291,-9.708487510681152,1.1887211799621582,0.008251613937318325,-0.003460354171693325,-0.0021294488105922937
2626205553587,1.4987702369689941,-9.71926212310791,1.1767501831054688,0.005589802749454975,-0.0013309054775163531,-0.0026618109550327063
2626206790825,1.4209587574005127,-9.712079048156738,1.1791443824768066,0.0021294488105922937,-0.0037265352439135313,-0.005057440605014563
2626208028075,1.4640543460845947,-9.728838920593262,1.1516109704971313,0.0018632676219567657,-0.005855984054505825,-0.008783976547420025
2626209265275,1.4664485454559326,-9.707290649414062,1.1623849868774414,0.0002661811013240367,-0.0007985432748682797,-0.007985432632267475
2626210502525,1.4760253429412842,-9.704896926879883,1.1755530834197998,0.005855984054505825,0.0066545275039970875,-0.0029279920272529125
2626211739737,1.502361536026001,-9.739612579345703,1.1982979774475098,0.0053236219100654125,0.0031941730994731188,-0.007985432632267475
2626212976962,1.479616641998291,-9.731232643127441,1.1540051698684692,-0.0002661811013240367,-0.0015970865497365594,-0.0063883461989462376
2626214214187,1.4736311435699463,-9.803058624267578,1.1803414821624756,0.0026618109550327063,0.0026618109550327063,-0.005057440605014563
2626215451400,1.499967336654663,-9.765949249267578,1.213860273361206,0.0029279920272529125,0.0005323622026480734,-0.0077192517928779125
2626216688637,1.48081374168396,-9.734824180603027,1.1240776777267456,0.0039927163161337376,-0.003460354171693325,-0.0015970865497365594
2626217925850,1.4963760375976562,-9.77791976928711,1.1276689767837524,0.0029279920272529125,0.0031941730994731188,-0.0015970865497365594
2626219163087,1.4856021404266357,-9.736021041870117,1.1480196714401245,0.0031941730994731188,0.0042588976211845875,-0.0029279920272529125
2626220400325,1.4664485454559326,-9.758766174316406,1.1468225717544556,0.005589802749454975,-0.0013309054775163531,-0.005057440605014563
2626221637550,1.4508862495422363,-9.746795654296875,1.1228805780410767,0.0021294488105922937,0.0015970865497365594,-0.007453070487827063
2626222874762,1.502361536026001,-9.77791976928711,1.1827356815338135,0.0023956298828125,-0.0015970865497365594,-0.0071868896484375
2626224112000,1.502361536026001,-9.774328231811523,1.1348515748977661,0.0039927163161337376,0.0039927163161337376,-0.00958251953125
2626225349225,1.50355863571167,-9.733627319335938,1.1635820865631104,0.0039927163161337376,0.005057440605014563,-0.005589802749454975
2626226586462,1.5047557353973389,-9.757569313049316,1.1899182796478271,0.0077192517928779125,0.0021294488105922937,-0.0077192517928779125
2626227823675,1.479616641998291,-9.724050521850586,1.1791443824768066,0.0071868896484375,0.003460354171693325,-0.0071868896484375
2626229060900,1.4832079410552979,-9.77791976928711,1.1959037780761719,0.0029279920272529125,0.0053236219100654125,-0.0071868896484375
2626230298137,1.4772224426269531,-9.75517463684082,1.1468225717544556,0.0031941730994731188,0.0042588976211845875,-0.0037265352439135313
2626231535350,1.4987702369689941,-9.743204116821289,1.1623849868774414,0.0015970865497365594,0.005057440605014563,-0.004791259765625
2626232772600,1.5227123498916626,-9.756372451782227,1.1611878871917725,0.0026618109550327063,-0.0005323622026480734,-0.0063883461989462376
2626234009837,1.4652514457702637,-9.773131370544434,1.1851298809051514,0.00452507846057415,-0.0005323622026480734,-0.010114881210029125
2626235247025,1.4712369441986084,-9.759963035583496,1.1420341730117798,-0.0018632676219567657,0.0023956298828125,-0.004791259765625
2626236484262,1.4700398445129395,-9.743204116821289,1.1827356815338135,-0.0005323622026480734,-0.0021294488105922937,-0.0063883461989462376
2626237721500,1.460463047027588,-9.731232643127441,1.2066776752471924,0.00452507846057415,-0.004791259765625,-0.005589802749454975
2626238958712,1.4676456451416016,-9.736021041870117,1.1982979774475098,0.005057440605014563,0.004791259765625,-0.008783976547420025
2626240195925,1.4987702369689941,-9.734824180603027,1.171961784362793,0.0005323622026480734,0.0039927163161337376,-0.0039927163161337376
2626241433175,1.4832079410552979,-9.694122314453125,1.1743559837341309,0.0021294488105922937,0.0039927163161337376,-0.0026618109550327063
2626242670375,1.459265947341919,-9.745597839355469,1.1959037780761719,0.00452507846057415,0.0007985432748682797,-0.0053236219100654125
2626243907612,1.4856021404266357,-9.707290649414062,1.193509578704834,0.0039927163161337376,-0.0039927163161337376,-0.010381062515079975
2626245144837,1.4927847385406494,-9.702502250671387,1.1743559837341309,-0.0002661811013240367,0.0023956298828125,-0.0077192517928779125
2626246382075,1.4903905391693115,-9.725247383117676,1.1863269805908203,0.0018632676219567657,0.0007985432748682797,-0.0039927163161337376
2626247619300,1.4449007511138916,-9.700108528137207,1.138442873954773,0.005855984054505825,0.0029279920272529125,-0.003460354171693325
2626248856512,1.499967336654663,-9.714473724365234,1.1408370733261108,0.0018632676219567657,0.0002661811013240367,-0.0063883461989462376
2626250093762,1.4844050407409668,-9.707290649414062,1.138442873954773,0.0021294488105922937,0.0,-0.005057440605014563
2626251330987,1.4832079410552979,-9.690531730651855,1.1324573755264282,0.005589802749454975,0.0002661811013240367,-0.0039927163161337376
2626252568212,1.4915876388549805,-9.68813705444336,1.1851298809051514,0.0037265352439135313,0.0039927163161337376,-0.00931633822619915
2626253805437,1.4724340438842773,-9.700108528137207,1.2090718746185303,0.0077192517928779125,0.0042588976211845875,-0.005057440605014563
2626255042662,1.50355863571167,-9.730035781860352,1.1791443824768066,0.0077192517928779125,-0.0010647244052961469,-0.005589802749454975
2626256279875,1.482010841369629,-9.68694019317627,1.1887211799621582,0.00692070834338665,0.00452507846057415,-0.0042588976211845875
2626257517100,1.5047557353973389,-9.690531730651855,1.1791443824768066,0.0029279920272529125,0.0053236219100654125,-0.0023956298828125
2626258754312,1.478419542312622,-9.706093788146973,1.191115379333496,0.0031941730994731188,-0.0031941730994731188,-0.0002661811013240367
2626259991550,1.436521053314209,-9.744400978088379,1.194706678390503,0.005855984054505825,-0.0023956298828125,-0.0026618109550327063
2626261228775,1.5059528350830078,-9.730035781860352,1.1468225717544556,0.005589802749454975,0.0005323622026480734,-0.0053236219100654125
2626262466012,1.5059528350830078,-9.702502250671387,1.1887211799621582,0.003460354171693325,0.0029279920272529125,-0.005057440605014563
2626263703237,1.434126853942871,-9.701305389404297,1.1635820865631104,0.0013309054775163531,0.0042588976211845875,-0.008783976547420025
2626264940475,1.482010841369629,-9.77672290802002,1.1252747774124146,0.007453070487827063,-0.0013309054775163531,-0.005855984054505825
2626266177687,1.4891934394836426,-9.77672290802002,1.1444283723831177,0.0066545275039970875,0.0023956298828125,-0.005057440605014563
2626267414912,1.4544775485992432,-9.77552604675293,1.1312602758407593,0.005057440605014563,0.0023956298828125,-0.0077192517928779125
2626268652150,1.4472949504852295,-9.750386238098145,1.1540051698684692,0.0013309054775163531,-0.003460354171693325,0.0023956298828125
2626269889362,1.4113819599151611,-9.757569313049316,1.2018892765045166,0.0007985432748682797,0.0010647244052961469,0.0029279920272529125
2626271126587,1.4724340438842773,-9.794679641723633,1.1456254720687866,0.006122165359556675,0.0039927163161337376,-0.0018632676219567657
2626272363825,1.4832079410552979,-9.80904483795166,1.1300631761550903,0.006122165359556675,0.0042588976211845875,-0.003460354171693325
2626273601037,1.45806884765625,-9.821015357971191,1.1779472827911377,0.0053236219100654125,0.0026618109550327063,-0.0023956298828125
2626274838275,1.479616641998291,-9.798270225524902,1.113303780555725,0.008783976547420025,0.0013309054775163531,-0.0018632676219567657
2626276075500,1.4975731372833252,-9.834183692932129,1.1683704853057861,0.0063883461989462376,0.0039927163161337376,-0.0002661811013240367
2626277312712,1.4676456451416016,-9.830592155456543,1.1575965881347656,0.005057440605014563,0.0015970865497365594,0.005057440605014563
2626278549950,1.4616601467132568,-9.84495735168457,1.1647791862487793,-0.006122165359556675,0.0018632676219567657,0.0018632676219567657
2626279787175,1.4544775485992432,-9.821015357971191,1.138442873954773,-0.0018632676219567657,0.005589802749454975,-0.0018632676219567657
2626281024387,1.455674648284912,-9.81263542175293,1.1049240827560425,0.0005323622026480734,0.012510511092841625,-0.0007985432748682797
2626282261625,1.5071499347686768,-9.793481826782227,1.1623849868774414,-0.0013309054775163531,0.010381062515079975,0.003460354171693325
2626283498875,1.499967336654663,-9.827000617980957,1.1552022695541382,-0.0018632676219567657,0.0037265352439135313,0.005057440605014563
2626284736075,1.4951789379119873,-9.828198432922363,1.1635820865631104,0.0005323622026480734,0.00452507846057415,0.005057440605014563
2626285973300,1.4987702369689941,-9.830592155456543,1.1563994884490967,-0.0005323622026480734,0.008251613937318325,0.0031941730994731188
2626287210525,1.4939818382263184,-9.792284965515137,1.115697979927063,-0.005589802749454975,0.00692070834338665,0.006122165359556675
2626288447762,1.4903905391693115,-9.75397777557373,1.1468225717544556,-0.00692070834338665,0.004791259765625,0.0066545275039970875
2626289684975,1.4867992401123047,-9.771934509277344,1.1444283723831177,-0.010913425125181675,0.008251613937318325,0.0090501569211483
2626290922225,1.5119383335113525,-9.728838920593262,1.216254472732544,-0.0053236219100654125,0.0071868896484375,0.01117960549890995
2626292159450,1.5083470344543457,-9.747992515563965,1.1683704853057861,-0.0071868896484375,0.008517795242369175,0.0063883461989462376
2626293396687,1.4676456451416016,-9.728838920593262,1.213860273361206,-0.005855984054505825,0.008251613937318325,0.0029279920272529125
2626294633887,1.436521053314209,-9.703699111938477,1.1528080701828003,-0.0063883461989462376,0.0066545275039970875,0.00931633822619915
2626295871112,1.4520833492279053,-9.736021041870117,1.173158884048462,-0.00931633822619915,0.0023956298828125,0.0119781494140625
2626297108337,1.4508862495422363,-9.750386238098145,1.1516109704971313,-0.0071868896484375,0.0090501569211483,0.00692070834338665
2626298345562,1.4700398445129395,-9.731232643127441,1.171961784362793,-0.00958251953125,0.005855984054505825,0.006122165359556675
2626299582800,1.4939818382263184,-9.715670585632324,1.1552022695541382,-0.013042873702943325,0.0037265352439135313,0.0077192517928779125
2626300820025,1.4389152526855469,-9.700108528137207,1.1049240827560425,-0.008517795242369175,0.003460354171693325,0.00692070834338665
2626302057237,1.478419542312622,-9.680954933166504,1.1480196714401245,-0.0031941730994731188,0.007985432632267475,0.01463996060192585
2626303294462,1.4748282432556152,-9.732430458068848,1.1803414821624756,-0.00931633822619915,0.010381062515079975,0.0138414166867733
2626304531687,1.456871747970581,-9.75517463684082,1.139639973640442,-0.00958251953125,0.00931633822619915,0.01171196810901165
2626305768925,1.5322891473770142,-9.700108528137207,1.1468225717544556,-0.008251613937318325,0.0026618109550327063,0.010647243820130825
2626307006162,1.5119383335113525,-9.706093788146973,1.138442873954773,-0.00452507846057415,0.0029279920272529125,0.0119781494140625
2626308243375,1.4676456451416016,-9.720458984375,1.1875240802764893,-0.0026618109550327063,0.003460354171693325,0.0119781494140625
2626309480612,1.4712369441986084,-9.727641105651855,1.1863269805908203,-0.0066545275039970875,0.008517795242369175,0.007985432632267475
2626310717837,1.5263036489486694,-9.716867446899414,1.1851298809051514,-0.007985432632267475,0.012510511092841625,0.010114881210029125
2626311955062,1.5047557353973389,-9.72165584564209,1.1671733856201172,-0.0066545275039970875,0.0053236219100654125,0.014373779296875
2626313192287,1.4987702369689941,-9.738415718078613,1.139639973640442,-0.00452507846057415,0.00692070834338665,0.0186326764523983
2626314429512,1.45806884765625,-9.720458984375,1.1563994884490967,-0.008251613937318325,0.0042588976211845875,0.015172322280704975
2626315666725,1.4724340438842773,-9.690531730651855,1.2066776752471924,-0.008251613937318325,0.010381062515079975,0.0119781494140625
2626316903962,1.5143325328826904,-9.66419506072998,1.171961784362793,-0.006122165359556675,0.004791259765625,0.00958251953125
2626318141200,1.5083470344543457,-9.718064308166504,1.1851298809051514,-0.0042588976211845875,0.00452507846057415,0.012510511092841625
2626319378425,1.5239094495773315,-9.747992515563965,1.1324573755264282,-0.01224433071911335,0.0071868896484375,0.01650322787463665
2626320615650,1.5191209316253662,-9.712079048156738,1.1767501831054688,-0.0090501569211483,0.0077192517928779125,0.01117960549890995
2626321852875,1.4903905391693115,-9.691728591918945,1.1336544752120972,-0.0063883461989462376,0.006122165359556675,0.00984870083630085
2626323090087,1.5286978483200073,-9.72165584564209,1.1623849868774414,-0.005855984054505825,0.00452507846057415,0.013309055007994175
2626324327337,1.4856021404266357,-9.694122314453125,1.1599907875061035,-0.007985432632267475,0.004791259765625,0.010913425125181675
2626325564562,1.4891934394836426,-9.66299819946289,1.2018892765045166,-0.0063883461989462376,0.010114881210029125,0.007453070487827063
2626326801787,1.48081374168396,-9.718064308166504,1.1827356815338135,-0.0039927163161337376,0.0077192517928779125,0.01171196810901165
2626328038987,1.4664485454559326,-9.714473724365234,1.2006921768188477,-0.0063883461989462376,0.00692070834338665,0.01463996060192585
2626329276237,1.5083470344543457,-9.708487510681152,1.1528080701828003,-0.01357523538172245,0.005855984054505825,0.013309055007994175
2626330513462,1.479616641998291,-9.690531730651855,1.1611878871917725,-0.00984870083630085,0.01117960549890995,0.0138414166867733
2626331750675,1.501164436340332,-9.700108528137207,1.1504138708114624,-0.005057440605014563,0.008783976547420025,0.01171196810901165
2626332987887,1.502361536026001,-9.703699111938477,1.1528080701828003,-0.0039927163161337376,0.008517795242369175,0.013309055007994175
2626334225137,1.4903905391693115,-9.734824180603027,1.237802267074585,0.0013309054775163531,0.007453070487827063,0.010913425125181675
2626335462362,1.455674648284912,-9.738415718078613,1.1767501831054688,-0.0018632676219567657,0.0066545275039970875,0.010381062515079975
2626336699600,1.499967336654663,-9.726444244384766,1.136048674583435,0.0,0.0090501569211483,0.01117960549890995
2626337936800,1.4832079410552979,-9.745597839355469,1.1659762859344482,-0.004791259765625,0.0077192517928779125,0.0119781494140625
2626339174050,1.4520833492279053,-9.743204116821289,1.217451572418213,-0.0063883461989462376,0.0077192517928779125,0.010381062515079975
2626340411262,1.479616641998291,-9.727641105651855,1.1336544752120972,-0.00692070834338665,0.008783976547420025,0.01171196810901165
2626341648500,1.5059528350830078,-9.730035781860352,1.1516109704971313,-0.0071868896484375,0.00931633822619915,0.013309055007994175
2626342885712,1.4688427448272705,-9.743204116821289,1.1671733856201172,-0.005589802749454975,0.005589802749454975,0.01357523538172245
2626344122937,1.499967336654663,-9.736021041870117,1.136048674583435,-0.0066545275039970875,0.006122165359556675,0.005855984054505825
2626345360175,1.4891934394836426,-9.759963035583496,1.1671733856201172,0.0013309054775163531,0.0071868896484375,0.0090501569211483
2626346597400,1.459265947341919,-9.764751434326172,1.1468225717544556,0.0005323622026480734,0.004791259765625,0.013042873702943325
2626347834637,1.5059528350830078,-9.737218856811523,1.1468225717544556,-0.005855984054505825,0.0007985432748682797,0.014373779296875
2626349071850,1.4903905391693115,-9.761160850524902,1.1528080701828003,-0.0021294488105922937,0.0063883461989462376,0.01224433071911335
2626350309087,1.4856021404266357,-9.762357711791992,1.1899182796478271,0.0015970865497365594,0.0138414166867733,0.013042873702943325
2626351546312,1.4760253429412842,-9.769539833068848,1.1611878871917725,0.0010647244052961469,0.0071868896484375,0.01117960549890995
2626352783537,1.4915876388549805,-9.805453300476074,1.1659762859344482,0.0,0.007985432632267475,0.012510511092841625
2626354020750,1.4748282432556152,-9.793481826782227,1.1647791862487793,-0.0015970865497365594,0.0042588976211845875,0.015172322280704975
2626355257987,1.5286978483200073,-9.736021041870117,1.1815385818481445,-0.005589802749454975,-0.0005323622026480734,0.007453070487827063
2626356495237,1.5275007486343384,-9.731232643127441,1.1635820865631104,0.0031941730994731188,0.0005323622026480734,0.00931633822619915
2626357732450,1.50355863571167,-9.785102844238281,1.1863269805908203,0.007453070487827063,0.0037265352439135313,0.0090501569211483
2626358969662,1.5179238319396973,-9.740809440612793,1.1743559837341309,0.0010647244052961469,0.003460354171693325,0.012510511092841625
2626360206900,1.4640543460845947,-9.738415718078613,1.1755530834197998,-0.0015970865497365594,0.0039927163161337376,0.013042873702943325
2626361444125,1.4915876388549805,-9.756372451782227,1.1959037780761719,0.0018632676219567657,0.00692070834338665,0.0114457868039608
2626362681350,1.4856021404266357,-9.734824180603027,1.215057373046875,0.003460354171693325,0.010114881210029125,0.010381062515079975
2626363918575,1.4736311435699463,-9.75397777557373,1.1563994884490967,-0.0002661811013240367,0.00931633822619915,0.00984870083630085
2626365155812,1.482010841369629,-9.694122314453125,1.1959037780761719,0.0029279920272529125,0.005589802749454975,0.01224433071911335
2626366393037,1.502361536026001,-9.75397777557373,1.1887211799621582,0.0010647244052961469,0.0029279920272529125,0.0090501569211483
2626367630262,1.5071499347686768,-9.724050521850586,1.1683704853057861,0.0018632676219567657,0.0031941730994731188,0.00931633822619915
2626368867475,1.5071499347686768,-9.706093788146973,1.1863269805908203,0.0026618109550327063,0.0037265352439135313,0.00958251953125
2626370104712,1.5239094495773315,-9.72285270690918,1.1575965881347656,0.008783976547420025,0.0023956298828125,0.008783976547420025
2626371341937,1.4915876388549805,-9.696516990661621,1.1611878871917725,0.00984870083630085,0.00452507846057415,0.0077192517928779125
2626372579150,1.534683346748352,-9.738415718078613,1.1432312726974487,0.005855984054505825,0.0,0.007985432632267475
2626373816400,1.4760253429412842,-9.732430458068848,1.2054805755615234,0.00692070834338665,-0.0015970865497365594,0.005589802749454975
2626375053625,1.4856021404266357,-9.725247383117676,1.1683704853057861,0.004791259765625,0.006122165359556675,0.00452507846057415
2626376290837,1.456871747970581,-9.720458984375,1.173158884048462,0.0021294488105922937,0.0021294488105922937,0.0063883461989462376
2626377528062,1.4832079410552979,-9.712079048156738,1.2090718746185303,0.0029279920272529125,-0.0007985432748682797,0.0063883461989462376
2626378765287,1.4975731372833252,-9.747992515563965,1.1815385818481445,0.006122165359556675,-0.0002661811013240367,0.005057440605014563
2626380002512,1.5227123498916626,-9.72165584564209,1.1863269805908203,0.010647243820130825,0.0002661811013240367,0.008517795242369175
2626381239737,1.5191209316253662,-9.720458984375,1.1647791862487793,0.00958251953125,-0.0010647244052961469,0.0114457868039608
2626382476975,1.5239094495773315,-9.678560256958008,1.1623849868774414,0.006122165359556675,0.005057440605014563,0.0077192517928779125
2626383714187,1.535880446434021,-9.725247383117676,1.170764684677124,0.008783976547420025,0.0023956298828125,0.003460354171693325
2626384951437,1.5155296325683594,-9.712079048156738,1.2054805755615234,0.007985432632267475,0.0018632676219567657,0.007985432632267475
2626386188662,1.5406688451766968,-9.716867446899414,1.2198457717895508,0.010381062515079975,0.0021294488105922937,0.0031941730994731188
2626387425887,1.4724340438842773,-9.763554573059082,1.1899182796478271,0.01410759799182415,0.0015970865497365594,-0.0007985432748682797
2626388663112,1.533486247062683,-9.745597839355469,1.1994950771331787,0.0114457868039608,0.0002661811013240367,0.0037265352439135313
2626389900337,1.4844050407409668,-9.765949249267578,1.2114660739898682,0.006122165359556675,-0.0010647244052961469,0.0071868896484375
2626391137537,1.4987702369689941,-9.740809440612793,1.1899182796478271,0.008251613937318325,-0.0018632676219567657,0.0066545275039970875
2626392374762,1.5454572439193726,-9.746795654296875,1.1743559837341309,0.0063883461989462376,-0.0029279920272529125,0.0013309054775163531
2626393612025,1.5155296325683594,-9.75278091430664,1.1516109704971313,0.008517795242369175,-0.005855984054505825,0.0007985432748682797
2626394849250,1.4915876388549805,-9.744400978088379,1.1791443824768066,0.00931633822619915,-0.0037265352439135313,0.0021294488105922937
2626396086462,1.5119383335113525,-9.75397777557373,1.1863269805908203,0.005855984054505825,-0.0005323622026480734,0.0015970865497365594
2626397323687,1.5394717454910278,-9.756372451782227,1.171961784362793,0.010647243820130825,-0.0037265352439135313,0.003460354171693325
2626398560912,1.5502456426620483,-9.75158405303955,1.138442873954773,0.005057440605014563,-0.0010647244052961469,0.006122165359556675
2626399798162,1.5310920476913452,-9.765949249267578,1.2198457717895508,0.0031941730994731188,-0.0071868896484375,0.005057440605014563
2626401035375,1.5382746458053589,-9.758766174316406,1.1791443824768066,0.008783976547420025,-0.0077192517928779125,0.004791259765625
2626402272612,1.4856021404266357,-9.767146110534668,1.136048674583435,0.012510511092841625,0.0010647244052961469,0.00452507846057415
2626403509837,1.4856021404266357,-9.789891242980957,1.1611878871917725,0.0090501569211483,-0.0007985432748682797,0.0031941730994731188
2626404747050,1.5143325328826904,-9.773131370544434,1.1540051698684692,0.00692070834338665,-0.0023956298828125,0.00692070834338665
2626405984300,1.502361536026001,-9.757569313049316,1.1563994884490967,0.00692070834338665,-0.0066545275039970875,0.00452507846057415
2626407221512,1.4915876388549805,-9.813833236694336,1.1516109704971313,0.010114881210029125,-0.005855984054505825,0.00452507846057415
2626408458737,1.4616601467132568,-9.738415718078613,1.1204863786697388,0.012776692397892475,-0.0015970865497365594,0.005855984054505825
2626409695975,1.4951789379119873,-9.757569313049316,1.1671733856201172,0.01410759799182415,0.0007985432748682797,0.0021294488105922937
2626410933187,1.5071499347686768,-9.762357711791992,1.1815385818481445,0.0031941730994731188,-0.0018632676219567657,0.0037265352439135313
2626412170412,1.4891934394836426,-9.786299705505371,1.1623849868774414,0.0029279920272529125,-0.0023956298828125,0.0071868896484375
2626413407637,1.459265947341919,-9.792284965515137,1.1599907875061035,0.0077192517928779125,-0.0005323622026480734,0.0039927163161337376
2626414644887,1.50355863571167,-9.798270225524902,1.212663173675537,0.0138414166867733,-0.0026618109550327063,0.0053236219100654125
2626415882112,1.4628572463989258,-9.785102844238281,1.1982979774475098,0.014906140975654125,-0.005855984054505825,0.00452507846057415
2626417119325,1.4544775485992432,-9.7791166305542,1.1959037780761719,0.0066545275039970875,-0.0029279920272529125,0.004791259765625
2626418356537,1.48081374168396,-9.785102844238281,1.1743559837341309,0.005057440605014563,0.0007985432748682797,0.0013309054775163531
2626419593800,1.478419542312622,-9.789891242980957,1.217451572418213,0.0066545275039970875,-0.0015970865497365594,0.0039927163161337376
2626420831012,1.4951789379119873,-9.773131370544434,1.1552022695541382,0.003460354171693325,-0.005589802749454975,0.0063883461989462376
2626422068225,1.478419542312622,-9.764751434326172,1.1480196714401245,0.0010647244052961469,-0.004791259765625,0.007453070487827063
2626423305450,1.460463047027588,-9.774328231811523,1.1480196714401245,0.003460354171693325,-0.007985432632267475,0.0026618109550327063
2626424542687,1.4867992401123047,-9.785102844238281,1.1994950771331787,0.0066545275039970875,-0.010913425125181675,0.0071868896484375
2626425779937,1.5179238319396973,-9.77672290802002,1.1456254720687866,0.0005323622026480734,-0.0039927163161337376,0.00692070834338665
2626427017150,1.4963760375976562,-9.7791166305542,1.1456254720687866,0.005057440605014563,-0.005589802749454975,0.010114881210029125
2626428254362,1.4903905391693115,-9.789891242980957,1.1312602758407593,0.0023956298828125,-0.0066545275039970875,0.010913425125181675
2626429491600,1.5167267322540283,-9.756372451782227,1.1444283723831177,-0.0013309054775163531,-0.007985432632267475,0.00984870083630085
2626430728825,1.4891934394836426,-9.767146110534668,1.2042834758758545,0.0037265352439135313,-0.0021294488105922937,0.0119781494140625
2626431966037,1.4951789379119873,-9.795876502990723,1.1899182796478271,0.004791259765625,-0.0018632676219567657,0.01357523538172245
2626433203287,1.4724340438842773,-9.77672290802002,1.1635820865631104,-0.0029279920272529125,-0.0026618109550327063,0.0066545275039970875
2626434440512,1.4832079410552979,-9.768342971801758,1.193509578704834,-0.0007985432748682797,-0.006122165359556675,0.00958251953125
2626435677737,1.4389152526855469,-9.763554573059082,1.1863269805908203,0.0021294488105922937,-0.005855984054505825,0.01224433071911335
2626436914937,1.4544775485992432,-9.7791166305542,1.2042834758758545,-0.0018632676219567657,-0.0053236219100654125,0.012776692397892475
2626438152162,1.4664485454559326,-9.77672290802002,1.1300631761550903,-0.0021294488105922937,-0.0037265352439135313,0.0119781494140625
2626439389412,1.4664485454559326,-9.7420072555542,1.1013327836990356,-0.0005323622026480734,-0.005589802749454975,0.0119781494140625
2626440626637,1.4987702369689941,-9.793481826782227,1.1563994884490967,-0.0023956298828125,-0.006122165359556675,0.01996358297765255
2626441863875,1.4927847385406494,-9.77672290802002,1.116895079612732,-0.0037265352439135313,-0.008783976547420025,0.01783413253724575
2626443101100,1.5095441341400146,-9.77672290802002,1.1587936878204346,-0.0066545275039970875,-0.004791259765625,0.01463996060192585
2626444338300,1.478419542312622,-9.757569313049316,1.1683704853057861,-0.0023956298828125,-0.0018632676219567657,0.0157046839594841
