timestamp_ns,accel_x,accel_y,accel_z,gyro_x,gyro_y,gyro_z
18586309356350,-1.116895079612732,-9.718064308166504,0.03232172504067421,-0.00931633822619915,-0.01996358297765255,-0.0063883461989462376
18586310593525,-1.0749965906143188,-9.727641105651855,-0.014365210197865963,0.0002661811013240367,-0.01943122036755085,-0.0007985432748682797
18586311830725,-1.07379949092865,-9.709685325622559,-0.013168109580874443,-0.004791259765625,-0.01463996060192585,-0.0071868896484375
18586313067912,-1.071405291557312,-9.743204116821289,0.07062894850969315,-0.008783976547420025,-0.0191650390625,-0.005057440605014563
18586314305062,-1.0319008827209473,-9.715670585632324,0.043095629662275314,-0.0042588976211845875,-0.014373779296875,-0.0037265352439135313
18586315542275,-1.0618284940719604,-9.695320129394531,0.02274491637945175,-0.008251613937318325,-0.0162370465695858,-0.0042588976211845875
18586316779437,-1.0630255937576294,-9.68694019317627,0.023942017927765846,-0.005855984054505825,-0.01836649514734745,-0.0037265352439135313
18586318016625,-1.0414777994155884,-9.701305389404297,0.0347159244120121,-0.005855984054505825,-0.01943122036755085,-0.0023956298828125
18586319253812,-1.0522516965866089,-9.66299819946289,0.043095629662275314,0.0007985432748682797,-0.013309055007994175,-0.0023956298828125
18586320491000,-1.0618284940719604,-9.700108528137207,0.0454898327589035,-0.0018632676219567657,-0.0173017717897892,-0.003460354171693325
18586321728162,-1.0438719987869263,-9.684545516967773,0.04668693244457245,-0.0063883461989462376,-0.01410759799182415,0.0005323622026480734
18586322965362,-1.0271124839782715,-9.668983459472656,0.03232172504067421,-0.0013309054775163531,-0.01996358297765255,0.0023956298828125
18586324202537,-1.0115501880645752,-9.647436141967773,0.06703764945268631,-0.0005323622026480734,-0.0196974016726017,0.0023956298828125
18586325439712,-1.0055646896362305,-9.66539192199707,0.04908113554120064,0.0037265352439135313,-0.013042873702943325,0.0013309054775163531
18586326676887,-1.0259153842926025,-9.673771858215332,0.07541735470294952,0.0037265352439135313,-0.0186326764523983,0.0021294488105922937
18586327914075,-1.0534487962722778,-9.653421401977539,0.02753331884741783,0.0053236219100654125,-0.0181003138422966,0.004791259765625
18586329151250,-1.0522516965866089,-9.667786598205566,0.05506663769483566,0.0053236219100654125,-0.0157046839594841,0.0029279920272529125
18586330388437,-1.0749965906143188,-9.691728591918945,0.05267243832349777,0.0077192517928779125,-0.0181003138422966,0.0037265352439135313
18586331625612,-1.0833762884140015,-9.694122314453125,0.04429273307323456,0.0053236219100654125,-0.014906140975654125,0.0077192517928779125
18586332862812,-1.016338586807251,-9.68694019317627,0.035913024097681046,0.0053236219100654125,-0.0186326764523983,0.010913425125181675
18586334099987,-1.0414777994155884,-9.649829864501953,0.04668693244457245,0.005057440605014563,-0.014373779296875,0.01117960549890995
18586335337175,-1.0462661981582642,-9.658209800720215,0.05147533863782883,0.008517795242369175,-0.014373779296875,0.012510511092841625
18586336574350,-1.0666168928146362,-9.680954933166504,0.0347159244120121,0.0071868896484375,-0.0138414166867733,0.00931633822619915
18586337811525,-1.092953085899353,-9.704896926879883,0.02753331884741783,0.010647243820130825,-0.01357523538172245,0.005589802749454975
18586339048737,-1.072602391242981,-9.692925453186035,0.015562310814857483,0.00931633822619915,-0.02129448764026165,0.0077192517928779125
18586340285912,-1.1037269830703735,-9.706093788146973,0.04788403585553169,0.010381062515079975,-0.02022976242005825,0.010647243820130825
18586341523087,-1.1540051698684692,-9.714473724365234,0.07182604819536209,0.013309055007994175,-0.01703559048473835,0.00984870083630085
18586342760275,-1.0821791887283325,-9.726444244384766,0.05027823522686958,0.008251613937318325,-0.01357523538172245,0.00692070834338665
18586343997437,-1.071405291557312,-9.7420072555542,0.031124621629714966,0.01171196810901165,-0.005057440605014563,0.004791259765625
18586345234637,-1.1025298833847046,-9.744400978088379,0.05386953800916672,0.01171196810901165,-0.010381062515079975,0.0037265352439135313
18586346471812,-1.1097124814987183,-9.75517463684082,0.07182604819536209,0.012510511092841625,-0.0186326764523983,0.010913425125181675
18586347709000,-1.115697979927063,-9.743204116821289,0.05386953800916672,0.01171196810901165,-0.01171196810901165,0.0077192517928779125
18586348946175,-1.1073182821273804,-9.770737648010254,-0.008379706181585789,0.0114457868039608,-0.014906140975654125,0.0018632676219567657
18586350183337,-1.0797849893569946,-9.743204116821289,0.023942017927765846,0.005855984054505825,-0.01171196810901165,0.01171196810901165
18586351420537,-1.1109095811843872,-9.785102844238281,0.04668693244457245,0.00958251953125,-0.0114457868039608,0.00984870083630085
18586352657725,-1.0785878896713257,-9.758766174316406,0.04668693244457245,0.01171196810901165,-0.014373779296875,0.0053236219100654125
18586353894887,-1.1121066808700562,-9.731232643127441,0.031124621629714966,0.0053236219100654125,-0.012510511092841625,0.00984870083630085
18586355132100,-1.094150185585022,-9.786299705505371,0.0454898327589035,0.0042588976211845875,-0.008251613937318325,0.006122165359556675
18586356369250,-1.0845733880996704,-9.789891242980957,0.05506663769483566,0.007453070487827063,-0.0090501569211483,-0.0029279920272529125
18586357606462,-1.072602391242981,-9.750386238098145,0.06224924325942993,0.0053236219100654125,-0.0114457868039608,0.00958251953125
18586358843650,-1.0546458959579468,-9.730035781860352,0.023942017927765846,0.0066545275039970875,-0.012510511092841625,0.004791259765625
18586360080825,-1.0295066833496094,-9.678560256958008,0.06703764945268631,0.010647243820130825,-0.0119781494140625,0.005855984054505825
18586361318000,-1.05105459690094,-9.660603523254395,0.10055647045373917,0.012776692397892475,-0.01463996060192585,0.012510511092841625
18586362555200,-1.0582371950149536,-9.710882186889648,0.09457096457481384,0.015172322280704975,-0.013042873702943325,0.008251613937318325
18586363792387,-1.0642226934432983,-9.68813705444336,0.061052143573760986,0.0138414166867733,-0.013042873702943325,0.008783976547420025
18586365029562,-1.05105459690094,-9.682151794433594,0.08259996026754379,0.0191650390625,-0.012510511092841625,0.008783976547420025
18586366266725,-1.1109095811843872,-9.68694019317627,0.043095629662275314,0.0204959437251091,-0.01410759799182415,0.00958251953125
18586367503912,-1.1013327836990356,-9.666589736938477,0.08379705995321274,0.01836649514734745,-0.008517795242369175,0.00692070834338665
18586368741087,-1.071405291557312,-9.674968719482422,0.03232172504067421,0.0204959437251091,-0.012776692397892475,0.00931633822619915
18586369978275,-1.0570400953292847,-9.68574333190918,0.06344634294509888,0.02182685025036335,-0.014373779296875,0.01357523538172245
18586371215462,-1.047463297843933,-9.6618013381958,0.06464345008134842,0.01943122036755085,-0.00692070834338665,0.012510511092841625
18586372452637,-1.0690110921859741,-9.694122314453125,0.0454898327589035,0.0162370465695858,-0.008783976547420025,0.0066545275039970875
18586373689825,-1.0546458959579468,-9.697713851928711,0.04429273307323456,0.0173017717897892,-0.01171196810901165,0.010647243820130825
18586374927012,-1.0833762884140015,-9.702502250671387,0.08140286058187485,0.0173017717897892,-0.01463996060192585,0.0119781494140625
18586376164175,-1.0618284940719604,-9.75158405303955,0.05147533863782883,0.02129448764026165,-0.0114457868039608,0.010647243820130825
18586377401375,-1.0893617868423462,-9.765949249267578,0.061052143573760986,0.01889885775744915,-0.008783976547420025,0.0090501569211483
18586378638550,-1.0570400953292847,-9.767146110534668,0.05267243832349777,0.0234239362180233,-0.0138414166867733,0.00931633822619915
18586379875762,-1.0390836000442505,-9.792284965515137,0.061052143573760986,0.023956298828125,-0.00958251953125,0.01224433071911335
18586381112925,-1.0283095836639404,-9.771934509277344,0.0454898327589035,0.0228915736079216,-0.00958251953125,0.013042873702943325
18586382350087,-1.07379949092865,-9.78869342803955,0.07422025501728058,0.0228915736079216,-0.013309055007994175,0.0167694091796875
18586383587275,-1.0881646871566772,-9.769539833068848,0.08858546614646912,0.01943122036755085,-0.01117960549890995,0.010114881210029125
18586384824450,-1.0618284940719604,-9.7791166305542,0.10893617570400238,0.01943122036755085,-0.0090501569211483,0.010913425125181675
18586386061650,-0.9995791912078857,-9.786299705505371,0.05746084079146385,0.01996358297765255,-0.008251613937318325,0.00958251953125
18586387298812,-1.070208191871643,-9.782708168029785,0.0586579404771328,0.0196974016726017,-0.010114881210029125,0.01463996060192585
18586388536012,-1.0378865003585815,-9.795876502990723,0.09576807171106339,0.02502102218568325,-0.01703559048473835,0.01756795309484005
18586389773187,-1.0522516965866089,-9.77791976928711,0.07422025501728058,0.01996358297765255,-0.012776692397892475,0.013309055007994175
18586391010362,-1.05105459690094,-9.786299705505371,0.05985504388809204,0.0186326764523983,-0.012510511092841625,0.015438503585755825
18586392247575,-1.0259153842926025,-9.799468040466309,0.10295067727565765,0.0181003138422966,-0.01463996060192585,0.012776692397892475
18586393484737,-1.0127472877502441,-9.768342971801758,0.09457096457481384,0.0181003138422966,-0.01171196810901165,0.015438503585755825
18586394721912,-1.0558429956436157,-9.798270225524902,0.16160862147808075,0.01943122036755085,-0.02022976242005825,0.01463996060192585
18586395959100,-1.0366894006729126,-9.781511306762695,0.15562310814857483,0.02129448764026165,-0.0186326764523983,0.01756795309484005
18586397196287,-1.1037269830703735,-9.81143856048584,0.05746084079146385,0.01783413253724575,-0.0173017717897892,0.01783413253724575
18586398433475,-1.0809820890426636,-9.787496566772461,0.06344634294509888,0.02315775491297245,-0.0186326764523983,0.0173017717897892
18586399670662,-1.0642226934432983,-9.824606895446777,0.04668693244457245,0.01943122036755085,-0.013309055007994175,0.01783413253724575
18586400907825,-1.0845733880996704,-9.813833236694336,0.11013327538967133,0.013042873702943325,-0.0186326764523983,0.0173017717897892
18586402145000,-1.070208191871643,-9.81143856048584,0.09816227108240128,0.01463996060192585,-0.0210283063352108,0.0186326764523983
18586403382200,-1.0390836000442505,-9.84615421295166,0.043095629662275314,0.0157046839594841,-0.02022976242005825,0.02981228195130825
18586404619400,-1.05105459690094,-9.821015357971191,0.03950432687997818,0.01943122036755085,-0.0173017717897892,0.02262539230287075
18586405856562,-1.0797849893569946,-9.819818496704102,0.08619125932455063,0.01836649514734745,-0.02262539230287075,0.01756795309484005
18586407093737,-1.0833762884140015,-9.828198432922363,0.08499415963888168,0.0162370465695858,-0.0196974016726017,0.01996358297765255
18586408330912,-1.092953085899353,-9.815030097961426,0.02992752194404602,0.0114457868039608,-0.01171196810901165,0.0204959437251091
18586409568100,-1.1097124814987183,-9.81263542175293,0.0933738648891449,0.015172322280704975,-0.01943122036755085,0.0228915736079216
18586410805287,-1.0857704877853394,-9.825803756713867,0.09217676520347595,0.0114457868039608,-0.02502102218568325,0.0228915736079216
18586412042475,-1.0462661981582642,-9.818621635437012,0.06823474913835526,0.01171196810901165,-0.0220930315554142,0.02129448764026165
18586413279650,-1.091755986213684,-9.840168952941895,0.08619125932455063,0.0138414166867733,-0.0186326764523983,0.023956298828125
18586414516837,-1.113303780555725,-9.780314445495605,0.12928690016269684,0.010913425125181675,-0.0276828333735466,0.0210283063352108
18586415754025,-1.047463297843933,-9.792284965515137,0.1173158809542656,0.013309055007994175,-0.0263519287109375,0.02076212503015995
18586416991212,-1.0426748991012573,-9.763554573059082,0.10534487664699554,0.00931633822619915,-0.02369011752307415,0.02129448764026165
18586418228400,-1.0534487962722778,-9.770737648010254,0.09696517139673233,0.008251613937318325,-0.02848137728869915,0.0210283063352108
18586419465575,-1.0797849893569946,-9.77791976928711,0.11252748221158981,0.0077192517928779125,-0.0268842913210392,0.0223592109978199
18586420702750,-1.0905588865280151,-9.807847023010254,0.10773907601833344,0.0015970865497365594,-0.02182685025036335,0.0210283063352108
18586421939925,-1.0881646871566772,-9.774328231811523,0.12210428714752197,0.0023956298828125,-0.0247548408806324,0.02076212503015995
18586423177112,-1.0534487962722778,-9.749189376831055,0.10893617570400238,0.005589802749454975,-0.0234239362180233,0.02422248013317585
18586424414300,-1.0821791887283325,-9.747992515563965,0.07182604819536209,0.003460354171693325,-0.01943122036755085,0.0276828333735466
18586425651487,-1.0833762884140015,-9.773131370544434,0.08978256583213806,0.0013309054775163531,-0.02262539230287075,0.01996358297765255
18586426888650,-1.0905588865280151,-9.720458984375,0.090979665517807,0.0029279920272529125,-0.02901373989880085,0.02369011752307415
18586428125850,-1.07379949092865,-9.7420072555542,0.1496376097202301,0.003460354171693325,-0.02741665206849575,0.02262539230287075
18586429363037,-1.1109095811843872,-9.718064308166504,0.11611878126859665,0.003460354171693325,-0.0276828333735466,0.02182685025036335
18586430600212,-1.1240776777267456,-9.728838920593262,0.1149216815829277,0.0053236219100654125,-0.02661811001598835,0.015438503585755825
18586431837400,-1.114500880241394,-9.740809440612793,0.10773907601833344,0.0077192517928779125,-0.02794901467859745,0.01650322787463665
18586433074587,-1.0977414846420288,-9.72285270690918,0.11013327538967133,0.005057440605014563,-0.02848137728869915,0.014906140975654125
18586434311762,-1.1444283723831177,-9.713275909423828,0.0933738648891449,0.0039927163161337376,-0.0271504707634449,0.01357523538172245
18586435548937,-1.1552022695541382,-9.71926212310791,0.04788403585553169,-0.0013309054775163531,-0.0244886614382267,0.01463996060192585
18586436786112,-1.092953085899353,-9.71926212310791,0.09576807171106339,0.0042588976211845875,-0.0268842913210392,0.01463996060192585
18586438023312,-1.1288660764694214,-9.736021041870117,0.1280897855758667,0.0053236219100654125,-0.0292799212038517,0.015438503585755825
18586439260512,-1.1420341730117798,-9.727641105651855,0.09696517139673233,0.0018632676219567657,-0.0271504707634449,0.010913425125181675
18586440497687,-1.0905588865280151,-9.767146110534668,0.14245499670505524,0.0023956298828125,-0.02741665206849575,0.012776692397892475
18586441734850,-1.1216834783554077,-9.77672290802002,0.12210428714752197,-0.0002661811013240367,-0.02848137728869915,0.0114457868039608
18586442972037,-1.0642226934432983,-9.763554573059082,0.11851298809051514,-0.0010647244052961469,-0.0252872034907341,0.007453070487827063
18586444209212,-1.1013327836990356,-9.764751434326172,0.1173158809542656,-0.0023956298828125,-0.02848137728869915,0.004791259765625
18586445446387,-1.072602391242981,-9.781511306762695,0.14365209639072418,0.0007985432748682797,-0.0319417305290699,0.0071868896484375
18586446683575,-1.1085153818130493,-9.746795654296875,0.13048399984836578,0.004791259765625,-0.02502102218568325,0.0015970865497365594
18586447920750,-1.1324573755264282,-9.758766174316406,0.12090718746185303,0.0013309054775163531,-0.03087700717151165,0.0
18586449157962,-1.1192892789840698,-9.734824180603027,0.10654197633266449,0.004791259765625,-0.02555338479578495,0.0031941730994731188
18586450395125,-1.1037269830703735,-9.732430458068848,0.11971008777618408,0.0010647244052961469,-0.02502102218568325,0.0021294488105922937
18586451632300,-1.072602391242981,-9.682151794433594,0.11133038252592087,0.004791259765625,-0.02848137728869915,0.00452507846057415
18586452869487,-1.1180921792984009,-9.709685325622559,0.1496376097202301,0.0021294488105922937,-0.0324740931391716,0.0029279920272529125
18586454106675,-1.1312602758407593,-9.713275909423828,0.1364694982767105,0.0015970865497365594,-0.02315775491297245,0.0023956298828125
18586455343862,-1.137245774269104,-9.725247383117676,0.15801730751991272,-0.0002661811013240367,-0.0263519287109375,0.0021294488105922937
18586456581025,-1.095347285270691,-9.706093788146973,0.12928690016269684,0.005057440605014563,-0.033272635191679,-0.0042588976211845875
18586457818237,-1.0809820890426636,-9.700108528137207,0.11851298809051514,0.004791259765625,-0.03087700717151165,-0.0037265352439135313
18586459055387,-1.0666168928146362,-9.679757118225098,0.16879121959209442,0.008251613937318325,-0.03087700717151165,-0.003460354171693325
18586460292587,-1.1001356840133667,-9.710882186889648,0.1364694982767105,0.008251613937318325,-0.03034464456140995,0.0002661811013240367
18586461529775,-1.1444283723831177,-9.673771858215332,0.11611878126859665,0.0066545275039970875,-0.0311431884765625,0.0023956298828125
18586462766962,-1.1121066808700562,-9.692925453186035,0.14844051003456116,0.008783976547420025,-0.0354020856320858,0.0
18586464004125,-1.0797849893569946,-9.71926212310791,0.14604631066322327,0.010114881210029125,-0.038063894957304,0.0021294488105922937
18586465241312,-1.1025298833847046,-9.701305389404297,0.1867477297782898,0.010913425125181675,-0.0330064557492733,-0.0021294488105922937
18586466478500,-1.0965443849563599,-9.710882186889648,0.12928690016269684,0.00931633822619915,-0.0276828333735466,-0.0013309054775163531
18586467715687,-1.1049240827560425,-9.667786598205566,0.10893617570400238,0.01171196810901165,-0.02848137728869915,0.0031941730994731188
18586468952862,-1.0977414846420288,-9.736021041870117,0.10055647045373917,0.01357523538172245,-0.02502102218568325,-0.0010647244052961469
18586470190037,-1.1097124814987183,-9.716867446899414,0.11971008777618408,0.00958251953125,-0.0271504707634449,-0.005589802749454975
18586471427225,-1.072602391242981,-9.710882186889648,0.10534487664699554,0.01117960549890995,-0.02741665206849575,-0.0010647244052961469
18586472664425,-1.1085153818130493,-9.714473724365234,0.09217676520347595,0.00984870083630085,-0.0282151959836483,-0.0026618109550327063
18586473901587,-1.114500880241394,-9.702502250671387,0.11611878126859665,0.008517795242369175,-0.0282151959836483,-0.0029279920272529125
18586475138787,-1.1240776777267456,-9.726444244384766,0.10055647045373917,0.00692070834338665,-0.0292799212038517,-0.0018632676219567657
18586476375962,-1.1348515748977661,-9.71926212310791,0.06344634294509888,0.0114457868039608,-0.0258195661008358,0.0
18586477613150,-1.1755530834197998,-9.738415718078613,0.12689268589019775,0.0167694091796875,-0.02661811001598835,0.0005323622026480734
18586478850337,-1.137245774269104,-9.738415718078613,0.1149216815829277,0.01171196810901165,-0.02901373989880085,-0.0039927163161337376
18586480087487,-1.1408370733261108,-9.75397777557373,0.11252748221158981,0.01463996060192585,-0.0300784632563591,-0.0042588976211845875
18586481324687,-1.114500880241394,-9.730035781860352,0.1364694982767105,0.014906140975654125,-0.02555338479578495,-0.005057440605014563
18586482561875,-1.1192892789840698,-9.791088104248047,0.16160862147808075,0.013309055007994175,-0.02661811001598835,-0.0037265352439135313
18586483799062,-1.1528080701828003,-9.756372451782227,0.15682020783424377,0.0138414166867733,-0.02848137728869915,-0.0018632676219567657
18586485036225,-1.1037269830703735,-9.714473724365234,0.10893617570400238,0.012776692397892475,-0.0311431884765625,-0.0037265352439135313
18586486273412,-1.1492167711257935,-9.737218856811523,0.12928690016269684,0.0119781494140625,-0.0263519287109375,-0.0029279920272529125
18586487510612,-1.1240776777267456,-9.6989107131958,0.090979665517807,0.013042873702943325,-0.02874755859375,-0.0031941730994731188
18586488747787,-1.1228805780410767,-9.749189376831055,0.1149216815829277,0.01410759799182415,-0.02981228195130825,0.0007985432748682797
18586489984975,-1.1049240827560425,-9.750386238098145,0.13287819921970367,0.01357523538172245,-0.0268842913210392,0.0013309054775163531
18586491222150,-1.1288660764694214,-9.764751434326172,0.14844051003456116,0.012776692397892475,-0.0252872034907341,-0.005057440605014563
18586492459350,-1.0869675874710083,-9.744400978088379,0.09696517139673233,0.01224433071911335,-0.02661811001598835,-0.0029279920272529125
18586493696512,-1.1025298833847046,-9.787496566772461,0.15562310814857483,0.00931633822619915,-0.0295461006462574,0.0029279920272529125
18586494933700,-1.1192892789840698,-9.786299705505371,0.10654197633266449,0.0157046839594841,-0.02555338479578495,0.0018632676219567657
18586496170887,-1.115697979927063,-9.785102844238281,0.11372458189725876,0.014906140975654125,-0.02502102218568325,0.0037265352439135313
18586497408062,-1.0905588865280151,-9.768342971801758,0.13287819921970367,0.0114457868039608,-0.01943122036755085,0.0021294488105922937
18586498645237,-1.1025298833847046,-9.745597839355469,0.13168109953403473,0.0119781494140625,-0.0220930315554142,-0.0029279920272529125
18586499882425,-1.0869675874710083,-9.749189376831055,0.12090718746185303,0.0138414166867733,-0.0220930315554142,-0.0029279920272529125
18586501119600,-1.1312602758407593,-9.736021041870117,0.11971008777618408,0.01357523538172245,-0.02555338479578495,-0.0037265352439135313
18586502356800,-1.092953085899353,-9.756372451782227,0.13766659796237946,0.0119781494140625,-0.0210283063352108,0.0021294488105922937
18586503593975,-1.1109095811843872,-9.763554573059082,0.12449848651885986,0.008783976547420025,-0.0196974016726017,0.0037265352439135313
18586504831162,-1.1516109704971313,-9.75517463684082,0.11013327538967133,0.008251613937318325,-0.0162370465695858,0.0023956298828125
18586506068337,-1.116895079612732,-9.785102844238281,0.08738835901021957,0.013042873702943325,-0.02182685025036335,-0.0013309054775163531
18586507305525,-1.070208191871643,-9.75517463684082,0.11372458189725876,0.0162370465695858,-0.023956298828125,-0.0018632676219567657
18586508542700,-1.0977414846420288,-9.768342971801758,0.13287819921970367,0.01597086526453495,-0.0234239362180233,0.005855984054505825
18586509779875,-1.0965443849563599,-9.822212219238281,0.1604115217924118,0.013042873702943325,-0.01943122036755085,0.0031941730994731188
18586511017062,-1.0989385843276978,-9.75397777557373,0.09696517139673233,0.008251613937318325,-0.01943122036755085,0.0013309054775163531
18586512254237,-1.1348515748977661,-9.764751434326172,0.08858546614646912,0.008783976547420025,-0.0215606689453125,0.0021294488105922937
18586513491425,-1.1073182821273804,-9.732430458068848,0.11372458189725876,0.0167694091796875,-0.02129448764026165,0.0026618109550327063
18586514728612,-1.1444283723831177,-9.795876502990723,0.11133038252592087,0.0138414166867733,-0.0167694091796875,0.003460354171693325
18586515965812,-1.1025298833847046,-9.791088104248047,0.07661445438861847,0.013042873702943325,-0.0204959437251091,-0.005589802749454975
18586517202987,-1.1204863786697388,-9.7791166305542,0.08858546614646912,0.00984870083630085,-0.0186326764523983,-0.0007985432748682797
18586518440162,-1.1061211824417114,-9.807847023010254,0.11851298809051514,0.007453070487827063,-0.0167694091796875,0.003460354171693325
18586519677350,-1.136048674583435,-9.761160850524902,0.1173158809542656,0.0042588976211845875,-0.0162370465695858,0.0039927163161337376
18586520914525,-1.1240776777267456,-9.77791976928711,0.12090718746185303,0.00452507846057415,-0.01117960549890995,0.0015970865497365594
18586522151687,-1.1288660764694214,-9.78869342803955,0.13048399984836578,0.008251613937318325,-0.0119781494140625,0.00452507846057415
18586523388887,-1.1252747774124146,-9.767146110534668,0.12330138683319092,0.0063883461989462376,-0.00958251953125,0.0002661811013240367
18586524626062,-1.136048674583435,-9.77552604675293,0.15322890877723694,0.005589802749454975,-0.00984870083630085,-0.0015970865497365594
18586525863250,-1.0977414846420288,-9.765949249267578,0.14245499670505524,0.0018632676219567657,-0.013042873702943325,-0.0018632676219567657
18586527100425,-1.0977414846420288,-9.762357711791992,0.13168109953403473,0.0021294488105922937,-0.0173017717897892,-0.0018632676219567657
18586528337612,-1.0869675874710083,-9.759963035583496,0.11611878126859665,-0.0007985432748682797,-0.0114457868039608,0.0005323622026480734
18586529574812,-1.1049240827560425,-9.71926212310791,0.12210428714752197,0.0042588976211845875,-0.0090501569211483,0.0026618109550327063
18586530812000,-1.1300631761550903,-9.749189376831055,0.11252748221158981,0.006122165359556675,-0.0114457868039608,0.0023956298828125
18586532049175,-1.0797849893569946,-9.715670585632324,0.1496376097202301,0.0023956298828125,-0.008251613937318325,0.0
18586533286350,-1.1216834783554077,-9.730035781860352,0.14844051003456116,0.0063883461989462376,-0.01756795309484005,0.0007985432748682797
18586534523537,-1.1420341730117798,-9.700108528137207,0.11252748221158981,0.0037265352439135313,-0.01171196810901165,0.003460354171693325
18586535760712,-1.0809820890426636,-9.733627319335938,0.12689268589019775,0.006122165359556675,-0.007453070487827063,0.0005323622026480734
18586536997875,-1.1025298833847046,-9.709685325622559,0.1173158809542656,0.0071868896484375,-0.008783976547420025,0.0
18586538235075,-1.1121066808700562,-9.712079048156738,0.08499415963888168,0.0039927163161337376,-0.01117960549890995,0.0039927163161337376
18586539472275,-1.1097124814987183,-9.707290649414062,0.15322890877723694,0.007985432632267475,-0.006122165359556675,0.0018632676219567657
18586540709437,-1.0821791887283325,-9.728838920593262,0.11252748221158981,0.0077192517928779125,-0.00452507846057415,0.0037265352439135313
18586541946637,-1.071405291557312,-9.75517463684082,0.12210428714752197,0.0029279920272529125,-0.0090501569211483,0.0010647244052961469
18586543183812,-1.0654197931289673,-9.75397777557373,0.12449848651885986,0.0053236219100654125,-0.008517795242369175,0.0042588976211845875
18586544420975,-1.0773907899856567,-9.757569313049316,0.11372458189725876,0.00958251953125,-0.004791259765625,-0.0015970865497365594
18586545658175,-1.0797849893569946,-9.761160850524902,0.07541735470294952,0.00958251953125,-0.005589802749454975,0.0002661811013240367
18586546895350,-1.0414777994155884,-9.757569313049316,0.15442600846290588,0.0063883461989462376,-0.007453070487827063,-0.0021294488105922937
18586548132525,-1.071405291557312,-9.72165584564209,0.15562310814857483,0.005057440605014563,-0.00452507846057415,0.0
18586549369700,-1.049857497215271,-9.77672290802002,0.1472434103488922,0.00931633822619915,-0.006122165359556675,0.0010647244052961469
18586550606900,-1.0462661981582642,-9.733627319335938,0.16160862147808075,0.0090501569211483,-0.006122165359556675,0.0
18586551844087,-1.047463297843933,-9.677363395690918,0.16639702022075653,0.007453070487827063,-0.01117960549890995,0.00452507846057415
18586553081262,-1.0438719987869263,-9.712079048156738,0.1759738326072693,0.00958251953125,-0.0021294488105922937,-0.0029279920272529125
18586554318450,-1.0594342947006226,-9.671378135681152,0.14484921097755432,0.0071868896484375,-0.0031941730994731188,0.0015970865497365594
18586555555625,-1.072602391242981,-9.708487510681152,0.17717093229293823,0.007453070487827063,-0.0066545275039970875,-0.003460354171693325
18586556792800,-1.0271124839782715,-9.643844604492188,0.17238251864910126,0.00958251953125,-0.005589802749454975,-0.00452507846057415
18586558030000,-1.047463297843933,-9.616311073303223,0.17836803197860718,0.01650322787463665,-0.005057440605014563,-0.00452507846057415
18586559267175,-1.0319008827209473,-9.617507934570312,0.1711854189634323,0.01836649514734745,-0.00931633822619915,0.0007985432748682797
18586560504362,-1.0247182846069336,-9.59476375579834,0.17956513166427612,0.0119781494140625,-0.0063883461989462376,-0.0018632676219567657
18586561741537,-1.016338586807251,-9.582792282104492,0.20470423996448517,0.01224433071911335,-0.0018632676219567657,-0.0042588976211845875
18586562978725,-1.0235211849212646,-9.560047149658203,0.1412578970193863,0.0114457868039608,-0.0063883461989462376,-0.0026618109550327063
18586564215900,-1.0319008827209473,-9.563638687133789,0.11372458189725876,0.01171196810901165,-0.0071868896484375,0.0
18586565453087,-1.0426748991012573,-9.57441234588623,0.15921440720558167,0.01357523538172245,-0.008251613937318325,0.003460354171693325
18586566690275,-1.0450690984725952,-9.59596061706543,0.13168109953403473,0.01650322787463665,-0.010114881210029125,0.0002661811013240367
18586567927462,-1.0043675899505615,-9.59715747833252,0.152031809091568,0.0191650390625,-0.008517795242369175,0.0010647244052961469
18586569164650,-1.0199298858642578,-9.63067626953125,0.10893617570400238,0.0210283063352108,-0.007985432632267475,0.0018632676219567657
18586570401812,-1.1013327836990356,-9.701305389404297,0.06584054976701736,0.014906140975654125,-0.0053236219100654125,-0.0018632676219567657
18586571639000,-1.0414777994155884,-9.690531730651855,0.09935937076807022,0.0196974016726017,-0.0042588976211845875,-0.0021294488105922937
18586572876187,-1.0127472877502441,-9.72165584564209,0.1173158809542656,0.02369011752307415,-0.01171196810901165,0.0026618109550327063
18586574113362,-1.01753568649292,-9.765949249267578,0.07900865375995636,0.0263519287109375,-0.01224433071911335,0.0066545275039970875
18586575350537,-1.0115501880645752,-9.770737648010254,0.11133038252592087,0.0268842913210392,-0.014373779296875,-0.0007985432748682797
18586576587737,-1.0354923009872437,-9.783905029296875,0.12210428714752197,0.0196974016726017,-0.010114881210029125,-0.0026618109550327063
18586577824900,-1.0618284940719604,-9.797073364257812,0.15562310814857483,0.02422248013317585,-0.007985432632267475,0.003460354171693325
18586579062112,-1.0115501880645752,-9.841365814208984,0.14844051003456116,0.0263519287109375,-0.008783976547420025,0.0037265352439135313
18586580299275,-1.016338586807251,-9.849745750427246,0.12090718746185303,0.02422248013317585,-0.013042873702943325,0.0010647244052961469
18586581536475,-1.0354923009872437,-9.831789016723633,0.1280897855758667,0.0234239362180233,-0.00931633822619915,0.0018632676219567657
18586582773650,-1.0103530883789062,-9.80904483795166,0.14245499670505524,0.0220930315554142,-0.0071868896484375,0.004791259765625
18586584010812,-1.071405291557312,-9.841365814208984,0.15562310814857483,0.02182685025036335,-0.012510511092841625,0.005855984054505825
18586585248000,-1.0055646896362305,-9.815030097961426,0.14006079733371735,0.02608574740588665,-0.01357523538172245,0.006122165359556675
18586586485175,-1.0199298858642578,-9.815030097961426,0.16400282084941864,0.0204959437251091,-0.0090501569211483,0.008783976547420025
18586587722362,-1.015141487121582,-9.816226959228516,0.1999158412218094,0.0157046839594841,-0.015172322280704975,0.007985432632267475
18586588959550,-1.0354923009872437,-9.783905029296875,0.1711854189634323,0.02262539230287075,-0.01117960549890995,0.0090501569211483
18586590196762,-1.0450690984725952,-9.816226959228516,0.1496376097202301,0.02076212503015995,-0.01463996060192585,0.00931633822619915
18586591433925,-0.9900023937225342,-9.81263542175293,0.16759411990642548,0.01996358297765255,-0.01783413253724575,0.0114457868039608
18586592671112,-0.9768342971801758,-9.782708168029785,0.1951274424791336,0.01783413253724575,-0.014373779296875,0.0063883461989462376
18586593908275,-0.9828197956085205,-9.746795654296875,0.15682020783424377,0.01889885775744915,-0.014906140975654125,0.0090501569211483
18586595145487,-1.0187327861785889,-9.758766174316406,0.16879121959209442,0.02076212503015995,-0.0157046839594841,0.0114457868039608
18586596382662,-1.0247182846069336,-9.7420072555542,0.1388636976480484,0.02022976242005825,-0.02182685025036335,0.00984870083630085
18586597619825,-1.0103530883789062,-9.725247383117676,0.1280897855758667,0.01756795309484005,-0.02182685025036335,0.0114457868039608
18586598857012,-1.0055646896362305,-9.773131370544434,0.15921440720558167,0.02315775491297245,-0.02262539230287075,0.01463996060192585
18586600094187,-1.0546458959579468,-9.756372451782227,0.15442600846290588,0.0258195661008358,-0.02022976242005825,0.00958251953125
18586601331387,-1.049857497215271,-9.786299705505371,0.1412578970193863,0.02022976242005825,-0.01943122036755085,0.012776692397892475
18586602568562,-1.0606313943862915,-9.81263542175293,0.15682020783424377,0.01756795309484005,-0.0228915736079216,0.00931633822619915
18586603805762,-1.0055646896362305,-9.786299705505371,0.13527239859104156,0.01597086526453495,-0.02262539230287075,0.01357523538172245
18586605042950,-1.0115501880645752,-9.800664901733398,0.18315643072128296,0.01117960549890995,-0.02315775491297245,0.012510511092841625
18586606280112,-1.0402806997299194,-9.831789016723633,0.18076223134994507,0.012510511092841625,-0.02369011752307415,0.01357523538172245
18586607517300,-1.0307037830352783,-9.838972091674805,0.1280897855758667,0.0162370465695858,-0.02369011752307415,0.013042873702943325
18586608754487,-1.0749965906143188,-9.801861763000488,0.1711854189634323,0.0162370465695858,-0.0263519287109375,0.01224433071911335
18586609991675,-1.0977414846420288,-9.823410034179688,0.1735796183347702,0.014906140975654125,-0.0228915736079216,0.010647243820130825
18586611228862,-1.0821791887283325,-9.815030097961426,0.14844051003456116,0.0138414166867733,-0.023956298828125,0.0071868896484375
18586612466025,-1.0546458959579468,-9.847352027893066,0.16759411990642548,0.01224433071911335,-0.0244886614382267,0.0037265352439135313
18586613703237,-1.048660397529602,-9.84615421295166,0.15322890877723694,0.0114457868039608,-0.02502102218568325,0.0021294488105922937
18586614940400,-1.0618284940719604,-9.861717224121094,0.16160862147808075,0.008783976547420025,-0.02741665206849575,0.006122165359556675
18586616177575,-1.0749965906143188,-9.84615421295166,0.15801730751991272,0.01117960549890995,-0.0268842913210392,0.005855984054505825
18586617414750,-1.0773907899856567,-9.817423820495605,0.16519992053508759,0.005855984054505825,-0.02981228195130825,0.00692070834338665
18586618651950,-1.0606313943862915,-9.824606895446777,0.15322890877723694,0.0037265352439135313,-0.0276828333735466,0.006122165359556675
18586619889137,-1.0534487962722778,-9.77791976928711,0.15921440720558167,0.005589802749454975,-0.0234239362180233,0.0029279920272529125
18586621126300,-1.071405291557312,-9.795876502990723,0.21188685297966003,0.0031941730994731188,-0.0282151959836483,0.00452507846057415
18586622363475,-1.0103530883789062,-9.838972091674805,0.16160862147808075,0.0021294488105922937,-0.02981228195130825,0.0005323622026480734
18586623600687,-1.0007762908935547,-9.84615421295166,0.17477671802043915,0.0007985432748682797,-0.02981228195130825,0.0
18586624837862,-1.0534487962722778,-9.84376049041748,0.16400282084941864,-0.0002661811013240367,-0.0314093679189682,-0.0002661811013240367
18586626075062,-1.0319008827209473,-9.81263542175293,0.181959331035614,-0.0010647244052961469,-0.0322079136967659,0.00692070834338665
18586627312212,-1.0845733880996704,-9.806650161743164,0.22266076505184174,0.0023956298828125,-0.0324740931391716,0.0066545275039970875
18586628549412,-1.0259153842926025,-9.824606895446777,0.18914192914962769,0.005855984054505825,-0.033538818359375,0.00931633822619915
18586629786575,-0.9971849918365479,-9.823410034179688,0.16639702022075653,-0.0002661811013240367,-0.02981228195130825,0.0023956298828125
18586631023775,-1.0390836000442505,-9.801861763000488,0.16639702022075653,0.0005323622026480734,-0.0346035435795784,0.0029279920272529125
18586632260950,-1.0031704902648926,-9.782708168029785,0.14604631066322327,0.0002661811013240367,-0.0375315360724926,0.00452507846057415
18586633498125,-1.0354923009872437,-9.771934509277344,0.18794482946395874,-0.0023956298828125,-0.0316755510866642,0.007985432632267475
18586634735312,-1.048660397529602,-9.813833236694336,0.12928690016269684,-0.0039927163161337376,-0.0295461006462574,0.005855984054505825
18586635972487,-1.05105459690094,-9.771934509277344,0.16160862147808075,-0.003460354171693325,-0.0354020856320858,0.0031941730994731188
18586637209675,-1.094150185585022,-9.77672290802002,0.14245499670505524,-0.007985432632267475,-0.0319417305290699,0.0021294488105922937
18586638446875,-1.0546458959579468,-9.739612579345703,0.14484921097755432,-0.0023956298828125,-0.0348697230219841,0.005057440605014563
18586639684050,-1.05105459690094,-9.780314445495605,0.14604631066322327,-0.007453070487827063,-0.0372653529047966,-0.0005323622026480734
18586640921237,-1.0450690984725952,-9.731232643127441,0.13766659796237946,-0.00692070834338665,-0.0367329902946949,0.0023956298828125
18586642158412,-1.0606313943862915,-9.785102844238281,0.152031809091568,-0.0053236219100654125,-0.0372653529047966,0.006122165359556675
18586643395612,-1.0522516965866089,-9.77791976928711,0.1735796183347702,-0.0042588976211845875,-0.0359344482421875,0.005855984054505825
18586644632775,-1.0654197931289673,-9.744400978088379,0.14006079733371735,-0.01117960549890995,-0.033538818359375,0.003460354171693325
18586645869962,-1.0678139925003052,-9.761160850524902,0.15083470940589905,-0.0071868896484375,-0.0375315360724926,0.0005323622026480734
18586647107137,-1.0821791887283325,-9.7420072555542,0.152031809091568,-0.0039927163161337376,-0.0412580706179142,0.0010647244052961469
18586648344312,-1.0690110921859741,-9.764751434326172,0.15801730751991272,-0.005057440605014563,-0.0346035435795784,0.005855984054505825
18586649581512,-1.0522516965866089,-9.75397777557373,0.15921440720558167,-0.007985432632267475,-0.0391286201775074,0.004791259765625
18586650818687,-1.0127472877502441,-9.77672290802002,0.15322890877723694,-0.007985432632267475,-0.0393948033452034,0.0071868896484375
18586652055887,-1.0749965906143188,-9.757569313049316,0.17477671802043915,-0.0042588976211845875,-0.038063894957304,0.004791259765625
18586653293075,-1.0893617868423462,-9.713275909423828,0.14844051003456116,-0.005589802749454975,-0.0369991734623909,0.003460354171693325
18586654530237,-1.0438719987869263,-9.730035781860352,0.20470423996448517,-0.008517795242369175,-0.0391286201775074,0.0013309054775163531
18586655767412,-1.015141487121582,-9.730035781860352,0.18076223134994507,-0.005855984054505825,-0.0377977155148983,0.0026618109550327063
18586657004612,-1.0773907899856567,-9.727641105651855,0.16160862147808075,-0.0029279920272529125,-0.0356682650744915,0.0018632676219567657
18586658241812,-1.1013327836990356,-9.75517463684082,0.17238251864910126,-0.005057440605014563,-0.0359344482421875,0.0026618109550327063
18586659478975,-1.1276689767837524,-9.713275909423828,0.18794482946395874,-0.00692070834338665,-0.0399271659553051,0.008251613937318325
18586660716150,-1.071405291557312,-9.731232643127441,0.14484921097755432,-0.003460354171693325,-0.0356682650744915,0.0077192517928779125
18586661953337,-1.1420341730117798,-9.746795654296875,0.14365209639072418,0.0031941730994731188,-0.0391286201775074,0.0023956298828125
18586663190525,-1.1324573755264282,-9.75158405303955,0.17238251864910126,-0.0042588976211845875,-0.0420566126704216,0.0063883461989462376
18586664427687,-1.070208191871643,-9.7420072555542,0.18914192914962769,-0.0063883461989462376,-0.0439198799431324,0.0029279920272529125
18586665664887,-1.1408370733261108,-9.715670585632324,0.16879121959209442,-0.006122165359556675,-0.0417904332280159,0.0029279920272529125
18586666902062,-1.1480196714401245,-9.750386238098145,0.16998831927776337,-0.004791259765625,-0.0401933453977108,0.0039927163161337376
18586668139262,-1.1049240827560425,-9.733627319335938,0.14844051003456116,0.0005323622026480734,-0.0359344482421875,0.005589802749454975
18586669376412,-1.1109095811843872,-9.6989107131958,0.18794482946395874,-0.005057440605014563,-0.0367329902946949,0.0
18586670613612,-1.071405291557312,-9.713275909423828,0.2106897532939911,-0.0077192517928779125,-0.0359344482421875,0.0018632676219567657
18586671850800,-1.07379949092865,-9.714473724365234,0.15442600846290588,-0.006122165359556675,-0.0338049978017807,0.0023956298828125
18586673087975,-1.1001356840133667,-9.71926212310791,0.16998831927776337,-0.0029279920272529125,-0.0348697230219841,-0.0037265352439135313
18586674325150,-1.1037269830703735,-9.730035781860352,0.20111294090747833,-0.0066545275039970875,-0.0316755510866642,-0.0015970865497365594
18586675562337,-1.1456254720687866,-9.718064308166504,0.1472434103488922,-0.0031941730994731188,-0.0359344482421875,0.0013309054775163531
18586676799537,-1.115697979927063,-9.709685325622559,0.16160862147808075,-0.0063883461989462376,-0.02741665206849575,0.0013309054775163531
18586678036725,-1.114500880241394,-9.682151794433594,0.09457096457481384,-0.004791259765625,-0.02901373989880085,0.0039927163161337376
18586679273875,-1.0833762884140015,-9.684545516967773,0.19153614342212677,-0.0053236219100654125,-0.0300784632563591,0.0066545275039970875
18586680511075,-1.1180921792984009,-9.696516990661621,0.1256955862045288,-0.006122165359556675,-0.0244886614382267,0.0007985432748682797
18586681748250,-1.137245774269104,-9.736021041870117,0.14245499670505524,0.0031941730994731188,-0.02794901467859745,0.0002661811013240367
18586682985425,-1.138442873954773,-9.718064308166504,0.13048399984836578,0.00452507846057415,-0.0276828333735466,0.0002661811013240367
18586684222637,-1.1240776777267456,-9.72165584564209,0.12689268589019775,0.0005323622026480734,-0.0276828333735466,0.0042588976211845875
18586685459787,-1.1192892789840698,-9.732430458068848,0.1472434103488922,0.0002661811013240367,-0.0282151959836483,0.0042588976211845875
18586686696987,-1.1516109704971313,-9.756372451782227,0.17238251864910126,0.0039927163161337376,-0.023956298828125,0.003460354171693325
18586687934175,-1.1587936878204346,-9.734824180603027,0.15921440720558167,0.0029279920272529125,-0.02502102218568325,0.008783976547420025
18586689171350,-1.1276689767837524,-9.739612579345703,0.1364694982767105,0.005057440605014563,-0.02422248013317585,0.008783976547420025
18586690408537,-1.115697979927063,-9.728838920593262,0.19273324310779572,0.0018632676219567657,-0.023956298828125,0.0007985432748682797
18586691645712,-1.1216834783554077,-9.757569313049316,0.15442600846290588,-0.0042588976211845875,-0.02076212503015995,0.0005323622026480734
18586692882912,-1.1228805780410767,-9.7791166305542,0.13287819921970367,0.00452507846057415,-0.02129448764026165,0.0005323622026480734
18586694120087,-1.115697979927063,-9.725247383117676,0.14844051003456116,0.0023956298828125,-0.0244886614382267,0.00692070834338665
18586695357287,-1.1049240827560425,-9.739612579345703,0.11013327538967133,0.0026618109550327063,-0.0215606689453125,0.0066545275039970875
18586696594450,-1.1073182821273804,-9.758766174316406,0.14844051003456116,0.0042588976211845875,-0.01783413253724575,0.005057440605014563
18586697831637,-1.115697979927063,-9.767146110534668,0.15442600846290588,0.0039927163161337376,-0.0191650390625,0.005589802749454975
18586699068812,-1.1408370733261108,-9.734824180603027,0.18914192914962769,0.0053236219100654125,-0.0223592109978199,0.008783976547420025
18586700306000,-1.1300631761550903,-9.746795654296875,0.1472434103488922,-0.0013309054775163531,-0.015438503585755825,-0.0013309054775163531
18586701543200,-1.1575965881347656,-9.718064308166504,0.1628057211637497,0.0037265352439135313,-0.0173017717897892,0.0010647244052961469
18586702780350,-1.1324573755264282,-9.701305389404297,0.16160862147808075,0.005855984054505825,-0.01756795309484005,0.0063883461989462376
18586704017550,-1.1192892789840698,-9.6618013381958,0.1280897855758667,0.005589802749454975,-0.013309055007994175,0.005057440605014563
18586705254725,-1.1528080701828003,-9.691728591918945,0.1472434103488922,0.00452507846057415,-0.0157046839594841,0.0018632676219567657
18586706491912,-1.1324573755264282,-9.702502250671387,0.12928690016269684,0.0037265352439135313,-0.01836649514734745,0.005057440605014563
18586707729087,-1.114500880241394,-9.704896926879883,0.17717093229293823,0.0063883461989462376,-0.013042873702943325,0.0037265352439135313
18586708966275,-1.1216834783554077,-9.700108528137207,0.06823474913835526,0.00692070834338665,-0.010114881210029125,0.0053236219100654125
18586710203475,-1.1085153818130493,-9.712079048156738,0.13766659796237946,0.00692070834338665,-0.01357523538172245,0.0063883461989462376
18586711440637,-1.0761936902999878,-9.708487510681152,0.13766659796237946,0.008517795242369175,-0.01410759799182415,0.0053236219100654125
18586712677837,-1.1683704853057861,-9.636661529541016,0.09576807171106339,0.00958251953125,-0.0119781494140625,0.004791259765625
18586713915025,-1.1492167711257935,-9.634267807006836,0.16400282084941864,0.01117960549890995,-0.0090501569211483,0.008517795242369175
18586715152200,-1.137245774269104,-9.66539192199707,0.15801730751991272,0.013042873702943325,-0.01410759799182415,0.0066545275039970875
18586716389387,-1.139639973640442,-9.677363395690918,0.13168109953403473,0.013309055007994175,-0.008517795242369175,0.0063883461989462376
18586717626575,-1.092953085899353,-9.701305389404297,0.14844051003456116,0.0090501569211483,0.0,0.0029279920272529125
18586718863750,-1.1061211824417114,-9.667786598205566,0.14604631066322327,0.00931633822619915,-0.00452507846057415,0.0053236219100654125
18586720100925,-1.091755986213684,-9.677363395690918,0.11013327538967133,0.014373779296875,-0.0077192517928779125,0.008517795242369175
18586721338125,-1.0965443849563599,-9.690531730651855,0.09217676520347595,0.0138414166867733,-0.007453070487827063,0.008783976547420025
18586722575300,-1.094150185585022,-9.736021041870117,0.13048399984836578,0.013042873702943325,-0.0077192517928779125,0.008783976547420025
18586723812487,-1.1025298833847046,-9.716867446899414,0.16160862147808075,0.0138414166867733,-0.004791259765625,0.010647243820130825
18586725049662,-1.116895079612732,-9.710882186889648,0.11971008777618408,0.0157046839594841,-0.0077192517928779125,0.00452507846057415
18586726286837,-1.072602391242981,-9.720458984375,0.12449848651885986,0.0114457868039608,-0.004791259765625,0.008783976547420025
18586727524037,-1.116895079612732,-9.720458984375,0.12449848651885986,0.015438503585755825,-0.0037265352439135313,0.010381062515079975
18586728761212,-1.1276689767837524,-9.75397777557373,0.12210428714752197,0.013309055007994175,-0.0021294488105922937,0.00931633822619915
18586729998400,-1.1312602758407593,-9.7420072555542,0.1388636976480484,0.01836649514734745,-0.0023956298828125,0.01224433071911335
18586731235575,-1.1025298833847046,-9.739612579345703,0.16759411990642548,0.01996358297765255,-0.0039927163161337376,0.01117960549890995
18586732472750,-1.0821791887283325,-9.75278091430664,0.14245499670505524,0.015438503585755825,-0.0010647244052961469,0.01117960549890995
18586733709937,-1.0977414846420288,-9.800664901733398,0.1472434103488922,0.010913425125181675,-0.006122165359556675,0.00958251953125
18586734947137,-1.1252747774124146,-9.807847023010254,0.12449848651885986,0.010913425125181675,-0.005855984054505825,0.01117960549890995
18586736184325,-1.1001356840133667,-9.762357711791992,0.16160862147808075,0.015172322280704975,0.0018632676219567657,0.00692070834338665
18586737421500,-1.095347285270691,-9.746795654296875,0.1472434103488922,0.01357523538172245,0.00452507846057415,0.010647243820130825
18586738658675,-1.114500880241394,-9.804256439208984,0.14604631066322327,0.012776692397892475,0.0018632676219567657,0.014906140975654125
18586739895850,-1.136048674583435,-9.786299705505371,0.14365209639072418,0.015438503585755825,0.0005323622026480734,0.02076212503015995
18586741133037,-1.070208191871643,-9.764751434326172,0.13287819921970367,0.0157046839594841,0.0015970865497365594,0.01117960549890995
18586742370212,-1.047463297843933,-9.769539833068848,0.1412578970193863,0.0138414166867733,-0.0010647244052961469,0.010381062515079975
18586743607412,-1.0845733880996704,-9.798270225524902,0.1388636976480484,0.01410759799182415,0.004791259765625,0.0119781494140625
18586744844600,-1.1204863786697388,-9.80904483795166,0.12689268589019775,0.01224433071911335,0.0015970865497365594,0.00984870083630085
18586746081775,-1.1240776777267456,-9.792284965515137,0.14365209639072418,0.01224433071911335,0.0018632676219567657,0.01117960549890995
18586747318950,-1.0869675874710083,-9.806650161743164,0.14365209639072418,0.010114881210029125,0.0015970865497365594,0.012510511092841625
18586748556137,-1.049857497215271,-9.795876502990723,0.18555063009262085,0.00958251953125,-0.0023956298828125,0.01410759799182415
18586749793312,-1.1025298833847046,-9.824606895446777,0.16519992053508759,0.010913425125181675,-0.0053236219100654125,0.01357523538172245
18586751030512,-1.1073182821273804,-9.81263542175293,0.13168109953403473,0.007985432632267475,0.0031941730994731188,0.013309055007994175
18586752267687,-1.0630255937576294,-9.819818496704102,0.15442600846290588,0.01224433071911335,0.0018632676219567657,0.010913425125181675
18586753504862,-1.047463297843933,-9.815030097961426,0.152031809091568,0.010913425125181675,0.0026618109550327063,0.0119781494140625
18586754742062,-1.0690110921859741,-9.828198432922363,0.1867477297782898,0.008517795242369175,0.006122165359556675,0.010114881210029125
18586755979250,-1.048660397529602,-9.853337287902832,0.1604115217924118,0.010913425125181675,0.0031941730994731188,0.01783413253724575
18586757216412,-1.0330979824066162,-9.792284965515137,0.1867477297782898,0.008783976547420025,0.0010647244052961469,0.01836649514734745
18586758453600,-1.0666168928146362,-9.798270225524902,0.17477671802043915,0.008517795242369175,0.0010647244052961469,0.00931633822619915
18586759690787,-1.0618284940719604,-9.78869342803955,0.18794482946395874,0.008251613937318325,0.005057440605014563,0.01117960549890995
18586760927962,-1.0761936902999878,-9.780314445495605,0.16879121959209442,0.0090501569211483,0.00452507846057415,0.01463996060192585
18586762165150,-1.0690110921859741,-9.732430458068848,0.17477671802043915,0.00452507846057415,0.0031941730994731188,0.010913425125181675
18586763402337,-1.0450690984725952,-9.743204116821289,0.16879121959209442,0.0053236219100654125,-0.0026618109550327063,0.0196974016726017
18586764639512,-1.0223240852355957,-9.747992515563965,0.15682020783424377,0.00692070834338665,-0.0002661811013240367,0.01836649514734745
18586765876712,-1.0534487962722778,-9.762357711791992,0.1472434103488922,0.008251613937318325,-0.0021294488105922937,0.0220930315554142
18586767113887,-1.05105459690094,-9.780314445495605,0.20949265360832214,0.010913425125181675,-0.0026618109550327063,0.0228915736079216
18586768351050,-1.0522516965866089,-9.75517463684082,0.16639702022075653,0.0090501569211483,-0.0010647244052961469,0.012510511092841625
18586769588237,-1.0594342947006226,-9.769539833068848,0.20709845423698425,0.006122165359556675,-0.00452507846057415,0.01943122036755085
18586770825437,-1.0271124839782715,-9.789891242980957,0.14604631066322327,0.0071868896484375,0.0,0.02182685025036335
18586772062612,-1.0666168928146362,-9.77672290802002,0.18315643072128296,0.0071868896484375,-0.0021294488105922937,0.0204959437251091
18586773299800,-1.0319008827209473,-9.774328231811523,0.13048399984836578,0.00692070834338665,-0.0010647244052961469,0.0157046839594841
18586774536987,-1.0259153842926025,-9.739612579345703,0.152031809091568,0.004791259765625,-0.0007985432748682797,0.0210283063352108
18586775774162,-1.0857704877853394,-9.787496566772461,0.152031809091568,0.005057440605014563,-0.0002661811013240367,0.0204959437251091
18586777011337,-1.071405291557312,-9.774328231811523,0.1256955862045288,0.005855984054505825,-0.0015970865497365594,0.0210283063352108
18586778248525,-1.0438719987869263,-9.801861763000488,0.152031809091568,0.0018632676219567657,-0.00692070834338665,0.02661811001598835
18586779485712,-1.0881646871566772,-9.805453300476074,0.12928690016269684,0.0042588976211845875,-0.0029279920272529125,0.0247548408806324
18586780722912,-1.0378865003585815,-9.798270225524902,0.1388636976480484,0.00452507846057415,0.0005323622026480734,0.0244886614382267
18586781960075,-1.0630255937576294,-9.787496566772461,0.1364694982767105,0.004791259765625,-0.005057440605014563,0.02608574740588665
18586783197262,-1.0666168928146362,-9.759963035583496,0.1472434103488922,0.005589802749454975,-0.006122165359556675,0.02315775491297245
18586784434437,-1.1037269830703735,-9.816226959228516,0.1364694982767105,0.0021294488105922937,-0.0031941730994731188,0.02555338479578495
18586785671637,-1.1336544752120972,-9.823410034179688,0.16400282084941864,0.0029279920272529125,-0.0021294488105922937,0.02262539230287075
18586786908812,-1.0785878896713257,-9.804256439208984,0.13407529890537262,0.0023956298828125,-0.004791259765625,0.0228915736079216
18586788145987,-1.0630255937576294,-9.81024169921875,0.1759738326072693,0.0031941730994731188,-0.0037265352439135313,0.0215606689453125
18586789383187,-1.0618284940719604,-9.836577415466309,0.12928690016269684,-0.0015970865497365594,-0.0039927163161337376,0.0215606689453125
18586790620350,-1.071405291557312,-9.818621635437012,0.2106897532939911,0.0015970865497365594,-0.01117960549890995,0.02422248013317585
18586791857537,-1.0606313943862915,-9.816226959228516,0.16998831927776337,0.0002661811013240367,-0.007985432632267475,0.02315775491297245
18586793094737,-1.0905588865280151,-9.818621635437012,0.1604115217924118,-0.0002661811013240367,-0.0015970865497365594,0.01836649514734745
18586794331887,-1.0881646871566772,-9.793481826782227,0.1496376097202301,-0.0031941730994731188,-0.008251613937318325,0.023956298828125
18586795569087,-1.0690110921859741,-9.799468040466309,0.1711854189634323,-0.0029279920272529125,-0.008783976547420025,0.02422248013317585
18586796806287,-1.1001356840133667,-9.813833236694336,0.19273324310779572,0.0005323622026480734,-0.010114881210029125,0.02129448764026165
18586798043450,-1.0642226934432983,-9.819818496704102,0.13527239859104156,-0.0015970865497365594,-0.0039927163161337376,0.02422248013317585
18586799280650,-1.0354923009872437,-9.822212219238281,0.18315643072128296,-0.005057440605014563,-0.007453070487827063,0.0244886614382267
18586800517812,-1.0977414846420288,-9.762357711791992,0.16998831927776337,-0.008783976547420025,-0.005589802749454975,0.0191650390625
18586801755012,-1.07379949092865,-9.747992515563965,0.19273324310779572,-0.0063883461989462376,-0.0031941730994731188,0.01836649514734745
18586802992187,-1.0582371950149536,-9.770737648010254,0.15442600846290588,-0.0023956298828125,-0.0071868896484375,0.0196974016726017
18586804229350,-1.0606313943862915,-9.81024169921875,0.16160862147808075,-0.0005323622026480734,-0.008783976547420025,0.0204959437251091
18586805466562,-1.0905588865280151,-9.785102844238281,0.1496376097202301,-0.0071868896484375,-0.008517795242369175,0.0215606689453125
18586806703737,-1.0582371950149536,-9.821015357971191,0.17477671802043915,-0.00692070834338665,-0.008517795242369175,0.015172322280704975
18586807940912,-1.0785878896713257,-9.803058624267578,0.1759738326072693,-0.0063883461989462376,-0.004791259765625,0.02129448764026165
18586809178100,-1.0905588865280151,-9.81024169921875,0.1999158412218094,-0.0063883461989462376,-0.0029279920272529125,0.0268842913210392
18586810415300,-1.07379949092865,-9.798270225524902,0.16639702022075653,-0.0114457868039608,-0.0066545275039970875,0.0196974016726017
18586811652462,-1.0905588865280151,-9.780314445495605,0.13048399984836578,-0.007453070487827063,-0.0066545275039970875,0.014906140975654125
18586812889650,-1.1001356840133667,-9.770737648010254,0.17836803197860718,-0.010647243820130825,-0.0090501569211483,0.02182685025036335
18586814126850,-1.1109095811843872,-9.792284965515137,0.21428105235099792,-0.00692070834338665,-0.008251613937318325,0.02022976242005825
18586815364012,-1.0821791887283325,-9.798270225524902,0.20231004059314728,-0.004791259765625,-0.013309055007994175,0.0271504707634449
18586816601200,-1.0845733880996704,-9.774328231811523,0.17477671802043915,-0.0090501569211483,-0.0119781494140625,0.02262539230287075
18586817838375,-1.0869675874710083,-9.737218856811523,0.20949265360832214,-0.010381062515079975,-0.0071868896484375,0.02262539230287075
18586819075550,-1.094150185585022,-9.764751434326172,0.13766659796237946,-0.015172322280704975,-0.005589802749454975,0.02315775491297245
18586820312762,-1.0773907899856567,-9.767146110534668,0.15801730751991272,-0.01224433071911335,-0.0077192517928779125,0.0228915736079216
18586821549937,-1.1085153818130493,-9.763554573059082,0.1412578970193863,-0.0114457868039608,-0.010114881210029125,0.02315775491297245
18586822787125,-1.0977414846420288,-9.758766174316406,0.19153614342212677,-0.014373779296875,-0.01117960549890995,0.0157046839594841
18586824024300,-1.0797849893569946,-9.75278091430664,0.1472434103488922,-0.01597086526453495,-0.010647243820130825,0.0181003138422966
18586825261475,-1.1216834783554077,-9.80904483795166,0.11971008777618408,-0.014906140975654125,-0.0090501569211483,0.02262539230287075
18586826498675,-1.1480196714401245,-9.773131370544434,0.15562310814857483,-0.010913425125181675,-0.006122165359556675,0.0191650390625
18586827735837,-1.0881646871566772,-9.740809440612793,0.1496376097202301,-0.013309055007994175,-0.00692070834338665,0.02182685025036335
18586828973025,-1.1121066808700562,-9.769539833068848,0.15442600846290588,-0.01410759799182415,-0.0066545275039970875,0.01996358297765255
18586830210212,-1.094150185585022,-9.773131370544434,0.15442600846290588,-0.01463996060192585,-0.004791259765625,0.0191650390625
18586831447400,-1.1264718770980835,-9.762357711791992,0.18076223134994507,-0.0157046839594841,-0.008251613937318325,0.02182685025036335
18586832684587,-1.1252747774124146,-9.781511306762695,0.17836803197860718,-0.01357523538172245,-0.0114457868039608,0.0223592109978199
18586833921762,-1.0809820890426636,-9.791088104248047,0.16998831927776337,-0.0173017717897892,-0.0029279920272529125,0.02369011752307415
18586835158950,-1.1288660764694214,-9.822212219238281,0.1604115217924118,-0.012776692397892475,-0.003460354171693325,0.0234239362180233
18586836396137,-1.113303780555725,-9.817423820495605,0.17477671802043915,-0.014906140975654125,-0.00931633822619915,0.0276828333735466
18586837633325,-1.0881646871566772,-9.786299705505371,0.14484921097755432,-0.0138414166867733,-0.008517795242369175,0.02874755859375
18586838870487,-1.1204863786697388,-9.803058624267578,0.19632454216480255,-0.013042873702943325,-0.00931633822619915,0.023956298828125
18586840107687,-1.114500880241394,-9.818621635437012,0.18315643072128296,-0.01650322787463665,-0.008783976547420025,0.023956298828125
18586841344862,-1.1228805780410767,-9.770737648010254,0.1280897855758667,-0.01597086526453495,-0.008517795242369175,0.0247548408806324
18586842582037,-1.1444283723831177,-9.771934509277344,0.1388636976480484,-0.015172322280704975,-0.010114881210029125,0.02129448764026165
18586843819225,-1.1408370733261108,-9.771934509277344,0.13407529890537262,-0.0167694091796875,-0.004791259765625,0.02315775491297245
18586845056412,-1.1408370733261108,-9.789891242980957,0.10773907601833344,-0.015438503585755825,-0.010381062515079975,0.02262539230287075
18586846293600,-1.1121066808700562,-9.744400978088379,0.12449848651885986,-0.01756795309484005,-0.010114881210029125,0.02262539230287075
18586847530787,-1.1288660764694214,-9.747992515563965,0.14365209639072418,-0.0181003138422966,-0.0053236219100654125,0.02076212503015995
18586848767962,-1.1109095811843872,-9.761160850524902,0.09457096457481384,-0.01783413253724575,-0.007453070487827063,0.0292799212038517
18586850005137,-1.1300631761550903,-9.734824180603027,0.15442600846290588,-0.0119781494140625,-0.0042588976211845875,0.02874755859375
18586851242337,-1.0845733880996704,-9.743204116821289,0.15562310814857483,-0.014373779296875,-0.007453070487827063,0.02848137728869915
18586852479500,-1.1109095811843872,-9.75158405303955,0.15442600846290588,-0.01756795309484005,-0.004791259765625,0.0234239362180233
18586853716687,-1.1563994884490967,-9.727641105651855,0.15083470940589905,-0.0191650390625,-0.0039927163161337376,0.0247548408806324
18586854953887,-1.116895079612732,-9.7420072555542,0.14365209639072418,-0.0173017717897892,-0.005589802749454975,0.033272635191679
18586856191062,-1.1408370733261108,-9.733627319335938,0.1364694982767105,-0.0181003138422966,-0.0071868896484375,0.02794901467859745
18586857428237,-1.1767501831054688,-9.728838920593262,0.1256955862045288,-0.0181003138422966,-0.007985432632267475,0.03034464456140995
18586858665437,-1.139639973640442,-9.75158405303955,0.14365209639072418,-0.0215606689453125,-0.0053236219100654125,0.02794901467859745
18586859902600,-1.1587936878204346,-9.715670585632324,0.12689268589019775,-0.02129448764026165,-0.003460354171693325,0.0258195661008358
18586861139775,-1.1456254720687866,-9.718064308166504,0.1496376097202301,-0.02182685025036335,-0.0021294488105922937,0.02369011752307415
18586862376987,-1.194706678390503,-9.716867446899414,0.11971008777618408,-0.0204959437251091,-0.0023956298828125,0.02848137728869915
18586863614137,-1.1791443824768066,-9.724050521850586,0.1256955862045288,-0.0223592109978199,-0.004791259765625,0.0343373604118824
18586864851337,-1.170764684677124,-9.781511306762695,0.14484921097755432,-0.01943122036755085,-0.0042588976211845875,0.02661811001598835
18586866088525,-1.1563994884490967,-9.750386238098145,0.12689268589019775,-0.02129448764026165,-0.006122165359556675,0.02848137728869915
18586867325687,-1.192312479019165,-9.764751434326172,0.1280897855758667,-0.01836649514734745,-0.0013309054775163531,0.02794901467859745
18586868562887,-1.191115379333496,-9.759963035583496,0.11252748221158981,-0.0204959437251091,-0.0015970865497365594,0.02794901467859745
18586869800050,-1.1863269805908203,-9.764751434326172,0.13766659796237946,-0.0220930315554142,-0.0042588976211845875,0.02794901467859745
18586871037250,-1.170764684677124,-9.758766174316406,0.10055647045373917,-0.0210283063352108,0.0015970865497365594,0.0276828333735466
18586872274412,-1.1528080701828003,-9.792284965515137,0.14484921097755432,-0.02129448764026165,0.0029279920272529125,0.02901373989880085
18586873511612,-1.2114660739898682,-9.815030097961426,0.12449848651885986,-0.02182685025036335,0.0021294488105922937,0.02608574740588665
18586874748800,-1.169567584991455,-9.80904483795166,0.09576807171106339,-0.0271504707634449,0.0066545275039970875,0.02369011752307415
18586875985975,-1.1791443824768066,-9.770737648010254,0.09816227108240128,-0.0244886614382267,0.0042588976211845875,0.0295461006462574
18586877223175,-1.1779472827911377,-9.774328231811523,0.1173158809542656,-0.02022976242005825,0.005855984054505825,0.02608574740588665
18586878460350,-1.2006921768188477,-9.7791166305542,0.14604631066322327,-0.0234239362180233,0.0090501569211483,0.02661811001598835
18586879697525,-1.191115379333496,-9.781511306762695,0.12330138683319092,-0.0247548408806324,0.0063883461989462376,0.0263519287109375
18586880934712,-1.1480196714401245,-9.759963035583496,0.152031809091568,-0.02369011752307415,0.0063883461989462376,0.02741665206849575
18586882171887,-1.1839327812194824,-9.758766174316406,0.09696517139673233,-0.02182685025036335,0.004791259765625,0.0247548408806324
18586883409087,-1.1959037780761719,-9.791088104248047,0.11971008777618408,-0.0228915736079216,0.006122165359556675,0.02741665206849575
18586884646250,-1.1887211799621582,-9.769539833068848,0.11013327538967133,-0.02502102218568325,0.0029279920272529125,0.02422248013317585
18586885883437,-1.1839327812194824,-9.757569313049316,0.16639702022075653,-0.02315775491297245,0.0013309054775163531,0.0252872034907341
18586887120625,-1.1671733856201172,-9.745597839355469,0.15921440720558167,-0.02848137728869915,0.0138414166867733,0.02848137728869915
18586888357812,-1.1875240802764893,-9.759963035583496,0.1256955862045288,-0.0322079136967659,0.0090501569211483,0.0247548408806324
18586889595000,-1.1791443824768066,-9.734824180603027,0.1388636976480484,-0.0244886614382267,0.0077192517928779125,0.0319417305290699
18586890832175,-1.170764684677124,-9.747992515563965,0.16519992053508759,-0.02661811001598835,0.010114881210029125,0.03034464456140995
18586892069362,-1.173158884048462,-9.72165584564209,0.15442600846290588,-0.0322079136967659,0.012776692397892475,0.02741665206849575
18586893306537,-1.1480196714401245,-9.799468040466309,0.11851298809051514,-0.0263519287109375,0.008251613937318325,0.02874755859375
18586894543725,-1.2090718746185303,-9.728838920593262,0.17238251864910126,-0.02502102218568325,0.00984870083630085,0.0292799212038517
18586895780912,-1.1575965881347656,-9.728838920593262,0.1496376097202301,-0.0292799212038517,0.010647243820130825,0.02502102218568325
18586897018087,-1.1803414821624756,-9.75278091430664,0.14484921097755432,-0.0322079136967659,0.01357523538172245,0.0276828333735466
18586898255262,-1.1779472827911377,-9.745597839355469,0.1472434103488922,-0.033272635191679,0.0162370465695858,0.0220930315554142
18586899492462,-1.1839327812194824,-9.77552604675293,0.17956513166427612,-0.0351359061896801,0.0162370465695858,0.023956298828125
18586900729650,-1.2246341705322266,-9.72165584564209,0.13407529890537262,-0.0306108258664608,0.008517795242369175,0.02502102218568325
18586901966825,-1.2066776752471924,-9.761160850524902,0.13168109953403473,-0.02741665206849575,0.008517795242369175,0.02608574740588665
18586903204000,-1.2198457717895508,-9.710882186889648,0.13407529890537262,-0.0359344482421875,0.01597086526453495,0.023956298828125
18586904441187,-1.1755530834197998,-9.727641105651855,0.13168109953403473,-0.0369991734623909,0.014373779296875,0.0258195661008358
18586905678362,-1.2485761642456055,-9.7420072555542,0.14484921097755432,-0.0356682650744915,0.01171196810901165,0.01996358297765255
18586906915550,-1.2461819648742676,-9.737218856811523,0.13168109953403473,-0.0346035435795784,0.01756795309484005,0.01703559048473835
18586908152750,-1.2210428714752197,-9.731232643127441,0.11013327538967133,-0.0354020856320858,0.0157046839594841,0.0215606689453125
18586909389912,-1.2102689743041992,-9.709685325622559,0.1388636976480484,-0.0364668108522892,0.01410759799182415,0.023956298828125
18586910627100,-1.2090718746185303,-9.75278091430664,0.10534487664699554,-0.0377977155148983,0.0114457868039608,0.02315775491297245
18586911864275,-1.192312479019165,-9.758766174316406,0.12090718746185303,-0.0330064557492733,0.01783413253724575,0.01783413253724575
18586913101475,-1.1863269805908203,-9.75278091430664,0.12689268589019775,-0.0346035435795784,0.0223592109978199,0.0186326764523983
18586914338650,-1.2186486721038818,-9.758766174316406,0.13407529890537262,-0.0391286201775074,0.01703559048473835,0.013309055007994175
18586915575837,-1.2066776752471924,-9.75158405303955,0.15442600846290588,-0.0369991734623909,0.015438503585755825,0.01410759799182415
18586916813012,-1.1779472827911377,-9.724050521850586,0.1364694982767105,-0.038063894957304,0.01410759799182415,0.012510511092841625
18586918050187,-1.2018892765045166,-9.724050521850586,0.15322890877723694,-0.0415242500603199,0.0186326764523983,0.010381062515079975
18586919287375,-1.170764684677124,-9.736021041870117,0.1388636976480484,-0.0396609827876091,0.01756795309484005,0.010114881210029125
18586920524575,-1.171961784362793,-9.691728591918945,0.16160862147808075,-0.0404595248401165,0.0204959437251091,0.0173017717897892
18586921761737,-1.1444283723831177,-9.720458984375,0.16639702022075653,-0.0407257080078125,0.01463996060192585,0.0162370465695858
18586922998925,-1.2042834758758545,-9.725247383117676,0.1711854189634323,-0.0399271659553051,0.0191650390625,0.01463996060192585
18586924236112,-1.1444283723831177,-9.695320129394531,0.17717093229293823,-0.0409918874502182,0.0167694091796875,0.01410759799182415
18586925473287,-1.1504138708114624,-9.71926212310791,0.1759738326072693,-0.0377977155148983,0.0162370465695858,0.02022976242005825
18586926710487,-1.1180921792984009,-9.677363395690918,0.15921440720558167,-0.0364668108522892,0.0204959437251091,0.01943122036755085
18586927947662,-1.1683704853057861,-9.697713851928711,0.15322890877723694,-0.0354020856320858,0.0220930315554142,0.015172322280704975
18586929184850,-1.1504138708114624,-9.730035781860352,0.1604115217924118,-0.0340711809694767,0.0167694091796875,0.0173017717897892
18586930422037,-1.095347285270691,-9.691728591918945,0.18315643072128296,-0.0362006276845932,0.014373779296875,0.01463996060192585
18586931659212,-1.1528080701828003,-9.710882186889648,0.16400282084941864,-0.0354020856320858,0.01996358297765255,0.01171196810901165
18586932896400,-1.169567584991455,-9.72285270690918,0.14844051003456116,-0.0314093679189682,0.01463996060192585,0.01597086526453495
18586934133600,-1.1540051698684692,-9.768342971801758,0.18555063009262085,-0.0300784632563591,0.0181003138422966,0.014373779296875
18586935370775,-1.1827356815338135,-9.773131370544434,0.18555063009262085,-0.0348697230219841,0.0252872034907341,0.008517795242369175
18586936607937,-1.1635820865631104,-9.72165584564209,0.21188685297966003,-0.0346035435795784,0.0223592109978199,0.01117960549890995
18586937845137,-1.173158884048462,-9.749189376831055,0.1412578970193863,-0.03034464456140995,0.0210283063352108,0.0119781494140625
18586939082312,-1.1480196714401245,-9.738415718078613,0.1496376097202301,-0.0292799212038517,0.0186326764523983,0.01224433071911335
18586940319487,-1.1647791862487793,-9.733627319335938,0.1472434103488922,-0.0295461006462574,0.013309055007994175,0.01463996060192585
18586941556675,-1.1480196714401245,-9.738415718078613,0.19393034279346466,-0.0324740931391716,0.0181003138422966,0.012776692397892475
18586942793862,-1.1863269805908203,-9.716867446899414,0.21188685297966003,-0.0346035435795784,0.0210283063352108,0.0077192517928779125
18586944031025,-1.1791443824768066,-9.707290649414062,0.152031809091568,-0.0306108258664608,0.0162370465695858,0.0167694091796875
18586945268225,-1.1504138708114624,-9.749189376831055,0.15083470940589905,-0.0306108258664608,0.014906140975654125,0.01410759799182415
18586946505412,-1.1540051698684692,-9.743204116821289,0.1759738326072693,-0.0338049978017807,0.01889885775744915,0.01410759799182415
18586947742587,-1.1671733856201172,-9.706093788146973,0.16160862147808075,-0.0306108258664608,0.0210283063352108,0.012510511092841625
18586948979775,-1.1575965881347656,-9.68574333190918,0.1735796183347702,-0.0268842913210392,0.0196974016726017,0.0053236219100654125
18586950216950,-1.1444283723831177,-9.71926212310791,0.19632454216480255,-0.02422248013317585,0.01783413253724575,0.010114881210029125
18586951454137,-1.1432312726974487,-9.728838920593262,0.1496376097202301,-0.0292799212038517,0.01756795309484005,0.0066545275039970875
18586952691337,-1.191115379333496,-9.714473724365234,0.16639702022075653,-0.02874755859375,0.01756795309484005,0.005855984054505825
18586953928512,-1.1982979774475098,-9.702502250671387,0.17238251864910126,-0.02741665206849575,0.01463996060192585,0.0053236219100654125
18586955165687,-1.114500880241394,-9.720458984375,0.14006079733371735,-0.02502102218568325,0.015172322280704975,0.004791259765625
18586956402887,-1.170764684677124,-9.734824180603027,0.1735796183347702,-0.023956298828125,0.01703559048473835,0.0066545275039970875
18586957640062,-1.1755530834197998,-9.694122314453125,0.15442600846290588,-0.02661811001598835,0.01597086526453495,0.0015970865497365594
18586958877237,-1.1528080701828003,-9.745597839355469,0.1999158412218094,-0.0220930315554142,0.013309055007994175,-0.0018632676219567657
18586960114425,-1.169567584991455,-9.75158405303955,0.16998831927776337,-0.0234239362180233,0.008783976547420025,-0.0029279920272529125
18586961351612,-1.1504138708114624,-9.706093788146973,0.16519992053508759,-0.0244886614382267,0.014373779296875,0.0002661811013240367
18586962588787,-1.114500880241394,-9.673771858215332,0.15322890877723694,-0.0268842913210392,0.0223592109978199,0.0002661811013240367
18586963825950,-1.1516109704971313,-9.747992515563965,0.18794482946395874,-0.0181003138422966,0.0138414166867733,-0.0023956298828125
18586965063150,-1.1839327812194824,-9.703699111938477,0.17477671802043915,-0.01889885775744915,0.00931633822619915,-0.0042588976211845875
18586966300350,-1.1348515748977661,-9.740809440612793,0.14604631066322327,-0.0258195661008358,0.0119781494140625,-0.0031941730994731188
18586967537512,-1.1456254720687866,-9.716867446899414,0.16519992053508759,-0.02129448764026165,0.01463996060192585,-0.0063883461989462376
18586968774700,-1.138442873954773,-9.6989107131958,0.19033904373645782,-0.01943122036755085,0.01410759799182415,-0.005855984054505825
18586970011875,-1.1779472827911377,-9.740809440612793,0.20350714027881622,-0.0210283063352108,0.01836649514734745,-0.005057440605014563
18586971249062,-1.1408370733261108,-9.72165584564209,0.1628057211637497,-0.02129448764026165,0.015172322280704975,-0.008251613937318325
18586972486250,-1.1575965881347656,-9.720458984375,0.16759411990642548,-0.01756795309484005,0.01463996060192585,-0.00931633822619915
18586973723437,-1.1348515748977661,-9.704896926879883,0.21308395266532898,-0.01410759799182415,0.010114881210029125,-0.010114881210029125
18586974960625,-1.1276689767837524,-9.730035781860352,0.1759738326072693,-0.01943122036755085,0.010114881210029125,-0.01597086526453495
18586976197812,-1.1444283723831177,-9.757569313049316,0.1735796183347702,-0.02182685025036335,0.01650322787463665,-0.0157046839594841
18586977434975,-1.1097124814987183,-9.745597839355469,0.20709845423698425,-0.01889885775744915,0.01463996060192585,-0.01836649514734745
18586978672175,-1.1252747774124146,-9.75158405303955,0.15562310814857483,-0.0173017717897892,0.00958251953125,-0.0204959437251091
18586979909350,-1.1480196714401245,-9.759963035583496,0.16400282084941864,-0.01756795309484005,0.014373779296875,-0.0191650390625
18586981146537,-1.1420341730117798,-9.7420072555542,0.16160862147808075,-0.0181003138422966,0.0138414166867733,-0.0186326764523983
18586982383737,-1.139639973640442,-9.720458984375,0.15083470940589905,-0.015438503585755825,0.0119781494140625,-0.02262539230287075
18586983620900,-1.1049240827560425,-9.750386238098145,0.1604115217924118,-0.01597086526453495,0.012776692397892475,-0.0247548408806324
18586984858100,-1.1240776777267456,-9.728838920593262,0.17477671802043915,-0.014906140975654125,0.00958251953125,-0.0292799212038517
18586986095262,-1.0773907899856567,-9.732430458068848,0.18315643072128296,-0.015438503585755825,0.00958251953125,-0.0268842913210392
18586987332450,-1.07379949092865,-9.72285270690918,0.152031809091568,-0.015438503585755825,0.0031941730994731188,-0.0252872034907341
18586988569625,-1.0869675874710083,-9.736021041870117,0.1604115217924118,-0.0173017717897892,0.01171196810901165,-0.0330064557492733
18586989806825,-1.1097124814987183,-9.75278091430664,0.15322890877723694,-0.01650322787463665,0.0157046839594841,-0.0314093679189682
18586991044012,-1.1061211824417114,-9.745597839355469,0.18555063009262085,-0.015172322280704975,0.008783976547420025,-0.0330064557492733
18586992281175,-1.114500880241394,-9.743204116821289,0.11971008777618408,-0.0173017717897892,0.00984870083630085,-0.0346035435795784
18586993518387,-1.095347285270691,-9.7420072555542,0.11133038252592087,-0.0157046839594841,0.003460354171693325,-0.0322079136967659
18586994755550,-1.136048674583435,-9.716867446899414,0.1256955862045288,-0.0173017717897892,0.008251613937318325,-0.0316755510866642
18586995992737,-1.1288660764694214,-9.771934509277344,0.20111294090747833,-0.01650322787463665,0.008251613937318325,-0.0338049978017807
18586997229925,-1.1240776777267456,-9.767146110534668,0.17836803197860718,-0.012510511092841625,0.0071868896484375,-0.0356682650744915
18586998467112,-1.1348515748977661,-9.75397777557373,0.11372458189725876,-0.013309055007994175,0.010114881210029125,-0.0343373604118824
18586999704275,-1.1324573755264282,-9.750386238098145,0.14006079733371735,-0.012776692397892475,0.008783976547420025,-0.0372653529047966
18587000941462,-1.1264718770980835,-9.756372451782227,0.16519992053508759,-0.010913425125181675,0.014373779296875,-0.0369991734623909
18587002178650,-1.1097124814987183,-9.75397777557373,0.14245499670505524,-0.00931633822619915,0.010114881210029125,-0.0375315360724926
18587003415837,-1.137245774269104,-9.762357711791992,0.15322890877723694,-0.014373779296875,0.010114881210029125,-0.0369991734623909
18587004653012,-1.1611878871917725,-9.725247383117676,0.1412578970193863,-0.0167694091796875,0.0053236219100654125,-0.0375315360724926
18587005890212,-1.092953085899353,-9.720458984375,0.10773907601833344,-0.014373779296875,0.005855984054505825,-0.038063894957304
18587007127387,-1.1097124814987183,-9.696516990661621,0.13287819921970367,-0.008517795242369175,0.00452507846057415,-0.0343373604118824
18587008364562,-1.1085153818130493,-9.72285270690918,0.14006079733371735,-0.010913425125181675,0.0039927163161337376,-0.0362006276845932
18587009601762,-1.0690110921859741,-9.733627319335938,0.09935937076807022,-0.01224433071911335,0.0,-0.0393948033452034
18587010838937,-1.0821791887283325,-9.726444244384766,0.1388636976480484,-0.013042873702943325,0.0063883461989462376,-0.0399271659553051
18587012076112,-1.091755986213684,-9.734824180603027,0.11971008777618408,-0.013042873702943325,0.008517795242369175,-0.0396609827876091
18587013313312,-1.071405291557312,-9.745597839355469,0.152031809091568,-0.010114881210029125,0.007453070487827063,-0.0455169677734375
18587014550487,-1.0761936902999878,-9.727641105651855,0.1412578970193863,-0.0090501569211483,0.0077192517928779125,-0.0393948033452034
18587015787662,-1.048660397529602,-9.72165584564209,0.11372458189725876,-0.004791259765625,0.010913425125181675,-0.0322079136967659
18587017024850,-1.0582371950149536,-9.707290649414062,0.11252748221158981,-0.0090501569211483,0.01224433071911335,-0.0351359061896801
18587018262050,-1.0618284940719604,-9.68813705444336,0.14844051003456116,-0.01171196810901165,0.0077192517928779125,-0.0348697230219841
18587019499200,-1.0199298858642578,-9.718064308166504,0.15322890877723694,-0.010913425125181675,0.008783976547420025,-0.033272635191679
18587020736400,-1.0426748991012573,-9.692925453186035,0.13168109953403473,-0.01171196810901165,0.0042588976211845875,-0.0343373604118824
18587021973600,-1.0079588890075684,-9.71926212310791,0.17477671802043915,-0.008517795242369175,0.005057440605014563,-0.0322079136967659
18587023210750,-1.0199298858642578,-9.68574333190918,0.16160862147808075,-0.008783976547420025,0.0119781494140625,-0.02874755859375
18587024447950,-1.0821791887283325,-9.702502250671387,0.1604115217924118,-0.007985432632267475,0.0053236219100654125,-0.02981228195130825
18587025685125,-1.0031704902648926,-9.692925453186035,0.1472434103488922,-0.0063883461989462376,0.0053236219100654125,-0.02608574740588665
18587026922325,-1.0630255937576294,-9.72165584564209,0.10534487664699554,-0.007453070487827063,0.0029279920272529125,-0.0295461006462574
18587028159500,-0.9995791912078857,-9.691728591918945,0.11372458189725876,-0.007453070487827063,0.0077192517928779125,-0.02981228195130825
18587029396687,-1.0043675899505615,-9.68694019317627,0.15083470940589905,-0.0039927163161337376,0.0077192517928779125,-0.02981228195130825
18587030633850,-1.0055646896362305,-9.691728591918945,0.1759738326072693,-0.0066545275039970875,0.0042588976211845875,-0.02794901467859745
18587031871050,-1.0103530883789062,-9.691728591918945,0.1388636976480484,-0.010913425125181675,0.005057440605014563,-0.0314093679189682
18587033108225,-1.0127472877502441,-9.678560256958008,0.10773907601833344,-0.004791259765625,0.0037265352439135313,-0.02661811001598835
18587034345412,-1.0115501880645752,-9.696516990661621,0.14245499670505524,-0.004791259765625,0.0071868896484375,-0.0276828333735466
18587035582612,-1.0378865003585815,-9.667786598205566,0.1173158809542656,-0.0053236219100654125,0.010114881210029125,-0.02608574740588665
18587036819775,-1.0295066833496094,-9.694122314453125,0.11851298809051514,-0.004791259765625,0.0029279920272529125,-0.0223592109978199
18587038056962,-1.0043675899505615,-9.668983459472656,0.15562310814857483,-0.0071868896484375,0.0029279920272529125,-0.01756795309484005
18587039294137,-0.9911994934082031,-9.672574996948242,0.13766659796237946,-0.005855984054505825,0.003460354171693325,-0.02076212503015995
18587040531337,-1.016338586807251,-9.673771858215332,0.12928690016269684,-0.0018632676219567657,0.00931633822619915,-0.02022976242005825
18587041768512,-1.070208191871643,-9.695320129394531,0.11971008777618408,-0.0007985432748682797,0.00692070834338665,-0.0196974016726017
18587043005712,-1.0235211849212646,-9.690531730651855,0.13048399984836578,-0.0042588976211845875,0.003460354171693325,-0.014906140975654125
18587044242875,-1.016338586807251,-9.679757118225098,0.14484921097755432,-0.0015970865497365594,0.006122165359556675,-0.01410759799182415
18587045480075,-0.9660604000091553,-9.72165584564209,0.13048399984836578,-0.006122165359556675,0.005589802749454975,-0.015172322280704975
18587046717237,-0.9911994934082031,-9.708487510681152,0.11611878126859665,-0.0053236219100654125,0.00692070834338665,-0.0196974016726017
18587047954425,-0.9971849918365479,-9.690531730651855,0.12689268589019775,-0.00452507846057415,0.0077192517928779125,-0.0196974016726017
18587049191612,-1.0414777994155884,-9.727641105651855,0.08978256583213806,-0.006122165359556675,0.0013309054775163531,-0.0167694091796875
18587050428812,-1.0055646896362305,-9.740809440612793,0.09696517139673233,-0.0029279920272529125,0.0066545275039970875,-0.01463996060192585
18587051665975,-1.0115501880645752,-9.739612579345703,0.09457096457481384,-0.005057440605014563,0.00692070834338665,-0.01224433071911335
18587052903175,-1.0187327861785889,-9.749189376831055,0.06703764945268631,-0.0007985432748682797,0.0031941730994731188,-0.00931633822619915
18587054140337,-1.0223240852355957,-9.773131370544434,0.10055647045373917,-0.0026618109550327063,0.0042588976211845875,-0.01117960549890995
18587055377537,-1.013944387435913,-9.738415718078613,0.14844051003456116,-0.0002661811013240367,0.0053236219100654125,-0.010647243820130825
18587056614725,-1.0211269855499268,-9.727641105651855,0.13527239859104156,0.0,0.003460354171693325,-0.008517795242369175
18587057851900,-0.9768342971801758,-9.756372451782227,0.1041477769613266,0.006122165359556675,-0.0002661811013240367,-0.0090501569211483
18587059089075,-0.9720458984375,-9.737218856811523,0.11971008777618408,0.0,0.0010647244052961469,-0.010913425125181675
18587060326275,-1.0390836000442505,-9.731232643127441,0.1280897855758667,-0.0010647244052961469,0.0053236219100654125,-0.0090501569211483
18587061563450,-1.0342952013015747,-9.80904483795166,0.13168109953403473,-0.0013309054775163531,0.0042588976211845875,-0.01117960549890995
18587062800612,-1.0378865003585815,-9.762357711791992,0.1472434103488922,0.0042588976211845875,0.0005323622026480734,-0.010381062515079975
18587064037812,-1.0211269855499268,-9.739612579345703,0.13407529890537262,0.0010647244052961469,0.0010647244052961469,-0.00984870083630085
18587065275000,-1.013944387435913,-9.749189376831055,0.08499415963888168,-0.004791259765625,0.0010647244052961469,-0.010647243820130825
18587066512162,-1.0103530883789062,-9.77672290802002,0.14006079733371735,-0.004791259765625,0.0002661811013240367,-0.0071868896484375
18587067749362,-0.9852139949798584,-9.75397777557373,0.08978256583213806,-0.0042588976211845875,0.0,-0.0039927163161337376
18587068986550,-0.9900023937225342,-9.782708168029785,0.09217676520347595,-0.0042588976211845875,0.0013309054775163531,-0.0066545275039970875
18587070223725,-1.0115501880645752,-9.81024169921875,0.10654197633266449,0.0,0.0018632676219567657,-0.0053236219100654125
18587071460925,-1.0330979824066162,-9.7791166305542,0.06344634294509888,0.0007985432748682797,0.0031941730994731188,-0.0053236219100654125
18587072698112,-0.9911994934082031,-9.78869342803955,0.07422025501728058,-0.0005323622026480734,0.0063883461989462376,-0.008783976547420025
18587073935275,-0.9780313968658447,-9.806650161743164,0.11372458189725876,-0.0037265352439135313,0.0063883461989462376,-0.010913425125181675
18587075172462,-1.0055646896362305,-9.801861763000488,0.08978256583213806,-0.008251613937318325,0.0037265352439135313,-0.010647243820130825
18587076409662,-1.013944387435913,-9.791088104248047,0.11611878126859665,-0.005057440605014563,0.0015970865497365594,-0.0066545275039970875
18587077646825,-0.9876081943511963,-9.797073364257812,0.11372458189725876,-0.003460354171693325,0.0026618109550327063,-0.0037265352439135313
18587078884012,-0.9804255962371826,-9.763554573059082,0.0933738648891449,-0.0010647244052961469,0.0026618109550327063,-0.0010647244052961469
18587080121200,-0.9900023937225342,-9.762357711791992,0.10654197633266449,-0.0015970865497365594,0.0031941730994731188,-0.0015970865497365594
18587081358375,-0.9983820915222168,-9.80904483795166,0.12928690016269684,-0.003460354171693325,0.0015970865497365594,-0.0029279920272529125
18587082595550,-1.0271124839782715,-9.761160850524902,0.1173158809542656,-0.0010647244052961469,0.0053236219100654125,-0.006122165359556675
18587083832737,-1.01753568649292,-9.7420072555542,0.15442600846290588,-0.0026618109550327063,0.0002661811013240367,-0.0090501569211483
18587085069937,-0.9840168952941895,-9.68694019317627,0.1472434103488922,-0.00931633822619915,-0.0013309054775163531,-0.005057440605014563
18587086307112,-0.9804255962371826,-9.701305389404297,0.14365209639072418,-0.007453070487827063,-0.0005323622026480734,-0.0007985432748682797
18587087544312,-0.9768342971801758,-9.692925453186035,0.09217676520347595,-0.0026618109550327063,0.0042588976211845875,-0.00452507846057415
18587088781475,-0.9744400978088379,-9.667786598205566,0.15442600846290588,-0.0077192517928779125,0.00958251953125,-0.0039927163161337376
18587090018650,-0.99479079246521,-9.647436141967773,0.10893617570400238,-0.0053236219100654125,0.0010647244052961469,-0.0015970865497365594
18587091255837,-0.9840168952941895,-9.65222454071045,0.13527239859104156,-0.003460354171693325,-0.0010647244052961469,0.0002661811013240367
18587092493025,-0.9780313968658447,-9.654618263244629,0.10295067727565765,-0.0042588976211845875,-0.003460354171693325,0.006122165359556675
18587093730225,-0.973242998123169,-9.635464668273926,0.13048399984836578,-0.0005323622026480734,-0.0026618109550327063,0.003460354171693325
18587094967400,-0.9876081943511963,-9.66299819946289,0.03950432687997818,-0.003460354171693325,-0.0015970865497365594,0.0013309054775163531
18587096204587,-0.99479079246521,-9.65222454071045,0.05027823522686958,-0.0018632676219567657,-0.0007985432748682797,0.0031941730994731188
18587097441775,-1.0031704902648926,-9.639056205749512,0.07422025501728058,0.0002661811013240367,0.0015970865497365594,0.0013309054775163531
18587098678962,-0.9696516990661621,-9.6618013381958,0.09935937076807022,-0.0039927163161337376,0.0026618109550327063,0.0021294488105922937
18587099916125,-0.9564836025238037,-9.6989107131958,0.04908113554120064,-0.0042588976211845875,-0.005057440605014563,0.0066545275039970875
18587101153325,-1.0378865003585815,-9.750386238098145,0.011971008963882923,0.0013309054775163531,-0.0021294488105922937,0.0029279920272529125
18587102390500,-1.01753568649292,-9.738415718078613,0.06703764945268631,0.0015970865497365594,-0.0010647244052961469,0.013309055007994175
18587103627687,-1.0031704902648926,-9.75397777557373,0.06344634294509888,0.004791259765625,-0.0037265352439135313,0.0119781494140625
18587104864862,-1.0199298858642578,-9.785102844238281,0.06344634294509888,-0.0005323622026480734,0.0010647244052961469,0.0071868896484375
18587106102037,-1.0271124839782715,-9.789891242980957,0.05147533863782883,0.0023956298828125,-0.0005323622026480734,0.004791259765625
18587107339250,-1.0235211849212646,-9.864110946655273,0.0694318488240242,0.00452507846057415,-0.004791259765625,0.0042588976211845875
18587108576400,-1.048660397529602,-9.84376049041748,0.05506663769483566,0.0063883461989462376,-0.005855984054505825,0.008251613937318325
18587109813600,-1.013944387435913,-9.830592155456543,0.043095629662275314,0.0026618109550327063,-0.0042588976211845875,0.0138414166867733
18587111050787,-1.0438719987869263,-9.828198432922363,0.12928690016269684,0.0029279920272529125,-0.0077192517928779125,0.0119781494140625
18587112287950,-1.0223240852355957,-9.861717224121094,0.11611878126859665,0.0031941730994731188,-0.005855984054505825,0.010647243820130825
18587113525137,-1.0031704902648926,-9.853337287902832,0.10654197633266449,0.0002661811013240367,-0.0042588976211845875,0.007985432632267475
18587114762337,-1.0402806997299194,-9.791088104248047,0.15442600846290588,0.0005323622026480734,-0.0042588976211845875,0.007453070487827063
18587115999500,-1.0342952013015747,-9.81263542175293,0.10773907601833344,0.0026618109550327063,-0.00452507846057415,0.012510511092841625
18587117236700,-1.0211269855499268,-9.800664901733398,0.09217676520347595,0.0,-0.005589802749454975,0.01597086526453495
18587118473875,-1.0307037830352783,-9.801861763000488,0.10893617570400238,0.0010647244052961469,-0.005855984054505825,0.0167694091796875
18587119711062,-1.0067617893218994,-9.795876502990723,0.09576807171106339,-0.0007985432748682797,-0.0053236219100654125,0.0157046839594841
18587120948237,-0.9959878921508789,-9.769539833068848,0.09576807171106339,0.0021294488105922937,-0.0042588976211845875,0.01783413253724575
18587122185437,-0.9923965930938721,-9.762357711791992,0.09217676520347595,-0.0013309054775163531,-0.0053236219100654125,0.01836649514734745
18587123422600,-0.9864110946655273,-9.77552604675293,0.07900865375995636,0.0005323622026480734,-0.00958251953125,0.0157046839594841
18587124659775,-0.993593692779541,-9.773131370544434,0.12210428714752197,0.0026618109550327063,-0.010381062515079975,0.01597086526453495
18587125897000,-1.0414777994155884,-9.734824180603027,0.08140286058187485,-0.003460354171693325,-0.010913425125181675,0.015438503585755825
18587127134162,-1.0654197931289673,-9.77791976928711,0.07900865375995636,-0.0023956298828125,-0.010381062515079975,0.0191650390625
18587128371350,-1.0606313943862915,-9.763554573059082,0.08738835901021957,-0.0002661811013240367,-0.005855984054505825,0.0173017717897892
18587129608550,-1.0618284940719604,-9.7791166305542,0.07422025501728058,0.0,-0.008517795242369175,0.0191650390625
18587130845700,-1.1001356840133667,-9.81263542175293,0.02513911761343479,-0.0042588976211845875,-0.0119781494140625,0.012776692397892475
18587132082887,-1.0821791887283325,-9.813833236694336,0.014365210197865963,-0.006122165359556675,-0.00931633822619915,0.01703559048473835
18587133320075,-1.0785878896713257,-9.801861763000488,0.040701430290937424,0.0013309054775163531,-0.01171196810901165,0.0204959437251091
18587134557262,-1.1073182821273804,-9.828198432922363,0.05626374110579491,-0.00452507846057415,-0.0162370465695858,0.0210283063352108
18587135794450,-1.0797849893569946,-9.829395294189453,0.06344634294509888,-0.0026618109550327063,-0.008517795242369175,0.0191650390625
18587137031625,-1.0678139925003052,-9.81263542175293,0.020350715145468712,-0.0010647244052961469,-0.00452507846057415,0.01836649514734745
18587138268812,-1.1109095811843872,-9.838972091674805,0.019153613597154617,-0.0007985432748682797,-0.008783976547420025,0.01996358297765255
18587139505987,-1.07379949092865,-9.80904483795166,0.043095629662275314,-0.0023956298828125,-0.007985432632267475,0.023956298828125
18587140743200,-1.1121066808700562,-9.825803756713867,0.028730420395731926,-0.0029279920272529125,-0.0090501569211483,0.0215606689453125
18587141980350,-1.070208191871643,-9.7791166305542,0.05267243832349777,-0.00692070834338665,-0.00692070834338665,0.01889885775744915
18587143217525,-1.1001356840133667,-9.834183692932129,0.07182604819536209,-0.008783976547420025,-0.0090501569211483,0.0191650390625
18587144454750,-1.0797849893569946,-9.800664901733398,0.05506663769483566,-0.0071868896484375,-0.00931633822619915,0.0220930315554142
18587145691912,-1.095347285270691,-9.793481826782227,0.03950432687997818,-0.0066545275039970875,-0.00958251953125,0.02129448764026165
18587146929112,-1.0905588865280151,-9.770737648010254,0.08738835901021957,-0.00931633822619915,-0.007453070487827063,0.014906140975654125
18587148166275,-1.0654197931289673,-9.750386238098145,0.0694318488240242,-0.01117960549890995,-0.010647243820130825,0.0162370465695858
18587149403462,-1.116895079612732,-9.733627319335938,0.090979665517807,-0.005057440605014563,-0.00984870083630085,0.0167694091796875
18587150640650,-1.07379949092865,-9.726444244384766,0.0694318488240242,-0.01117960549890995,-0.0026618109550327063,0.0223592109978199
18587151877837,-1.0749965906143188,-9.732430458068848,0.12330138683319092,-0.00958251953125,-0.00692070834338665,0.0210283063352108
18587153115012,-1.049857497215271,-9.703699111938477,0.05027823522686958,-0.0026618109550327063,-0.0071868896484375,0.0162370465695858
18587154352200,-1.0366894006729126,-9.697713851928711,0.11013327538967133,-0.008517795242369175,-0.0090501569211483,0.01463996060192585
18587155589387,-1.0235211849212646,-9.707290649414062,0.10773907601833344,-0.015172322280704975,-0.008783976547420025,0.01943122036755085
18587156826562,-1.0546458959579468,-9.725247383117676,0.06823474913835526,-0.00958251953125,-0.010114881210029125,0.01996358297765255
18587158063762,-1.1049240827560425,-9.704896926879883,0.06823474913835526,-0.010114881210029125,-0.0063883461989462376,0.015438503585755825
18587159300925,-1.0833762884140015,-9.708487510681152,0.05506663769483566,-0.007985432632267475,-0.005855984054505825,0.01756795309484005
18587160538100,-1.0414777994155884,-9.697713851928711,0.08379705995321274,-0.008251613937318325,-0.008517795242369175,0.02182685025036335
18587161775300,-1.0187327861785889,-9.737218856811523,0.07302315533161163,-0.010114881210029125,-0.004791259765625,0.02369011752307415
18587163012475,-1.0247182846069336,-9.694122314453125,0.1280897855758667,-0.0090501569211483,-0.00958251953125,0.01650322787463665
18587164249662,-1.0534487962722778,-9.743204116821289,0.08140286058187485,-0.0090501569211483,-0.007453070487827063,0.02076212503015995
18587165486837,-0.9971849918365479,-9.738415718078613,0.06584054976701736,-0.010647243820130825,-0.0114457868039608,0.0223592109978199
18587166724037,-1.0642226934432983,-9.68813705444336,0.04189852997660637,-0.01224433071911335,-0.01224433071911335,0.02022976242005825
18587167961212,-1.1001356840133667,-9.720458984375,0.07062894850969315,-0.00931633822619915,-0.007453070487827063,0.02129448764026165
18587169198387,-1.0426748991012573,-9.713275909423828,0.061052143573760986,-0.0053236219100654125,-0.0090501569211483,0.02555338479578495
18587170435575,-1.05105459690094,-9.744400978088379,0.03711012750864029,-0.0026618109550327063,-0.008251613937318325,0.0228915736079216
18587171672762,-1.0570400953292847,-9.680954933166504,0.07900865375995636,-0.00692070834338665,-0.007985432632267475,0.02315775491297245
18587172909937,-1.0223240852355957,-9.745597839355469,0.043095629662275314,-0.00931633822619915,-0.0066545275039970875,0.0191650390625
18587174147137,-1.0330979824066162,-9.678560256958008,0.07182604819536209,-0.0063883461989462376,-0.005057440605014563,0.02502102218568325
18587175384325,-1.0785878896713257,-9.6618013381958,0.0586579404771328,-0.0039927163161337376,-0.005855984054505825,0.02502102218568325
18587176621512,-1.0642226934432983,-9.682151794433594,0.07422025501728058,-0.0026618109550327063,-0.005057440605014563,0.02981228195130825
18587177858687,-1.0678139925003052,-9.655815124511719,0.04908113554120064,-0.0029279920272529125,-0.0119781494140625,0.02661811001598835
18587179095887,-1.0462661981582642,-9.676166534423828,0.07541735470294952,-0.0029279920272529125,-0.00958251953125,0.023956298828125
18587180333062,-1.0307037830352783,-9.702502250671387,0.05147533863782883,-0.0005323622026480734,-0.003460354171693325,0.02262539230287075
18587181570225,-1.048660397529602,-9.695320129394531,0.02753331884741783,-0.0026618109550327063,-0.005057440605014563,0.0228915736079216
18587182807412,-1.0570400953292847,-9.66299819946289,0.028730420395731926,-0.0007985432748682797,-0.0071868896484375,0.0271504707634449
18587184044612,-1.0833762884140015,-9.679757118225098,0.07302315533161163,-0.007453070487827063,-0.006122165359556675,0.0196974016726017
18587185281787,-1.0785878896713257,-9.648633003234863,0.0454898327589035,-0.0013309054775163531,-0.006122165359556675,0.0228915736079216
18587186518962,-1.091755986213684,-9.696516990661621,0.05027823522686958,0.0010647244052961469,-0.010114881210029125,0.02422248013317585
18587187756162,-1.094150185585022,-9.679757118225098,0.04429273307323456,-0.005589802749454975,-0.008783976547420025,0.0268842913210392
18587188993312,-1.0654197931289673,-9.706093788146973,0.043095629662275314,0.0015970865497365594,-0.00984870083630085,0.0263519287109375
18587190230525,-1.072602391242981,-9.690531730651855,0.07302315533161163,0.005057440605014563,-0.0138414166867733,0.0271504707634449
18587191467700,-1.1001356840133667,-9.710882186889648,0.06584054976701736,0.0026618109550327063,-0.01117960549890995,0.0244886614382267
18587192704875,-1.114500880241394,-9.72285270690918,0.0071826050989329815,0.0042588976211845875,-0.005855984054505825,0.0271504707634449
18587193942062,-1.0989385843276978,-9.676166534423828,0.05027823522686958,0.012776692397892475,-0.0090501569211483,0.0306108258664608
18587195179250,-1.1097124814987183,-9.68813705444336,0.09217676520347595,0.0066545275039970875,-0.00692070834338665,0.0244886614382267
18587196416412,-1.116895079612732,-9.703699111938477,0.05746084079146385,0.0023956298828125,-0.0015970865497365594,0.02794901467859745
18587197653612,-1.1025298833847046,-9.697713851928711,0.038307227194309235,0.0063883461989462376,-0.0063883461989462376,0.02848137728869915
18587198890800,-1.0690110921859741,-9.702502250671387,0.06224924325942993,0.0029279920272529125,-0.00958251953125,0.02502102218568325
18587200127987,-1.1312602758407593,-9.702502250671387,0.04189852997660637,0.005589802749454975,-0.00984870083630085,0.02262539230287075
18587201365175,-1.1444283723831177,-9.697713851928711,0.06584054976701736,0.0023956298828125,-0.00958251953125,0.02369011752307415
18587202602337,-1.1049240827560425,-9.68933391571045,0.040701430290937424,0.0063883461989462376,-0.007453070487827063,0.0276828333735466
18587203839525,-1.1252747774124146,-9.684545516967773,0.05506663769483566,0.0018632676219567657,-0.00452507846057415,0.02608574740588665
18587205076725,-1.0785878896713257,-9.6989107131958,0.09576807171106339,0.005057440605014563,-0.008783976547420025,0.02794901467859745
18587206313900,-1.1049240827560425,-9.691728591918945,0.0454898327589035,0.0053236219100654125,-0.0077192517928779125,0.02022976242005825
18587207551075,-1.1037269830703735,-9.692925453186035,0.028730420395731926,0.0071868896484375,-0.0026618109550327063,0.0210283063352108
18587208788275,-1.1192892789840698,-9.6989107131958,0.0347159244120121,0.008783976547420025,-0.0063883461989462376,0.02262539230287075
18587210025437,-1.1300631761550903,-9.725247383117676,0.04429273307323456,0.01357523538172245,-0.007453070487827063,0.02369011752307415
18587211262625,-1.0965443849563599,-9.678560256958008,0.0454898327589035,0.008251613937318325,-0.01224433071911335,0.02741665206849575
18587212499825,-1.1204863786697388,-9.713275909423828,0.07062894850969315,0.007453070487827063,-0.008783976547420025,0.0204959437251091
18587213737012,-1.1575965881347656,-9.724050521850586,0.0586579404771328,0.0077192517928779125,-0.0029279920272529125,0.0210283063352108
18587214974187,-1.1468225717544556,-9.684545516967773,0.06823474913835526,0.008517795242369175,-0.006122165359556675,0.0186326764523983
18587216211362,-1.1492167711257935,-9.692925453186035,0.0802057608962059,0.013309055007994175,-0.004791259765625,0.0186326764523983
18587217448562,-1.1061211824417114,-9.680954933166504,0.06584054976701736,0.01224433071911335,0.0015970865497365594,0.01783413253724575
18587218685737,-1.1204863786697388,-9.712079048156738,0.05267243832349777,0.00958251953125,-0.0021294488105922937,0.01783413253724575
18587219922912,-1.1492167711257935,-9.712079048156738,0.06464345008134842,0.010647243820130825,-0.0037265352439135313,0.01836649514734745
18587221160100,-1.0594342947006226,-9.728838920593262,0.061052143573760986,0.01171196810901165,-0.0026618109550327063,0.01996358297765255
18587222397287,-1.1192892789840698,-9.677363395690918,0.05985504388809204,0.0063883461989462376,0.0018632676219567657,0.0138414166867733
18587223634450,-1.1468225717544556,-9.679757118225098,0.061052143573760986,0.0114457868039608,-0.0037265352439135313,0.015438503585755825
18587224871650,-1.0426748991012573,-9.731232643127441,0.05985504388809204,0.010647243820130825,-0.0053236219100654125,0.0162370465695858
18587226108812,-1.0821791887283325,-9.732430458068848,0.03950432687997818,0.01224433071911335,-0.0031941730994731188,0.0173017717897892
18587227346012,-1.1336544752120972,-9.68813705444336,0.0454898327589035,0.012510511092841625,-0.004791259765625,0.02022976242005825
18587228583175,-1.07379949092865,-9.680954933166504,0.043095629662275314,0.01117960549890995,-0.0053236219100654125,0.01756795309484005
18587229820375,-1.114500880241394,-9.655815124511719,0.07302315533161163,0.01783413253724575,-0.00692070834338665,0.0181003138422966
18587231057575,-1.1073182821273804,-9.671378135681152,0.004788403399288654,0.014906140975654125,-0.0023956298828125,0.015172322280704975
18587232294737,-1.1073182821273804,-9.68694019317627,0.06584054976701736,0.013042873702943325,-0.0010647244052961469,0.01597086526453495
18587233531925,-1.0989385843276978,-9.649829864501953,0.07900865375995636,0.015438503585755825,-0.003460354171693325,0.014906140975654125
18587234769125,-1.1061211824417114,-9.65222454071045,0.05626374110579491,0.013309055007994175,-0.0021294488105922937,0.0157046839594841
18587236006287,-1.1324573755264282,-9.63187313079834,0.019153613597154617,0.01597086526453495,0.0029279920272529125,0.01703559048473835
18587237243487,-1.1180921792984009,-9.611522674560547,0.090979665517807,0.0191650390625,0.0005323622026480734,0.0234239362180233
18587238480675,-1.0666168928146362,-9.63187313079834,0.05626374110579491,0.02315775491297245,-0.0018632676219567657,0.01650322787463665
18587239717850,-1.1037269830703735,-9.66539192199707,0.08499415963888168,0.0247548408806324,-0.005057440605014563,0.00958251953125
18587240955025,-1.1001356840133667,-9.657012939453125,0.06224924325942993,0.02369011752307415,-0.0015970865497365594,0.0167694091796875
18587242192200,-1.137245774269104,-9.692925453186035,0.07541735470294952,0.0210283063352108,0.0002661811013240367,0.01836649514734745
18587243429400,-1.0977414846420288,-9.714473724365234,0.11013327538967133,0.02608574740588665,-0.00452507846057415,0.0191650390625
18587244666575,-1.114500880241394,-9.704896926879883,0.07661445438861847,0.0210283063352108,-0.0002661811013240367,0.013042873702943325
18587245903762,-1.1180921792984009,-9.715670585632324,0.0454898327589035,0.02129448764026165,-0.0015970865497365594,0.015172322280704975
18587247140937,-1.1563994884490967,-9.730035781860352,0.038307227194309235,0.0282151959836483,-0.0021294488105922937,0.01703559048473835
18587248378137,-1.1025298833847046,-9.75517463684082,0.031124621629714966,0.0271504707634449,-0.0023956298828125,0.01597086526453495
18587249615312,-1.1025298833847046,-9.7791166305542,0.009576806798577309,0.0295461006462574,-0.0023956298828125,0.02022976242005825
18587250852500,-1.1480196714401245,-9.781511306762695,0.08259996026754379,0.02981228195130825,-0.004791259765625,0.015438503585755825
18587252089687,-1.137245774269104,-9.87967300415039,-0.008379706181585789,0.0247548408806324,-0.0029279920272529125,0.01357523538172245
18587253326862,-1.0989385843276978,-9.880870819091797,0.02992752194404602,0.02369011752307415,-0.0010647244052961469,0.0162370465695858
18587254564050,-1.1611878871917725,-9.890447616577148,-0.015562310814857483,0.01996358297765255,0.0013309054775163531,0.0181003138422966
18587255801237,-1.113303780555725,-9.86650562286377,0.010773907415568829,0.0181003138422966,0.0013309054775163531,0.02129448764026165
18587257038425,-1.1348515748977661,-9.90241813659668,0.020350715145468712,0.0157046839594841,0.0005323622026480734,0.014906140975654125
18587258275587,-1.1540051698684692,-9.96945571899414,0.023942017927765846,0.013042873702943325,-0.0037265352439135313,0.0157046839594841
18587259512787,-1.1659762859344482,-9.964667320251465,0.0586579404771328,0.015172322280704975,0.0018632676219567657,0.0119781494140625
18587260749975,-1.2114660739898682,-9.977835655212402,0.06344634294509888,0.010647243820130825,-0.0010647244052961469,0.010913425125181675
18587261987162,-1.2114660739898682,-10.005369186401367,0.05386953800916672,0.007985432632267475,0.0005323622026480734,0.0119781494140625
18587263224337,-1.2198457717895508,-10.031704902648926,0.06224924325942993,0.0039927163161337376,0.0002661811013240367,0.010114881210029125
18587264461512,-1.2234370708465576,-10.016142845153809,0.014365210197865963,-0.0021294488105922937,-0.0013309054775163531,0.0031941730994731188
18587265698712,-1.191115379333496,-10.031704902648926,0.02753331884741783,-0.0039927163161337376,-0.0023956298828125,0.0031941730994731188
18587266935875,-1.169567584991455,-10.011354446411133,0.06344634294509888,-0.0015970865497365594,-0.0015970865497365594,0.0026618109550327063
18587268173075,-1.139639973640442,-9.996989250183105,0.04429273307323456,-0.0042588976211845875,-0.0002661811013240367,0.0037265352439135313
18587269410262,-1.1635820865631104,-10.005369186401367,0.02274491637945175,-0.00931633822619915,0.0002661811013240367,0.008783976547420025
18587270647437,-1.1013327836990356,-9.955090522766113,0.05746084079146385,-0.0173017717897892,-0.0013309054775163531,0.0013309054775163531
18587271884637,-1.091755986213684,-9.915586471557617,0.043095629662275314,-0.01703559048473835,-0.0007985432748682797,-0.0002661811013240367
18587273121800,-1.1073182821273804,-9.945513725280762,0.06344634294509888,-0.01756795309484005,0.0005323622026480734,0.0026618109550327063
18587274358987,-1.0438719987869263,-9.876082420349121,0.05027823522686958,-0.02022976242005825,0.0002661811013240367,0.0007985432748682797
18587275596162,-1.0378865003585815,-9.849745750427246,0.038307227194309235,-0.0181003138422966,0.0002661811013240367,-0.0010647244052961469
18587276833350,-1.0797849893569946,-9.81024169921875,0.033518824726343155,-0.01783413253724575,-0.00452507846057415,0.004791259765625
18587278070525,-1.0905588865280151,-9.792284965515137,0.07182604819536209,-0.0271504707634449,-0.0010647244052961469,0.006122165359556675
18587279307725,-1.0654197931289673,-9.745597839355469,0.06224924325942993,-0.02315775491297245,-0.0013309054775163531,0.0031941730994731188
18587280544900,-1.0546458959579468,-9.739612579345703,0.0802057608962059,-0.0234239362180233,-0.007453070487827063,0.008251613937318325
18587281782100,-1.0809820890426636,-9.696516990661621,0.090979665517807,-0.0234239362180233,-0.005057440605014563,0.00931633822619915
18587283019262,-1.1025298833847046,-9.720458984375,0.07781155407428741,-0.0228915736079216,-0.007453070487827063,0.00931633822619915
18587284256450,-1.094150185585022,-9.740809440612793,0.0586579404771328,-0.0220930315554142,-0.0053236219100654125,0.0162370465695858
18587285493637,-1.1109095811843872,-9.712079048156738,0.08259996026754379,-0.0196974016726017,-0.01117960549890995,0.01650322787463665
18587286730825,-1.1049240827560425,-9.716867446899414,0.06344634294509888,-0.0252872034907341,-0.012776692397892475,0.010381062515079975
18587287967987,-1.1013327836990356,-9.701305389404297,0.009576806798577309,-0.0228915736079216,-0.007453070487827063,0.0119781494140625
18587289205187,-1.0642226934432983,-9.702502250671387,0.06464345008134842,-0.0186326764523983,-0.008783976547420025,0.0173017717897892
18587290442362,-1.1312602758407593,-9.668983459472656,0.05746084079146385,-0.013309055007994175,-0.01171196810901165,0.01943122036755085
18587291679562,-1.115697979927063,-9.720458984375,0.0059855044819414616,-0.01410759799182415,-0.0186326764523983,0.02262539230287075
18587292916725,-1.0654197931289673,-9.68813705444336,0.0,-0.0157046839594841,-0.010381062515079975,0.0210283063352108
18587294153925,-1.0773907899856567,-9.701305389404297,0.002394201699644327,-0.014906140975654125,-0.00958251953125,0.0258195661008358
18587295391100,-1.1097124814987183,-9.749189376831055,0.004788403399288654,-0.012510511092841625,-0.01463996060192585,0.023956298828125
18587296628287,-1.1204863786697388,-9.736021041870117,0.02513911761343479,-0.00931633822619915,-0.0157046839594841,0.02369011752307415
18587297865475,-1.1408370733261108,-9.745597839355469,0.04788403585553169,-0.0162370465695858,-0.0162370465695858,0.02076212503015995
18587299102687,-1.071405291557312,-9.728838920593262,0.08499415963888168,-0.01783413253724575,-0.01703559048473835,0.0181003138422966
18587300339837,-1.091755986213684,-9.759963035583496,0.02753331884741783,-0.0196974016726017,-0.01889885775744915,0.0167694091796875
18587301577025,-1.137245774269104,-9.745597839355469,0.06344634294509888,-0.0258195661008358,-0.023956298828125,0.01597086526453495
18587302814212,-1.0438719987869263,-9.716867446899414,0.04189852997660637,-0.0204959437251091,-0.02129448764026165,0.0173017717897892
18587304051412,-1.1348515748977661,-9.66539192199707,0.06224924325942993,-0.01889885775744915,-0.014373779296875,0.01703559048473835
18587305288575,-1.1540051698684692,-9.658209800720215,0.09217676520347595,-0.01889885775744915,-0.01650322787463665,0.015438503585755825
18587306525762,-1.0965443849563599,-9.683348655700684,0.06224924325942993,-0.0167694091796875,-0.0167694091796875,0.01597086526453495
18587307762937,-1.0989385843276978,-9.677363395690918,0.0802057608962059,-0.012776692397892475,-0.02022976242005825,0.0186326764523983
18587309000112,-1.115697979927063,-9.66299819946289,0.038307227194309235,-0.0173017717897892,-0.02661811001598835,0.013042873702943325
18587310237325,-1.113303780555725,-9.645041465759277,0.06584054976701736,-0.015438503585755825,-0.023956298828125,0.0173017717897892
18587311474462,-1.0965443849563599,-9.65222454071045,0.017956512048840523,-0.01224433071911335,-0.0247548408806324,0.01357523538172245
18587312711662,-1.1085153818130493,-9.618705749511719,0.0694318488240242,-0.01357523538172245,-0.02848137728869915,0.00984870083630085
18587313948862,-1.1252747774124146,-9.600749015808105,0.05386953800916672,-0.0157046839594841,-0.0252872034907341,0.01171196810901165
18587315186037,-1.1276689767837524,-9.623494148254395,0.06464345008134842,-0.01224433071911335,-0.0271504707634449,0.015172322280704975
18587316423225,-1.1288660764694214,-9.600749015808105,0.07062894850969315,-0.01117960549890995,-0.0268842913210392,0.0114457868039608
18587317660400,-1.0905588865280151,-9.575610160827637,0.028730420395731926,-0.005057440605014563,-0.02794901467859745,0.00958251953125
18587318897600,-1.0977414846420288,-9.62947940826416,0.023942017927765846,0.0026618109550327063,-0.02555338479578495,0.0114457868039608
18587320134762,-1.1324573755264282,-9.603142738342285,0.03711012750864029,0.0029279920272529125,-0.0263519287109375,0.008783976547420025
18587321371975,-1.1468225717544556,-9.647436141967773,0.026336219161748886,-0.0002661811013240367,-0.0244886614382267,0.01410759799182415
18587322609137,-1.1324573755264282,-9.63187313079834,0.023942017927765846,0.0018632676219567657,-0.02422248013317585,0.01171196810901165
18587323846312,-1.1623849868774414,-9.63067626953125,0.05626374110579491,0.0005323622026480734,-0.0244886614382267,0.0039927163161337376
18587325083500,-1.1240776777267456,-9.670180320739746,0.03232172504067421,0.0005323622026480734,-0.0247548408806324,0.008251613937318325
18587326320700,-1.114500880241394,-9.696516990661621,0.017956512048840523,0.0063883461989462376,-0.0319417305290699,0.0063883461989462376
18587327557862,-1.1815385818481445,-9.708487510681152,0.05746084079146385,0.0053236219100654125,-0.0295461006462574,0.0005323622026480734
18587328795075,-1.1863269805908203,-9.739612579345703,0.04668693244457245,0.0066545275039970875,-0.0282151959836483,0.0042588976211845875
18587330032225,-1.1563994884490967,-9.756372451782227,0.07182604819536209,0.01224433071911335,-0.0271504707634449,0.0010647244052961469
18587331269412,-1.1456254720687866,-9.780314445495605,0.040701430290937424,0.0157046839594841,-0.02608574740588665,0.0029279920272529125
18587332506600,-1.1623849868774414,-9.734824180603027,0.023942017927765846,0.010114881210029125,-0.0276828333735466,-0.0015970865497365594
18587333743787,-1.1563994884490967,-9.768342971801758,0.03950432687997818,0.0167694091796875,-0.0268842913210392,-0.0029279920272529125
18587334980950,-1.1480196714401245,-9.75158405303955,0.05506663769483566,0.0186326764523983,-0.02422248013317585,-0.003460354171693325
18587336218150,-1.1444283723831177,-9.745597839355469,0.06464345008134842,0.01783413253724575,-0.0210283063352108,-0.0031941730994731188
18587337455337,-1.1540051698684692,-9.710882186889648,0.06224924325942993,0.01703559048473835,-0.02182685025036335,-0.0063883461989462376
18587338692525,-1.1587936878204346,-9.758766174316406,0.08978256583213806,0.01889885775744915,-0.0271504707634449,-0.005855984054505825
18587339929712,-1.1875240802764893,-9.761160850524902,0.07182604819536209,0.0167694091796875,-0.023956298828125,-0.00931633822619915
18587341166887,-1.1420341730117798,-9.738415718078613,0.05027823522686958,0.015438503585755825,-0.023956298828125,-0.0119781494140625
18587342404075,-1.1516109704971313,-9.765949249267578,0.021547814831137657,0.0196974016726017,-0.02794901467859745,-0.0114457868039608
18587343641250,-1.1827356815338135,-9.733627319335938,0.05626374110579491,0.01889885775744915,-0.01756795309484005,-0.01650322787463665
18587344878425,-1.1444283723831177,-9.694122314453125,0.0802057608962059,0.02182685025036335,-0.02022976242005825,-0.01756795309484005
18587346115612,-1.1599907875061035,-9.738415718078613,0.07182604819536209,0.01703559048473835,-0.0167694091796875,-0.01463996060192585
18587347352812,-1.1599907875061035,-9.696516990661621,0.05386953800916672,0.01224433071911335,-0.01463996060192585,-0.02502102218568325
18587348589987,-1.138442873954773,-9.684545516967773,0.05386953800916672,0.01650322787463665,-0.0167694091796875,-0.01783413253724575
18587349827175,-1.1504138708114624,-9.701305389404297,0.08259996026754379,0.02608574740588665,-0.01996358297765255,-0.01783413253724575
18587351064362,-1.1180921792984009,-9.692925453186035,0.02753331884741783,0.02315775491297245,-0.01756795309484005,-0.0173017717897892
18587352301537,-1.1432312726974487,-9.636661529541016,0.033518824726343155,0.01889885775744915,-0.01783413253724575,-0.0167694091796875
18587353538725,-1.1671733856201172,-9.657012939453125,0.06584054976701736,0.0234239362180233,-0.014906140975654125,-0.0210283063352108
18587354775925,-1.1767501831054688,-9.633070945739746,0.07302315533161163,0.0252872034907341,-0.01357523538172245,-0.01889885775744915
18587356013087,-1.1552022695541382,-9.643844604492188,0.014365210197865963,0.023956298828125,-0.0162370465695858,-0.01783413253724575
18587357250275,-1.1587936878204346,-9.606734275817871,0.031124621629714966,0.02555338479578495,-0.01224433071911335,-0.01836649514734745
18587358487475,-1.1492167711257935,-9.659406661987305,0.004788403399288654,0.0271504707634449,-0.01224433071911335,-0.0220930315554142
18587359724662,-1.1444283723831177,-9.642647743225098,0.043095629662275314,0.01943122036755085,-0.00984870083630085,-0.02076212503015995
18587360961825,-1.1659762859344482,-9.59715747833252,0.05147533863782883,0.0228915736079216,-0.01410759799182415,-0.0204959437251091
18587362199012,-1.170764684677124,-9.658209800720215,0.016759412363171577,0.02848137728869915,-0.01171196810901165,-0.01703559048473835
18587363436200,-1.1097124814987183,-9.643844604492188,0.004788403399288654,0.02741665206849575,-0.0090501569211483,-0.01889885775744915
18587364673387,-1.137245774269104,-9.645041465759277,0.017956512048840523,0.0292799212038517,-0.005589802749454975,-0.0181003138422966
18587365910562,-1.1001356840133667,-9.647436141967773,0.014365210197865963,0.0282151959836483,-0.006122165359556675,-0.01463996060192585
18587367147737,-1.1228805780410767,-9.654618263244629,0.0035913025494664907,0.0282151959836483,-0.003460354171693325,-0.01943122036755085
18587368384937,-1.1408370733261108,-9.682151794433594,0.06823474913835526,0.02874755859375,-0.005057440605014563,-0.01703559048473835
18587369622112,-1.1001356840133667,-9.712079048156738,0.05985504388809204,0.0282151959836483,-0.0077192517928779125,-0.0181003138422966
18587370859312,-1.114500880241394,-9.713275909423828,0.033518824726343155,0.03087700717151165,-0.007985432632267475,-0.01597086526453495
18587372096475,-1.114500880241394,-9.732430458068848,0.06344634294509888,0.0372653529047966,-0.010114881210029125,-0.012776692397892475
18587373333650,-1.1037269830703735,-9.710882186889648,0.06584054976701736,0.0300784632563591,-0.01171196810901165,-0.01224433071911335
18587374570862,-1.0809820890426636,-9.694122314453125,0.06584054976701736,0.02901373989880085,-0.00452507846057415,-0.015172322280704975
18587375808025,-1.116895079612732,-9.701305389404297,0.04908113554120064,0.0338049978017807,-0.0071868896484375,-0.014906140975654125
18587377045237,-1.1013327836990356,-9.724050521850586,0.08499415963888168,0.0338049978017807,-0.005057440605014563,-0.010913425125181675
18587378282400,-1.1013327836990356,-9.744400978088379,0.10175357013940811,0.0343373604118824,-0.0066545275039970875,-0.00692070834338665
18587379519600,-1.113303780555725,-9.667786598205566,0.09457096457481384,0.0327402763068676,-0.007985432632267475,-0.005057440605014563
18587380756775,-1.094150185585022,-9.68574333190918,0.06224924325942993,0.03034464456140995,-0.004791259765625,-0.0071868896484375
18587381993950,-1.1492167711257935,-9.701305389404297,0.07302315533161163,0.0314093679189682,-0.0010647244052961469,-0.0119781494140625
18587383231125,-1.0773907899856567,-9.712079048156738,0.06823474913835526,0.0372653529047966,-0.0039927163161337376,-0.007453070487827063
18587384468300,-1.1061211824417114,-9.697713851928711,0.05746084079146385,0.0372653529047966,-0.0018632676219567657,-0.003460354171693325
18587385705500,-1.1013327836990356,-9.713275909423828,0.05506663769483566,0.0375315360724926,-0.0039927163161337376,0.0018632676219567657
18587386942687,-1.0654197931289673,-9.684545516967773,0.07900865375995636,0.0348697230219841,-0.0042588976211845875,-0.0037265352439135313
18587388179875,-1.07379949092865,-9.673771858215332,0.10175357013940811,0.0354020856320858,-0.0031941730994731188,-0.0063883461989462376
18587389417062,-1.0582371950149536,-9.666589736938477,0.10654197633266449,0.0362006276845932,-0.0018632676219567657,-0.005057440605014563
18587390654250,-1.0821791887283325,-9.697713851928711,0.02992752194404602,0.0388624407351017,0.0010647244052961469,-0.0031941730994731188
18587391891412,-1.0977414846420288,-9.68694019317627,0.0933738648891449,0.042855154722929,0.0002661811013240367,0.0026618109550327063
18587393128625,-1.072602391242981,-9.66419506072998,0.05626374110579491,0.033272635191679,-0.0031941730994731188,0.0005323622026480734
18587394365800,-1.0450690984725952,-9.676166534423828,0.05985504388809204,0.0362006276845932,-0.0029279920272529125,-0.0013309054775163531
18587395602987,-1.0546458959579468,-9.660603523254395,0.07422025501728058,0.038063894957304,-0.0021294488105922937,-0.0026618109550327063
