timestamp_ns,accel_x,accel_y,accel_z,gyro_x,gyro_y,gyro_z
18166404560662,-1.1683704853057861,-9.423578262329102,-0.27413609623908997,-0.03034464456140995,-0.0173017717897892,0.02182685025036335
18166405798100,-1.1240776777267456,-9.434351921081543,-0.2908955216407776,-0.0314093679189682,-0.0138414166867733,0.01171196810901165
18166407035587,-1.1552022695541382,-9.418789863586426,-0.3076549172401428,-0.03087700717151165,-0.015172322280704975,0.0114457868039608
18166408273050,-1.1755530834197998,-9.419986724853516,-0.29807811975479126,-0.02555338479578495,-0.013309055007994175,0.013042873702943325
18166409510512,-1.1899182796478271,-9.454702377319336,-0.27892449498176575,-0.02262539230287075,-0.01357523538172245,0.0119781494140625
18166410748000,-1.1743559837341309,-9.430760383605957,-0.26336219906806946,-0.0228915736079216,-0.0138414166867733,0.015172322280704975
18166411985462,-1.173158884048462,-9.427168846130371,-0.28730419278144836,-0.01756795309484005,-0.012776692397892475,0.008783976547420025
18166413222937,-1.1683704853057861,-9.487024307250977,-0.28371289372444153,-0.01224433071911335,-0.01463996060192585,0.0042588976211845875
18166414460425,-1.1887211799621582,-9.521739959716797,-0.30047231912612915,-0.0119781494140625,-0.01650322787463665,0.007985432632267475
18166415697850,-1.2342109680175781,-9.475052833557129,-0.3363853394985199,-0.0066545275039970875,-0.01650322787463665,0.01117960549890995
18166416935350,-1.2473790645599365,-9.479841232299805,-0.28969842195510864,-0.0066545275039970875,-0.0162370465695858,0.006122165359556675
18166418172812,-1.2401964664459229,-9.544485092163086,-0.33518823981285095,-0.00931633822619915,-0.0162370465695858,0.0042588976211845875
18166419410275,-1.2509703636169434,-9.591172218322754,-0.3208230435848236,-0.0029279920272529125,-0.012776692397892475,0.00452507846057415
18166420647737,-1.2102689743041992,-9.617507934570312,-0.3519476652145386,0.0039927163161337376,-0.010647243820130825,0.005589802749454975
18166421885212,-1.2413935661315918,-9.634267807006836,-0.3866635859012604,0.0013309054775163531,-0.00984870083630085,0.0023956298828125
18166423122687,-1.2521674633026123,-9.627084732055664,-0.41778820753097534,0.008251613937318325,-0.01117960549890995,0.0042588976211845875
18166424360175,-1.2330138683319092,-9.6618013381958,-0.39624038338661194,0.00452507846057415,-0.01117960549890995,0.0015970865497365594
18166425597612,-1.2473790645599365,-9.72165584564209,-0.38067808747291565,0.0077192517928779125,-0.012510511092841625,0.00452507846057415
18166426835112,-1.260547161102295,-9.704896926879883,-0.3711012601852417,0.010381062515079975,-0.010381062515079975,0.0090501569211483
18166428072562,-1.235408067703247,-9.734824180603027,-0.33997663855552673,0.0157046839594841,-0.007453070487827063,0.0066545275039970875
18166429310050,-1.2258312702178955,-9.764751434326172,-0.333991140127182,0.010647243820130825,-0.006122165359556675,0.004791259765625
18166430547512,-1.2485761642456055,-9.761160850524902,-0.424970805644989,0.00984870083630085,-0.0066545275039970875,0.0018632676219567657
18166431784987,-1.2306196689605713,-9.797073364257812,-0.3818751871585846,0.01224433071911335,-0.0090501569211483,0.0037265352439135313
18166433022450,-1.2234370708465576,-9.829395294189453,-0.32202014327049255,0.013042873702943325,-0.010647243820130825,0.0042588976211845875
18166434259937,-1.2713210582733154,-9.803058624267578,-0.3519476652145386,0.0181003138422966,-0.007985432632267475,0.0029279920272529125
18166435497400,-1.256955862045288,-9.774328231811523,-0.3998316824436188,0.0173017717897892,-0.010114881210029125,0.0021294488105922937
18166436734862,-1.2509703636169434,-9.789891242980957,-0.333991140127182,0.0157046839594841,-0.00984870083630085,-0.0021294488105922937
18166437972337,-1.259350061416626,-9.800664901733398,-0.3603273630142212,0.015438503585755825,-0.0013309054775163531,0.0005323622026480734
18166439209800,-1.2689268589019775,-9.801861763000488,-0.39624038338661194,0.012776692397892475,0.0037265352439135313,0.0010647244052961469
18166440447275,-1.2737152576446533,-9.873687744140625,-0.33039984107017517,0.00984870083630085,-0.0026618109550327063,0.0002661811013240367
18166441684750,-1.3060370683670044,-9.84256362915039,-0.3292027413845062,0.0162370465695858,-0.0053236219100654125,0.003460354171693325
18166442922212,-1.2856863737106323,-9.861717224121094,-0.333991140127182,0.0162370465695858,-0.0039927163161337376,0.0029279920272529125
18166444159687,-1.3180080652236938,-9.865307807922363,-0.3519476652145386,0.01463996060192585,0.0037265352439135313,0.0018632676219567657
18166445397162,-1.2952631711959839,-9.862914085388184,-0.35434186458587646,0.01410759799182415,-0.0021294488105922937,0.0063883461989462376
18166446634625,-1.2856863737106323,-9.838972091674805,-0.37828385829925537,0.008517795242369175,0.0,-0.0042588976211845875
18166447872087,-1.2761094570159912,-9.840168952941895,-0.3842693865299225,0.01224433071911335,-0.0015970865497365594,0.0029279920272529125
18166449109562,-1.2832921743392944,-9.858125686645508,-0.36990416049957275,0.01224433071911335,0.0018632676219567657,0.010114881210029125
18166450347025,-1.3239935636520386,-9.885659217834473,-0.41060560941696167,0.010381062515079975,0.0023956298828125,0.005855984054505825
18166451584500,-1.2665326595306396,-9.8784761428833,-0.4058171808719635,0.0119781494140625,-0.0013309054775163531,0.004791259765625
18166452821975,-1.2545616626739502,-9.856928825378418,-0.43335050344467163,0.0138414166867733,0.0037265352439135313,0.00452507846057415
18166454059450,-1.1839327812194824,-9.836577415466309,-0.4058171808719635,0.0090501569211483,0.0039927163161337376,0.0066545275039970875
18166455296925,-1.2509703636169434,-9.847352027893066,-0.41060560941696167,0.00931633822619915,0.00452507846057415,0.01117960549890995
18166456534375,-1.2797008752822876,-9.84256362915039,-0.42377370595932007,0.0026618109550327063,0.00931633822619915,0.00692070834338665
18166457771862,-1.2665326595306396,-9.827000617980957,-0.4189853072166443,0.00452507846057415,0.00931633822619915,0.004791259765625
18166459009325,-1.2773066759109497,-9.832986831665039,-0.40701428055763245,0.008783976547420025,0.007985432632267475,0.0119781494140625
18166460246812,-1.236605167388916,-9.822212219238281,-0.39384618401527405,0.00692070834338665,0.007985432632267475,0.012776692397892475
18166461484275,-1.2521674633026123,-9.821015357971191,-0.37828385829925537,0.00452507846057415,0.008783976547420025,0.010114881210029125
18166462721737,-1.2054805755615234,-9.80904483795166,-0.33039984107017517,0.0010647244052961469,0.0053236219100654125,0.008783976547420025
18166463959212,-1.2437877655029297,-9.836577415466309,-0.3411737382411957,-0.0015970865497365594,0.0066545275039970875,0.00931633822619915
18166465196675,-1.2401964664459229,-9.838972091674805,-0.3495534360408783,0.0029279920272529125,0.0114457868039608,0.0119781494140625
18166466434137,-1.236605167388916,-9.817423820495605,-0.3711012601852417,-0.0023956298828125,0.0114457868039608,0.01357523538172245
18166467671625,-1.2042834758758545,-9.828198432922363,-0.35075056552886963,-0.0021294488105922937,0.010647243820130825,0.0138414166867733
18166468909100,-1.2617442607879639,-9.832986831665039,-0.3423708379268646,-0.0063883461989462376,0.0063883461989462376,0.013309055007994175
18166470146562,-1.2689268589019775,-9.768342971801758,-0.3531447649002075,-0.004791259765625,0.0063883461989462376,0.014373779296875
18166471384037,-1.2306196689605713,-9.739612579345703,-0.37469255924224854,-0.0007985432748682797,0.007453070487827063,0.01171196810901165
18166472621500,-1.2186486721038818,-9.746795654296875,-0.3519476652145386,-0.00958251953125,0.012510511092841625,0.00984870083630085
18166473858975,-1.2641384601593018,-9.707290649414062,-0.3579331636428833,-0.008517795242369175,0.012776692397892475,0.010114881210029125
18166475096412,-1.2078747749328613,-9.734824180603027,-0.33518823981285095,-0.008251613937318325,0.0138414166867733,0.008251613937318325
18166476333912,-1.2425906658172607,-9.692925453186035,-0.4321534037590027,-0.008251613937318325,0.010114881210029125,0.010381062515079975
18166477571375,-1.2509703636169434,-9.703699111938477,-0.3866635859012604,-0.013042873702943325,0.01410759799182415,0.008517795242369175
18166478808875,-1.2342109680175781,-9.730035781860352,-0.35075056552886963,-0.00958251953125,0.007453070487827063,0.0063883461989462376
18166480046312,-1.2641384601593018,-9.745597839355469,-0.40462008118629456,-0.010114881210029125,0.007453070487827063,0.010913425125181675
18166481283800,-1.2545616626739502,-9.733627319335938,-0.3866635859012604,-0.00931633822619915,0.01171196810901165,0.00958251953125
18166482521262,-1.2270283699035645,-9.757569313049316,-0.395043283700943,-0.007985432632267475,0.008783976547420025,0.0053236219100654125
18166483758725,-1.2557587623596191,-9.799468040466309,-0.41539400815963745,-0.0066545275039970875,0.01650322787463665,0.0077192517928779125
18166484996200,-1.2641384601593018,-9.834183692932129,-0.39384618401527405,-0.010381062515079975,0.014906140975654125,0.010114881210029125
18166486233662,-1.2270283699035645,-9.815030097961426,-0.4189853072166443,-0.005855984054505825,0.012510511092841625,0.012776692397892475
18166487471150,-1.2270283699035645,-9.895236015319824,-0.4082113802433014,-0.008251613937318325,0.014906140975654125,0.01224433071911335
18166488708612,-1.2773066759109497,-9.890447616577148,-0.4165911078453064,-0.00931633822619915,0.01117960549890995,0.0063883461989462376
18166489946087,-1.2425906658172607,-9.886856079101562,-0.4010287821292877,-0.007985432632267475,0.0071868896484375,0.01224433071911335
18166491183562,-1.2054805755615234,-9.889249801635742,-0.39624038338661194,-0.01224433071911335,0.0090501569211483,0.012510511092841625
18166492421037,-1.238999366760254,-9.880870819091797,-0.37469255924224854,-0.01783413253724575,0.014906140975654125,0.013042873702943325
18166493658512,-1.2617442607879639,-9.895236015319824,-0.39384618401527405,-0.01224433071911335,0.01650322787463665,0.0162370465695858
18166494895962,-1.2078747749328613,-9.873687744140625,-0.3711012601852417,-0.01224433071911335,0.01756795309484005,0.01224433071911335
18166496133450,-1.2246341705322266,-9.84256362915039,-0.35673606395721436,-0.0167694091796875,0.0228915736079216,0.01117960549890995
18166497370900,-1.2282254695892334,-9.815030097961426,-0.3495534360408783,-0.0181003138422966,0.01224433071911335,0.01410759799182415
18166498608400,-1.191115379333496,-9.783905029296875,-0.3411737382411957,-0.015172322280704975,0.0114457868039608,0.013309055007994175
18166499845837,-1.2497732639312744,-9.757569313049316,-0.3423708379268646,-0.013042873702943325,0.01703559048473835,0.008517795242369175
18166501083300,-1.2102689743041992,-9.759963035583496,-0.2968810200691223,-0.010114881210029125,0.01650322787463665,0.0119781494140625
18166502320787,-1.170764684677124,-9.734824180603027,-0.33518823981285095,-0.008517795242369175,0.012776692397892475,0.0138414166867733
18166503558237,-1.2186486721038818,-9.710882186889648,-0.33279404044151306,-0.015438503585755825,0.013309055007994175,0.01224433071911335
18166504795712,-1.2413935661315918,-9.653421401977539,-0.304063618183136,-0.013042873702943325,0.01410759799182415,0.0090501569211483
18166506033200,-1.2006921768188477,-9.674968719482422,-0.3232172429561615,-0.01171196810901165,0.012776692397892475,0.007985432632267475
18166507270662,-1.1659762859344482,-9.643844604492188,-0.35913026332855225,-0.0114457868039608,0.0119781494140625,0.005057440605014563
18166508508137,-1.212663173675537,-9.684545516967773,-0.3794809579849243,-0.00452507846057415,0.01171196810901165,0.0090501569211483
18166509745612,-1.2258312702178955,-9.68574333190918,-0.3363853394985199,-0.005855984054505825,0.015172322280704975,0.0053236219100654125
18166510983062,-1.2234370708465576,-9.676166534423828,-0.35075056552886963,-0.0053236219100654125,0.008517795242369175,0.0063883461989462376
18166512220562,-1.2330138683319092,-9.72285270690918,-0.3926490843296051,-0.0063883461989462376,0.0090501569211483,0.0029279920272529125
18166513458025,-1.256955862045288,-9.764751434326172,-0.4165911078453064,-0.00931633822619915,0.00692070834338665,0.0007985432748682797
18166514695500,-1.2282254695892334,-9.789891242980957,-0.395043283700943,-0.00931633822619915,0.008783976547420025,0.0010647244052961469
18166515932962,-1.2270283699035645,-9.780314445495605,-0.3974374830722809,-0.008251613937318325,0.01171196810901165,-0.0039927163161337376
18166517170437,-1.2401964664459229,-9.818621635437012,-0.4189853072166443,-0.0090501569211483,0.015172322280704975,-0.0021294488105922937
18166518407900,-1.2449848651885986,-9.862914085388184,-0.41778820753097534,-0.008251613937318325,0.012776692397892475,-0.0031941730994731188
18166519645375,-1.2318167686462402,-9.831789016723633,-0.42377370595932007,-0.0066545275039970875,0.0090501569211483,0.004791259765625
18166520882850,-1.2653355598449707,-9.828198432922363,-0.39863458275794983,-0.00931633822619915,0.010913425125181675,0.0
18166522120325,-1.2509703636169434,-9.803058624267578,-0.4141969084739685,-0.014373779296875,0.0119781494140625,-0.00692070834338665
18166523357787,-1.2808979749679565,-9.816226959228516,-0.3758896589279175,-0.0119781494140625,0.012776692397892475,-0.0077192517928779125
18166524595250,-1.2042834758758545,-9.745597839355469,-0.36990416049957275,-0.012776692397892475,0.01224433071911335,-0.0090501569211483
18166525832737,-1.2030863761901855,-9.750386238098145,-0.37828385829925537,-0.014373779296875,0.01410759799182415,-0.00984870083630085
18166527070187,-1.2006921768188477,-9.733627319335938,-0.31364041566848755,-0.00984870083630085,0.01171196810901165,-0.0066545275039970875
18166528307675,-1.2114660739898682,-9.657012939453125,-0.3579331636428833,-0.008251613937318325,0.00958251953125,-0.008251613937318325
18166529545150,-1.1671733856201172,-9.599552154541016,-0.3926490843296051,-0.008517795242369175,0.00692070834338665,-0.00931633822619915
18166530782587,-1.1767501831054688,-9.593565940856934,-0.37229835987091064,-0.0037265352439135313,0.00984870083630085,-0.00931633822619915
18166532020087,-1.1528080701828003,-9.601945877075195,-0.34835633635520935,-0.0071868896484375,0.012510511092841625,-0.01410759799182415
18166533257562,-1.173158884048462,-9.63187313079834,-0.36750996112823486,-0.008517795242369175,0.008251613937318325,-0.013042873702943325
18166534495025,-1.1839327812194824,-9.57201862335205,-0.35434186458587646,-0.0015970865497365594,0.008251613937318325,-0.015438503585755825
18166535732475,-1.171961784362793,-9.606734275817871,-0.3878606855869293,-0.0013309054775163531,0.006122165359556675,-0.01756795309484005
18166536969962,-1.1743559837341309,-9.583989143371582,-0.35673606395721436,-0.00452507846057415,0.0066545275039970875,-0.01836649514734745
18166538207425,-1.1791443824768066,-9.569623947143555,-0.41060560941696167,0.0007985432748682797,0.0071868896484375,-0.01836649514734745
18166539444912,-1.2090718746185303,-9.66539192199707,-0.39145198464393616,0.0029279920272529125,0.0037265352439135313,-0.02076212503015995
18166540682387,-1.2186486721038818,-9.66299819946289,-0.38307228684425354,0.0042588976211845875,0.00452507846057415,-0.01943122036755085
18166541919825,-1.215057373046875,-9.65222454071045,-0.3842693865299225,0.0037265352439135313,0.005855984054505825,-0.0223592109978199
18166543157312,-1.2198457717895508,-9.670180320739746,-0.4010287821292877,0.01117960549890995,0.0021294488105922937,-0.0276828333735466
18166544394787,-1.2629413604736328,-9.713275909423828,-0.4141969084739685,0.0039927163161337376,0.0053236219100654125,-0.02555338479578495
18166545632237,-1.2198457717895508,-9.68574333190918,-0.40701428055763245,0.0063883461989462376,0.0066545275039970875,-0.0247548408806324
18166546869712,-1.1982979774475098,-9.679757118225098,-0.39145198464393616,0.007985432632267475,0.0042588976211845875,-0.02661811001598835
18166548107200,-1.258152961730957,-9.660603523254395,-0.4321534037590027,0.007453070487827063,-0.0002661811013240367,-0.02848137728869915
18166549344662,-1.2186486721038818,-9.639056205749512,-0.45848962664604187,0.01410759799182415,0.008517795242369175,-0.0244886614382267
18166550582137,-1.192312479019165,-9.605537414550781,-0.43095630407333374,0.01357523538172245,0.012510511092841625,-0.02502102218568325
18166551819612,-1.193509578704834,-9.567230224609375,-0.4213795065879822,0.0090501569211483,0.0053236219100654125,-0.02608574740588665
18166553057075,-1.1516109704971313,-9.624691009521484,-0.4345476031303406,0.014373779296875,0.0,-0.03034464456140995
18166554294550,-1.1528080701828003,-9.59476375579834,-0.4572925269603729,0.0186326764523983,0.0023956298828125,-0.033272635191679
18166555532012,-1.2042834758758545,-9.581595420837402,-0.4118027091026306,0.0173017717897892,0.010114881210029125,-0.02901373989880085
18166556769475,-1.2234370708465576,-9.564835548400879,-0.40701428055763245,0.0181003138422966,0.005855984054505825,-0.0324740931391716
18166558006950,-1.2294225692749023,-9.601945877075195,-0.3794809579849243,0.02129448764026165,0.0053236219100654125,-0.0348697230219841
18166559244425,-1.2210428714752197,-9.593565940856934,-0.424970805644989,0.0247548408806324,0.0042588976211845875,-0.0354020856320858
18166560481900,-1.2270283699035645,-9.607931137084961,-0.40940847992897034,0.0244886614382267,0.0042588976211845875,-0.033272635191679
18166561719362,-1.1982979774475098,-9.659406661987305,-0.38307228684425354,0.02262539230287075,0.005057440605014563,-0.0388624407351017
18166562956825,-1.236605167388916,-9.639056205749512,-0.43335050344467163,0.02182685025036335,0.0018632676219567657,-0.0354020856320858
18166564194312,-1.1851298809051514,-9.659406661987305,-0.3998316824436188,0.0223592109978199,0.0018632676219567657,-0.038063894957304
18166565431775,-1.260547161102295,-9.670180320739746,-0.40701428055763245,0.0223592109978199,0.0015970865497365594,-0.038063894957304
18166566669262,-1.2665326595306396,-9.683348655700684,-0.3926490843296051,0.0276828333735466,0.0007985432748682797,-0.033538818359375
18166567906725,-1.237802267074585,-9.71926212310791,-0.37828385829925537,0.0276828333735466,0.0053236219100654125,-0.0367329902946949
18166569144200,-1.2425906658172607,-9.720458984375,-0.46327802538871765,0.0292799212038517,0.0018632676219567657,-0.0354020856320858
18166570381650,-1.256955862045288,-9.68694019317627,-0.46327802538871765,0.0292799212038517,0.003460354171693325,-0.0354020856320858
18166571619150,-1.1994950771331787,-9.733627319335938,-0.4991910457611084,0.02874755859375,-0.0002661811013240367,-0.0354020856320858
18166572856612,-1.2078747749328613,-9.718064308166504,-0.48602294921875,0.0311431884765625,0.0037265352439135313,-0.02981228195130825
18166574094075,-1.258152961730957,-9.746795654296875,-0.4321534037590027,0.03087700717151165,0.0018632676219567657,-0.0324740931391716
18166575331550,-1.217451572418213,-9.737218856811523,-0.46088382601737976,0.0311431884765625,0.0023956298828125,-0.0322079136967659
18166576569025,-1.2066776752471924,-9.690531730651855,-0.4141969084739685,0.0338049978017807,0.0013309054775163531,-0.0276828333735466
18166577806475,-1.193509578704834,-9.714473724365234,-0.4297592043876648,0.0319417305290699,0.0021294488105922937,-0.0268842913210392
18166579043975,-1.237802267074585,-9.724050521850586,-0.4165911078453064,0.0322079136967659,0.005057440605014563,-0.02608574740588665
18166580281425,-1.2246341705322266,-9.696516990661621,-0.42377370595932007,0.03087700717151165,0.0005323622026480734,-0.0271504707634449
18166581518887,-1.2425906658172607,-9.643844604492188,-0.39863458275794983,0.0319417305290699,0.0021294488105922937,-0.02794901467859745
18166582756375,-1.2306196689605713,-9.673771858215332,-0.363918662071228,0.02794901467859745,0.008783976547420025,-0.0306108258664608
18166583993825,-1.217451572418213,-9.65222454071045,-0.395043283700943,0.0346035435795784,0.006122165359556675,-0.02901373989880085
18166585231312,-1.2449848651885986,-9.645041465759277,-0.4058171808719635,0.0300784632563591,0.010114881210029125,-0.0306108258664608
18166586468787,-1.217451572418213,-9.624691009521484,-0.3627215623855591,0.03034464456140995,0.0010647244052961469,-0.02794901467859745
18166587706237,-1.2186486721038818,-9.600749015808105,-0.37469255924224854,0.0319417305290699,-0.0037265352439135313,-0.02901373989880085
18166588943712,-1.2054805755615234,-9.580398559570312,-0.3842693865299225,0.0295461006462574,0.0018632676219567657,-0.02981228195130825
18166590181200,-1.1803414821624756,-9.556456565856934,-0.3387795388698578,0.0338049978017807,0.0037265352439135313,-0.0276828333735466
18166591418662,-1.2090718746185303,-9.604340553283691,-0.4010287821292877,0.0364668108522892,0.0007985432748682797,-0.02661811001598835
18166592656137,-1.1827356815338135,-9.5624418258667,-0.3902548849582672,0.0362006276845932,-0.0002661811013240367,-0.0268842913210392
18166593893600,-1.1599907875061035,-9.556456565856934,-0.38905778527259827,0.0351359061896801,0.005589802749454975,-0.0292799212038517
18166595131075,-1.1528080701828003,-9.5408935546875,-0.40701428055763245,0.0377977155148983,0.0018632676219567657,-0.0276828333735466
18166596368550,-1.2066776752471924,-9.564835548400879,-0.4118027091026306,0.0433875173330307,0.0002661811013240367,-0.02555338479578495
18166597606000,-1.1791443824768066,-9.578003883361816,-0.41539400815963745,0.0359344482421875,0.0005323622026480734,-0.0322079136967659
18166598843487,-1.1252747774124146,-9.618705749511719,-0.4381389021873474,0.0367329902946949,0.0007985432748682797,-0.0282151959836483
18166600080962,-1.1348515748977661,-9.622296333312988,-0.4357447028160095,0.0346035435795784,0.004791259765625,-0.023956298828125
18166601318437,-1.173158884048462,-9.619902610778809,-0.41299980878829956,0.0356682650744915,0.0090501569211483,-0.02794901467859745
18166602555912,-1.170764684677124,-9.618705749511719,-0.4058171808719635,0.0396609827876091,0.0021294488105922937,-0.0295461006462574
18166603793362,-1.1803414821624756,-9.591172218322754,-0.36990416049957275,0.0415242500603199,0.003460354171693325,-0.02661811001598835
18166605030850,-1.1611878871917725,-9.607931137084961,-0.39384618401527405,0.0388624407351017,0.0015970865497365594,-0.02661811001598835
18166606268325,-1.1420341730117798,-9.647436141967773,-0.39624038338661194,0.0425889752805233,0.0037265352439135313,-0.0271504707634449
18166607505775,-1.170764684677124,-9.647436141967773,-0.3687070608139038,0.0452507846057415,0.004791259765625,-0.0322079136967659
18166608743237,-1.1755530834197998,-9.646238327026367,-0.33039984107017517,0.0439198799431324,0.0015970865497365594,-0.02874755859375
18166609980725,-1.1671733856201172,-9.668983459472656,-0.37469255924224854,0.0412580706179142,0.0,-0.0258195661008358
18166611218212,-1.194706678390503,-9.678560256958008,-0.3579331636428833,0.0439198799431324,-0.0010647244052961469,-0.0263519287109375
18166612455662,-1.1755530834197998,-9.68694019317627,-0.39624038338661194,0.0439198799431324,0.0,-0.02901373989880085
18166613693137,-1.215057373046875,-9.65222454071045,-0.3842693865299225,0.0420566126704216,0.008251613937318325,-0.0258195661008358
18166614930587,-1.1863269805908203,-9.696516990661621,-0.3902548849582672,0.0447184219956398,0.0037265352439135313,-0.0228915736079216
18166616168087,-1.194706678390503,-9.706093788146973,-0.41539400815963745,0.0401933453977108,0.0007985432748682797,-0.0271504707634449
18166617405550,-1.1887211799621582,-9.71926212310791,-0.38307228684425354,0.0420566126704216,0.0023956298828125,-0.02741665206849575
18166618643000,-1.2042834758758545,-9.724050521850586,-0.39145198464393616,0.0417904332280159,0.0031941730994731188,-0.02422248013317585
18166619880487,-1.1659762859344482,-9.762357711791992,-0.4034229815006256,0.0393948033452034,-0.0010647244052961469,-0.023956298828125
18166621117962,-1.1755530834197998,-9.770737648010254,-0.4141969084739685,0.0399271659553051,-0.0013309054775163531,-0.02315775491297245
18166622355425,-1.1563994884490967,-9.781511306762695,-0.41778820753097534,0.038330078125,-0.0007985432748682797,-0.0228915736079216
18166623592887,-1.1444283723831177,-9.75397777557373,-0.4058171808719635,0.0362006276845932,-0.0010647244052961469,-0.01996358297765255
18166624830362,-1.1803414821624756,-9.787496566772461,-0.4213795065879822,0.0362006276845932,-0.008251613937318325,-0.01703559048473835
18166626067850,-1.1803414821624756,-9.823410034179688,-0.4381389021873474,0.0407257080078125,-0.0023956298828125,-0.0204959437251091
18166627305312,-1.2042834758758545,-9.838972091674805,-0.39624038338661194,0.0348697230219841,0.0002661811013240367,-0.0138414166867733
18166628542775,-1.1982979774475098,-9.847352027893066,-0.41778820753097534,0.0359344482421875,0.0007985432748682797,-0.01597086526453495
18166629780237,-1.1348515748977661,-9.884461402893066,-0.40222588181495667,0.03034464456140995,0.005855984054505825,-0.015172322280704975
18166631017737,-1.1803414821624756,-9.841365814208984,-0.45250412821769714,0.0330064557492733,0.0010647244052961469,-0.00984870083630085
18166632255200,-1.1755530834197998,-9.804256439208984,-0.4465186297893524,0.0282151959836483,0.003460354171693325,-0.01410759799182415
18166633492675,-1.213860273361206,-9.821015357971191,-0.4189853072166443,0.0306108258664608,-0.0007985432748682797,-0.008251613937318325
18166634730137,-1.2042834758758545,-9.767146110534668,-0.42377370595932007,0.0300784632563591,-0.0026618109550327063,-0.005855984054505825
18166635967600,-1.1971008777618408,-9.77552604675293,-0.3842693865299225,0.02901373989880085,-0.00452507846057415,-0.007985432632267475
18166637205087,-1.173158884048462,-9.724050521850586,-0.4429273307323456,0.02901373989880085,-0.0042588976211845875,-0.005855984054505825
18166638442537,-1.1480196714401245,-9.68813705444336,-0.3627215623855591,0.0268842913210392,-0.0042588976211845875,-0.007453070487827063
18166639680012,-1.1492167711257935,-9.66539192199707,-0.4118027091026306,0.023956298828125,-0.0039927163161337376,-0.005855984054505825
18166640917487,-1.1587936878204346,-9.701305389404297,-0.3770867586135864,0.02422248013317585,-0.0015970865497365594,-0.008251613937318325
18166642154962,-1.1516109704971313,-9.68574333190918,-0.41778820753097534,0.0271504707634449,-0.0021294488105922937,-0.0063883461989462376
18166643392425,-1.1468225717544556,-9.704896926879883,-0.37469255924224854,0.0276828333735466,-0.003460354171693325,-0.0090501569211483
18166644629900,-1.1994950771331787,-9.683348655700684,-0.3711012601852417,0.0268842913210392,-0.0066545275039970875,-0.005855984054505825
18166645867362,-1.192312479019165,-9.727641105651855,-0.38905778527259827,0.0244886614382267,-0.004791259765625,0.0
18166647104837,-1.2270283699035645,-9.668983459472656,-0.3818751871585846,0.02502102218568325,-0.007453070487827063,-0.007985432632267475
18166648342325,-1.2653355598449707,-9.68933391571045,-0.42856210470199585,0.0223592109978199,-0.007985432632267475,-0.0066545275039970875
18166649579775,-1.2186486721038818,-9.727641105651855,-0.4345476031303406,0.0210283063352108,-0.005855984054505825,-0.0063883461989462376
18166650817262,-1.217451572418213,-9.75278091430664,-0.456095427274704,0.02422248013317585,-0.005589802749454975,-0.0063883461989462376
18166652054725,-1.217451572418213,-9.75397777557373,-0.4010287821292877,0.0234239362180233,-0.0063883461989462376,-0.0039927163161337376
18166653292187,-1.2342109680175781,-9.804256439208984,-0.4465186297893524,0.02262539230287075,-0.0114457868039608,-0.0002661811013240367
18166654529662,-1.2066776752471924,-9.797073364257812,-0.4465186297893524,0.02315775491297245,-0.013042873702943325,0.0015970865497365594
18166655767137,-1.2497732639312744,-9.827000617980957,-0.4596867263317108,0.023956298828125,-0.003460354171693325,0.0063883461989462376
18166657004612,-1.1779472827911377,-9.853337287902832,-0.4429273307323456,0.02129448764026165,-0.0031941730994731188,0.010913425125181675
18166658242100,-1.1504138708114624,-9.850942611694336,-0.48602294921875,0.02262539230287075,-0.0090501569211483,0.005855984054505825
18166659479562,-1.116895079612732,-9.858125686645508,-0.5039794445037842,0.0220930315554142,-0.01357523538172245,0.0063883461989462376
18166660717012,-1.1013327836990356,-9.836577415466309,-0.42377370595932007,0.0215606689453125,-0.00958251953125,0.014373779296875
18166661954475,-1.1037269830703735,-9.783905029296875,-0.4213795065879822,0.02076212503015995,-0.0077192517928779125,0.007985432632267475
18166663191975,-1.170764684677124,-9.81024169921875,-0.3974374830722809,0.0215606689453125,-0.01224433071911335,0.010913425125181675
18166664429425,-1.1228805780410767,-9.783905029296875,-0.43694180250167847,0.01943122036755085,-0.01597086526453495,0.0138414166867733
18166665666900,-1.095347285270691,-9.750386238098145,-0.40462008118629456,0.01650322787463665,-0.01650322787463665,0.010114881210029125
18166666904375,-1.137245774269104,-9.72285270690918,-0.3292027413845062,0.01943122036755085,-0.014373779296875,0.010647243820130825
18166668141850,-1.1552022695541382,-9.731232643127441,-0.27653029561042786,0.014373779296875,-0.01889885775744915,0.0119781494140625
18166669379312,-1.1659762859344482,-9.695320129394531,-0.34356793761253357,0.01357523538172245,-0.0162370465695858,0.010647243820130825
18166670616800,-1.1552022695541382,-9.715670585632324,-0.37469255924224854,0.0191650390625,-0.01650322787463665,0.014906140975654125
18166671854262,-1.1971008777618408,-9.724050521850586,-0.304063618183136,0.01943122036755085,-0.0167694091796875,0.010913425125181675
18166673091737,-1.1480196714401245,-9.65222454071045,-0.365115761756897,0.023956298828125,-0.01650322787463665,0.010647243820130825
18166674329200,-1.1468225717544556,-9.66419506072998,-0.3495534360408783,0.0215606689453125,-0.01703559048473835,0.01597086526453495
18166675566675,-1.1755530834197998,-9.68574333190918,-0.31364041566848755,0.01410759799182415,-0.015438503585755825,0.014906140975654125
18166676804137,-1.1348515748977661,-9.676166534423828,-0.365115761756897,0.0138414166867733,-0.01597086526453495,0.01171196810901165
18166678041612,-1.1815385818481445,-9.651026725769043,-0.37469255924224854,0.0167694091796875,-0.01996358297765255,0.01224433071911335
18166679279075,-1.1779472827911377,-9.68933391571045,-0.4297592043876648,0.0210283063352108,-0.0234239362180233,0.01171196810901165
18166680516575,-1.1623849868774414,-9.700108528137207,-0.4189853072166443,0.0191650390625,-0.02315775491297245,0.014906140975654125
18166681754025,-1.1851298809051514,-9.706093788146973,-0.4345476031303406,0.01463996060192585,-0.02076212503015995,0.0191650390625
18166682991487,-1.193509578704834,-9.704896926879883,-0.4273650050163269,0.013309055007994175,-0.0191650390625,0.0090501569211483
18166684228987,-1.2018892765045166,-9.782708168029785,-0.45489832758903503,0.01171196810901165,-0.0181003138422966,0.0090501569211483
18166685466450,-1.1623849868774414,-9.747992515563965,-0.395043283700943,0.01650322787463665,-0.02129448764026165,0.015172322280704975
18166686703900,-1.1863269805908203,-9.727641105651855,-0.3866635859012604,0.01703559048473835,-0.02182685025036335,0.0167694091796875
18166687941387,-1.2198457717895508,-9.716867446899414,-0.40940847992897034,0.01756795309484005,-0.0268842913210392,0.01117960549890995
18166689178850,-1.1767501831054688,-9.720458984375,-0.39863458275794983,0.0220930315554142,-0.0268842913210392,0.012510511092841625
18166690416337,-1.1516109704971313,-9.740809440612793,-0.395043283700943,0.0220930315554142,-0.0268842913210392,0.01756795309484005
18166691653812,-1.1635820865631104,-9.747992515563965,-0.37469255924224854,0.01783413253724575,-0.0215606689453125,0.01463996060192585
18166692891262,-1.2006921768188477,-9.749189376831055,-0.3842693865299225,0.0181003138422966,-0.02608574740588665,0.01410759799182415
18166694128737,-1.1959037780761719,-9.780314445495605,-0.3818751871585846,0.02129448764026165,-0.02422248013317585,0.0204959437251091
18166695366212,-1.2114660739898682,-9.743204116821289,-0.3818751871585846,0.0223592109978199,-0.01996358297765255,0.02129448764026165
18166696603675,-1.1863269805908203,-9.767146110534668,-0.3770867586135864,0.02422248013317585,-0.02741665206849575,0.02022976242005825
18166697841137,-1.2042834758758545,-9.757569313049316,-0.36750996112823486,0.0228915736079216,-0.02794901467859745,0.0204959437251091
18166699078612,-1.1683704853057861,-9.78869342803955,-0.4213795065879822,0.02422248013317585,-0.02848137728869915,0.0173017717897892
18166700316100,-1.1444283723831177,-9.770737648010254,-0.40940847992897034,0.02129448764026165,-0.0292799212038517,0.015438503585755825
18166701553562,-1.170764684677124,-9.75397777557373,-0.34835633635520935,0.01783413253724575,-0.0271504707634449,0.0173017717897892
18166702791037,-1.1480196714401245,-9.791088104248047,-0.3555389642715454,0.02262539230287075,-0.0300784632563591,0.01996358297765255
18166704028500,-1.194706678390503,-9.787496566772461,-0.36152446269989014,0.02315775491297245,-0.0367329902946949,0.0228915736079216
18166705265975,-1.1851298809051514,-9.757569313049316,-0.38307228684425354,0.0228915736079216,-0.033272635191679,0.02315775491297245
18166706503450,-1.1552022695541382,-9.799468040466309,-0.3531447649002075,0.01943122036755085,-0.03087700717151165,0.02315775491297245
18166707740925,-1.171961784362793,-9.792284965515137,-0.3555389642715454,0.01996358297765255,-0.0330064557492733,0.02262539230287075
18166708978387,-1.1971008777618408,-9.761160850524902,-0.33758243918418884,0.01836649514734745,-0.0348697230219841,0.02741665206849575
18166710215862,-1.2042834758758545,-9.782708168029785,-0.3292027413845062,0.01943122036755085,-0.0338049978017807,0.0306108258664608
18166711453337,-1.1827356815338135,-9.822212219238281,-0.395043283700943,0.01889885775744915,-0.0351359061896801,0.0210283063352108
18166712690800,-1.1994950771331787,-9.818621635437012,-0.3770867586135864,0.02262539230287075,-0.0338049978017807,0.02129448764026165
18166713928300,-1.213860273361206,-9.795876502990723,-0.3627215623855591,0.02422248013317585,-0.0377977155148983,0.0295461006462574
18166715165737,-1.2557587623596191,-9.836577415466309,-0.3423708379268646,0.0181003138422966,-0.0417904332280159,0.02502102218568325
18166716403225,-1.2473790645599365,-9.798270225524902,-0.3315969407558441,0.01943122036755085,-0.0404595248401165,0.0244886614382267
18166717640687,-1.1791443824768066,-9.780314445495605,-0.36990416049957275,0.014906140975654125,-0.0351359061896801,0.0258195661008358
18166718878137,-1.256955862045288,-9.835380554199219,-0.4010287821292877,0.0162370465695858,-0.0354020856320858,0.02901373989880085
18166720115625,-1.2497732639312744,-9.803058624267578,-0.3315969407558441,0.01357523538172245,-0.0388624407351017,0.0276828333735466
18166721353100,-1.2246341705322266,-9.7791166305542,-0.3280056416988373,0.012776692397892475,-0.0359344482421875,0.0282151959836483
18166722590562,-1.2186486721038818,-9.791088104248047,-0.3411737382411957,0.01117960549890995,-0.0327402763068676,0.03034464456140995
18166723828037,-1.2114660739898682,-9.771934509277344,-0.3124433159828186,0.01117960549890995,-0.0367329902946949,0.02741665206849575
18166725065512,-1.1671733856201172,-9.792284965515137,-0.38546648621559143,0.0114457868039608,-0.0407257080078125,0.02848137728869915
18166726302975,-1.2030863761901855,-9.818621635437012,-0.35434186458587646,0.00692070834338665,-0.042855154722929,0.0314093679189682
18166727540437,-1.2198457717895508,-9.774328231811523,-0.3447650372982025,0.0071868896484375,-0.0362006276845932,0.0322079136967659
18166728777937,-1.238999366760254,-9.780314445495605,-0.3411737382411957,0.0077192517928779125,-0.0391286201775074,0.0324740931391716
18166730015400,-1.2198457717895508,-9.763554573059082,-0.3495534360408783,0.01171196810901165,-0.043121337890625,0.0314093679189682
18166731252850,-1.2234370708465576,-9.805453300476074,-0.3208230435848236,0.00984870083630085,-0.0401933453977108,0.0338049978017807
18166732490325,-1.2557587623596191,-9.78869342803955,-0.3292027413845062,0.0066545275039970875,-0.0388624407351017,0.0420566126704216
18166733727787,-1.215057373046875,-9.750386238098145,-0.3280056416988373,0.007985432632267475,-0.0407257080078125,0.0348697230219841
18166734965275,-1.2641384601593018,-9.792284965515137,-0.35913026332855225,0.0066545275039970875,-0.0396609827876091,0.0346035435795784
18166736202750,-1.2270283699035645,-9.783905029296875,-0.2968810200691223,0.0077192517928779125,-0.0362006276845932,0.0338049978017807
18166737440212,-1.2773066759109497,-9.787496566772461,-0.34356793761253357,0.007985432632267475,-0.0391286201775074,0.033272635191679
18166738677687,-1.2342109680175781,-9.749189376831055,-0.30047231912612915,0.008251613937318325,-0.0409918874502182,0.038330078125
18166739915162,-1.2749123573303223,-9.768342971801758,-0.35673606395721436,0.0013309054775163531,-0.0391286201775074,0.038330078125
18166741152625,-1.2437877655029297,-9.769539833068848,-0.33997663855552673,0.0007985432748682797,-0.0455169677734375,0.0356682650744915
18166742390112,-1.2617442607879639,-9.757569313049316,-0.35434186458587646,0.0042588976211845875,-0.042855154722929,0.0393948033452034
18166743627575,-1.2210428714752197,-9.795876502990723,-0.3387795388698578,0.0031941730994731188,-0.03034464456140995,0.0330064557492733
18166744865050,-1.2342109680175781,-9.830592155456543,-0.2861070930957794,0.0023956298828125,-0.0364668108522892,0.038063894957304
18166746102525,-1.2533645629882812,-9.768342971801758,-0.31842881441116333,0.0018632676219567657,-0.0396609827876091,0.043121337890625
18166747339987,-1.2282254695892334,-9.792284965515137,-0.35434186458587646,-0.0015970865497365594,-0.0399271659553051,0.0367329902946949
18166748577462,-1.2270283699035645,-9.838972091674805,-0.3148375153541565,-0.0010647244052961469,-0.0407257080078125,0.0436537005007267
18166749814925,-1.2186486721038818,-9.856928825378418,-0.3280056416988373,0.0005323622026480734,-0.0391286201775074,0.0468478724360466
18166751052375,-1.2485761642456055,-9.829395294189453,-0.2849099934101105,-0.0029279920272529125,-0.0420566126704216,0.0436537005007267
18166752289862,-1.256955862045288,-9.860519409179688,-0.2992752194404602,-0.0077192517928779125,-0.0404595248401165,0.042855154722929
18166753527337,-1.2665326595306396,-9.864110946655273,-0.30526071786880493,-0.005057440605014563,-0.0367329902946949,0.042855154722929
18166754764800,-1.2677297592163086,-9.874884605407715,-0.2645592987537384,-0.005057440605014563,-0.0362006276845932,0.0412580706179142
18166756002275,-1.2653355598449707,-9.853337287902832,-0.2537853717803955,-0.010114881210029125,-0.033272635191679,0.0457831472158432
18166757239750,-1.2641384601593018,-9.9371337890625,-0.26336219906806946,-0.01756795309484005,-0.0372653529047966,0.0412580706179142
18166758477237,-1.2557587623596191,-9.920374870300293,-0.30047231912612915,-0.0114457868039608,-0.0423227921128273,0.0452507846057415
18166759714712,-1.2725181579589844,-9.915586471557617,-0.2885012924671173,-0.01171196810901165,-0.033272635191679,0.0503082275390625
18166760952175,-1.2844892740249634,-9.862914085388184,-0.2885012924671173,-0.01836649514734745,-0.033538818359375,0.0489773228764534
18166762189637,-1.2545616626739502,-9.945513725280762,-0.3411737382411957,-0.0228915736079216,-0.0324740931391716,0.0457831472158432
18166763427100,-1.2749123573303223,-9.895236015319824,-0.3076549172401428,-0.0220930315554142,-0.0306108258664608,0.0513729527592659
18166764664575,-1.3036428689956665,-9.93354320526123,-0.3363853394985199,-0.02129448764026165,-0.033272635191679,0.0495096817612648
18166765902050,-1.2629413604736328,-9.925163269042969,-0.3315969407558441,-0.02022976242005825,-0.0300784632563591,0.0529700368642807
18166767139525,-1.290474772453308,-9.945513725280762,-0.31962594389915466,-0.0215606689453125,-0.0295461006462574,0.0590922012925148
18166768377000,-1.2785037755966187,-9.894038200378418,-0.33279404044151306,-0.02661811001598835,-0.0282151959836483,0.0540347620844841
18166769614462,-1.2856863737106323,-9.945513725280762,-0.26815059781074524,-0.02901373989880085,-0.02901373989880085,0.0582936592400074
18166770851937,-1.2461819648742676,-9.926360130310059,-0.28969842195510864,-0.0311431884765625,-0.0300784632563591,0.0558980293571949
18166772089387,-1.2856863737106323,-9.929951667785645,-0.3280056416988373,-0.033272635191679,-0.0311431884765625,0.0561642125248909
18166773326875,-1.2820950746536255,-9.871294021606445,-0.3124433159828186,-0.0369991734623909,-0.03087700717151165,0.0566965714097023
18166774564337,-1.2868834733963013,-9.861717224121094,-0.31364041566848755,-0.0372653529047966,-0.0282151959836483,0.0641496405005455
18166775801812,-1.2737152576446533,-9.855731010437012,-0.34356793761253357,-0.0404595248401165,-0.02422248013317585,0.0598907470703125
18166777039300,-1.256955862045288,-9.829395294189453,-0.27054479718208313,-0.0420566126704216,-0.0234239362180233,0.0561642125248909
18166778276775,-1.3084312677383423,-9.794679641723633,-0.3172317147254944,-0.0425889752805233,-0.02741665206849575,0.0582936592400074
18166779514225,-1.2725181579589844,-9.822212219238281,-0.26815059781074524,-0.0460493303835392,-0.0223592109978199,0.0590922012925148
18166780751700,-1.314416766166687,-9.813833236694336,-0.2908955216407776,-0.0481787770986557,-0.02262539230287075,0.0614878311753273
18166781989162,-1.3036428689956665,-9.786299705505371,-0.3148375153541565,-0.0463155098259449,-0.02422248013317585,0.0630849227309227
18166783226637,-1.2761094570159912,-9.797073364257812,-0.2717418968677521,-0.052437674254179,-0.02502102218568325,0.0614878311753273
18166784464112,-1.260547161102295,-9.815030097961426,-0.272938996553421,-0.0553656667470932,-0.01836649514734745,0.0638834610581398
18166785701587,-1.2964602708816528,-9.77791976928711,-0.25737667083740234,-0.0537685826420784,-0.01889885775744915,0.062020193785429
18166786939050,-1.316810965538025,-9.798270225524902,-0.3208230435848236,-0.0582936592400074,-0.02022976242005825,0.0614878311753273
18166788176537,-1.2988544702529907,-9.836577415466309,-0.27653029561042786,-0.062020193785429,-0.0204959437251091,0.0553656667470932
18166789414000,-1.2701239585876465,-9.827000617980957,-0.29209262132644653,-0.0612216517329216,-0.01756795309484005,0.0638834610581398
18166790651475,-1.2988544702529907,-9.883264541625977,-0.2932897210121155,-0.0550994873046875,-0.01943122036755085,0.0644158273935318
18166791888937,-1.2892776727676392,-9.819818496704102,-0.32202014327049255,-0.0556318499147892,-0.02022976242005825,0.0636172816157341
18166793126412,-1.3527239561080933,-9.816226959228516,-0.27892449498176575,-0.0646820068359375,-0.01783413253724575,0.0644158273935318
18166794363875,-1.3407529592514038,-9.84376049041748,-0.3064578175544739,-0.0657467320561409,-0.0186326764523983,0.0617540143430233
18166795601362,-1.314416766166687,-9.852140426635742,-0.2992752194404602,-0.0644158273935318,-0.0173017717897892,0.0646820068359375
18166796838825,-1.3479355573654175,-9.800664901733398,-0.31364041566848755,-0.0678761824965477,-0.0090501569211483,0.0641496405005455
18166798076312,-1.313219666481018,-9.852140426635742,-0.28969842195510864,-0.0694732666015625,-0.01357523538172245,0.0684085413813591
18166799313775,-1.3060370683670044,-9.84376049041748,-0.31364041566848755,-0.0702718123793602,-0.0138414166867733,0.0678761824965477
18166800551237,-1.3048399686813354,-9.81024169921875,-0.2801215946674347,-0.0750630721449852,-0.013309055007994175,0.0676099956035614
18166801788712,-1.2832921743392944,-9.797073364257812,-0.23822307586669922,-0.0721350759267807,-0.0066545275039970875,0.0692070871591568
18166803026187,-1.3192051649093628,-9.792284965515137,-0.2585738003253937,-0.0734659805893898,-0.008783976547420025,0.0684085413813591
18166804263675,-1.2856863737106323,-9.764751434326172,-0.2825157940387726,-0.0734659805893898,-0.013042873702943325,0.0649481862783432
18166805501112,-1.3096283674240112,-9.781511306762695,-0.28969842195510864,-0.0763939768075943,-0.007453070487827063,0.0678761824965477
18166806738587,-1.3204022645950317,-9.71926212310791,-0.25737667083740234,-0.0742645263671875,-0.0037265352439135313,0.0684085413813591
18166807976075,-1.3263877630233765,-9.702502250671387,-0.22385786473751068,-0.0771925151348114,-0.0010647244052961469,0.0574951171875
18166809213537,-1.2797008752822876,-9.725247383117676,-0.23343466222286224,-0.0774587020277977,-0.0063883461989462376,0.0593583844602108
18166810451012,-1.3239935636520386,-9.702502250671387,-0.2190694510936737,-0.0755954310297966,-0.0063883461989462376,0.0654805526137352
18166811688487,-1.3036428689956665,-9.682151794433594,-0.2298433631658554,-0.0811852365732193,-0.0023956298828125,0.0609554722905159
18166812925950,-1.294066071510315,-9.712079048156738,-0.25737667083740234,-0.0851779505610466,-0.0023956298828125,0.0588260218501091
18166814163425,-1.3311761617660522,-9.731232643127441,-0.2214636653661728,-0.0795881450176239,-0.0002661811013240367,0.0646820068359375
18166815400900,-1.3551181554794312,-9.694122314453125,-0.2214636653661728,-0.0819837749004364,0.0010647244052961469,0.062020193785429
18166816638375,-1.3443442583084106,-9.713275909423828,-0.2298433631658554,-0.081451416015625,-0.0002661811013240367,0.0601569265127182
18166817875837,-1.2952631711959839,-9.714473724365234,-0.2717418968677521,-0.081451416015625,0.0013309054775163531,0.0569627545773983
18166819113312,-1.3263877630233765,-9.718064308166504,-0.2322375625371933,-0.0753292515873909,0.0039927163161337376,0.0521714948117733
18166820350775,-1.358709454536438,-9.745597839355469,-0.2777273952960968,-0.0737321600317955,0.0021294488105922937,0.0564303919672966
18166821588262,-1.3407529592514038,-9.702502250671387,-0.24899697303771973,-0.0771925151348114,0.0077192517928779125,0.0500420443713665
18166822825712,-1.3730746507644653,-9.709685325622559,-0.25498247146606445,-0.0774587020277977,0.010381062515079975,0.047646414488554
18166824063200,-1.3623007535934448,-9.710882186889648,-0.2513911724090576,-0.0750630721449852,0.00984870083630085,0.0519053116440773
18166825300675,-1.3503297567367554,-9.68694019317627,-0.2849099934101105,-0.0750630721449852,0.006122165359556675,0.0471140518784523
18166826538150,-1.3227964639663696,-9.696516990661621,-0.2693476974964142,-0.0745307058095932,0.0114457868039608,0.0449846051633358
18166827775625,-1.3527239561080933,-9.709685325622559,-0.30286651849746704,-0.0737321600317955,0.013042873702943325,0.0415242500603199
18166829013087,-1.3658920526504517,-9.673771858215332,-0.2669534981250763,-0.0678761824965477,0.01597086526453495,0.0465816929936409
18166830250562,-1.358709454536438,-9.682151794433594,-0.272938996553421,-0.0700056254863739,0.0181003138422966,0.0415242500603199
18166831488050,-1.357512354850769,-9.740809440612793,-0.2597709000110626,-0.0710703507065773,0.01889885775744915,0.0356682650744915
18166832725512,-1.3443442583084106,-9.724050521850586,-0.27054479718208313,-0.0684085413813591,0.01357523538172245,0.0364668108522892
18166833962962,-1.3407529592514038,-9.697713851928711,-0.21547815203666687,-0.06707763671875,0.01889885775744915,0.0359344482421875
18166835200450,-1.3611036539077759,-9.6989107131958,-0.23582887649536133,-0.0705379918217659,0.02502102218568325,0.0327402763068676
18166836437925,-1.3503297567367554,-9.6989107131958,-0.23822307586669922,-0.0638834610581398,0.02262539230287075,0.0356682650744915
18166837675375,-1.338358759880066,-9.68933391571045,-0.23343466222286224,-0.0638834610581398,0.02315775491297245,0.0412580706179142
18166838912862,-1.3239935636520386,-9.691728591918945,-0.2406172752380371,-0.0601569265127182,0.02661811001598835,0.0343373604118824
18166840150325,-1.3395558595657349,-9.684545516967773,-0.26815059781074524,-0.0638834610581398,0.02848137728869915,0.0247548408806324
18166841387800,-1.3407529592514038,-9.691728591918945,-0.24899697303771973,-0.0625525563955307,0.0252872034907341,0.03034464456140995
18166842625287,-1.3467384576797485,-9.635464668273926,-0.27892449498176575,-0.0580274797976017,0.02794901467859745,0.02794901467859745
18166843862737,-1.3395558595657349,-9.701305389404297,-0.2454056739807129,-0.0574951171875,0.0319417305290699,0.0215606689453125
18166845100200,-1.3395558595657349,-9.715670585632324,-0.2861070930957794,-0.0535023994743824,0.02981228195130825,0.02129448764026165
18166846337687,-1.3204022645950317,-9.670180320739746,-0.31364041566848755,-0.0513729527592659,0.0348697230219841,0.02369011752307415
18166847575162,-1.3263877630233765,-9.68694019317627,-0.2777273952960968,-0.0497758649289608,0.0385962575674057,0.02182685025036335
18166848812637,-1.3407529592514038,-9.714473724365234,-0.28730419278144836,-0.0505744069814682,0.0311431884765625,0.0252872034907341
18166850050100,-1.3060370683670044,-9.704896926879883,-0.28730419278144836,-0.0513729527592659,0.0377977155148983,0.0223592109978199
18166851287575,-1.2868834733963013,-9.715670585632324,-0.2585738003253937,-0.0500420443713665,0.0447184219956398,0.01836649514734745
18166852525037,-1.335964560508728,-9.758766174316406,-0.2406172752380371,-0.0484449602663517,0.0377977155148983,0.0223592109978199
18166853762525,-1.338358759880066,-9.75517463684082,-0.26096799969673157,-0.0423227921128273,0.0351359061896801,0.0196974016726017
18166854999975,-1.3395558595657349,-9.764751434326172,-0.2992752194404602,-0.0425889752805233,0.0425889752805233,0.015438503585755825
18166856237450,-1.3646949529647827,-9.77672290802002,-0.32202014327049255,-0.0425889752805233,0.0388624407351017,0.0215606689453125
18166857474925,-1.3527239561080933,-9.798270225524902,-0.3280056416988373,-0.0436537005007267,0.0444522425532341,0.014906140975654125
18166858712400,-1.3467384576797485,-9.806650161743164,-0.2992752194404602,-0.043121337890625,0.0457831472158432,0.015438503585755825
18166859949875,-1.3634978532791138,-9.780314445495605,-0.3232172429561615,-0.0449846051633358,0.0457831472158432,0.0181003138422966
18166861187350,-1.315613865852356,-9.800664901733398,-0.3016694188117981,-0.0447184219956398,0.0465816929936409,0.010913425125181675
18166862424800,-1.358709454536438,-9.797073364257812,-0.3100491166114807,-0.0455169677734375,0.042855154722929,0.014373779296875
18166863662275,-1.3395558595657349,-9.770737648010254,-0.3663128614425659,-0.0417904332280159,0.0455169677734375,0.01410759799182415
18166864899750,-1.3215993642807007,-9.791088104248047,-0.31842881441116333,-0.0409918874502182,0.0561642125248909,0.0114457868039608
18166866137225,-1.3180080652236938,-9.794679641723633,-0.3423708379268646,-0.0364668108522892,0.0535023994743824,0.01836649514734745
18166867374712,-1.3204022645950317,-9.781511306762695,-0.2849099934101105,-0.0375315360724926,0.0505744069814682,0.00931633822619915
18166868612175,-1.2988544702529907,-9.799468040466309,-0.363918662071228,-0.043121337890625,0.0535023994743824,0.008251613937318325
18166869849650,-1.292868971824646,-9.761160850524902,-0.2992752194404602,-0.0452507846057415,0.0558980293571949,0.01224433071911335
18166871087125,-1.3120225667953491,-9.744400978088379,-0.32202014327049255,-0.0439198799431324,0.0495096817612648,0.014906140975654125
18166872324587,-1.3180080652236938,-9.734824180603027,-0.3256114423274994,-0.0415242500603199,0.0535023994743824,0.0090501569211483
18166873562075,-1.3036428689956665,-9.736021041870117,-0.27054479718208313,-0.0417904332280159,0.0596245639026165,0.00452507846057415
18166874799525,-1.2880805730819702,-9.71926212310791,-0.27413609623908997,-0.0439198799431324,0.062020193785429,0.008783976547420025
18166876037000,-1.315613865852356,-9.72165584564209,-0.31962594389915466,-0.0412580706179142,0.0577612966299057,0.00692070834338665
18166877274475,-1.256955862045288,-9.703699111938477,-0.2561795711517334,-0.0436537005007267,0.0588260218501091,0.0053236219100654125
18166878511950,-1.2868834733963013,-9.680954933166504,-0.30526071786880493,-0.0433875173330307,0.0593583844602108,0.0077192517928779125
18166879749400,-1.3335703611373901,-9.695320129394531,-0.3076549172401428,-0.0423227921128273,0.0588260218501091,0.006122165359556675
18166880986875,-1.3096283674240112,-9.694122314453125,-0.3315969407558441,-0.0452507846057415,0.0646820068359375,0.0015970865497365594
18166882224375,-1.2485761642456055,-9.683348655700684,-0.33758243918418884,-0.0436537005007267,0.0633511021733284,0.00452507846057415
18166883461825,-1.2497732639312744,-9.654618263244629,-0.30047231912612915,-0.0391286201775074,0.0628187358379364,0.0114457868039608
18166884699300,-1.2401964664459229,-9.6989107131958,-0.3315969407558441,-0.0404595248401165,0.0598907470703125,0.0071868896484375
18166885936762,-1.2401964664459229,-9.660603523254395,-0.3842693865299225,-0.0425889752805233,0.0633511021733284,0.007453070487827063
18166887174250,-1.2521674633026123,-9.680954933166504,-0.3256114423274994,-0.0417904332280159,0.0660129114985466,0.010114881210029125
18166888411700,-1.2449848651885986,-9.654618263244629,-0.3315969407558441,-0.0433875173330307,0.0678761824965477,0.007985432632267475
18166889649187,-1.2617442607879639,-9.6989107131958,-0.36990416049957275,-0.0375315360724926,0.0692070871591568,0.007453070487827063
18166890886662,-1.294066071510315,-9.6989107131958,-0.3603273630142212,-0.0372653529047966,0.0705379918217659,0.003460354171693325
18166892124125,-1.2282254695892334,-9.676166534423828,-0.38546648621559143,-0.0359344482421875,0.0617540143430233,0.00931633822619915
18166893361612,-1.2557587623596191,-9.692925453186035,-0.363918662071228,-0.0412580706179142,0.0668114572763443,0.004791259765625
18166894599062,-1.212663173675537,-9.696516990661621,-0.36750996112823486,-0.038063894957304,0.0686747208237648,0.007985432632267475
18166895836550,-1.2270283699035645,-9.653421401977539,-0.3902548849582672,-0.0412580706179142,0.0662790909409523,0.005057440605014563
18166897074012,-1.2306196689605713,-9.706093788146973,-0.333991140127182,-0.0354020856320858,0.0649481862783432,0.010114881210029125
18166898311475,-1.1851298809051514,-9.718064308166504,-0.3280056416988373,-0.038330078125,0.0646820068359375,0.00692070834338665
18166899548950,-1.2330138683319092,-9.747992515563965,-0.35913026332855225,-0.0412580706179142,0.0689409002661705,0.005855984054505825
18166900786425,-1.1803414821624756,-9.738415718078613,-0.37229835987091064,-0.0359344482421875,0.0641496405005455,0.0077192517928779125
18166902023900,-1.2258312702178955,-9.771934509277344,-0.35434186458587646,-0.0354020856320858,0.0644158273935318,0.0077192517928779125
18166903261375,-1.2258312702178955,-9.823410034179688,-0.363918662071228,-0.0391286201775074,0.0673438161611557,0.010647243820130825
18166904498837,-1.2330138683319092,-9.75397777557373,-0.3555389642715454,-0.0346035435795784,0.066545270383358,0.010647243820130825
18166905736312,-1.2401964664459229,-9.762357711791992,-0.3758896589279175,-0.038330078125,0.0657467320561409,0.007453070487827063
18166906973775,-1.238999366760254,-9.745597839355469,-0.36750996112823486,-0.0375315360724926,0.06707763671875,0.012776692397892475
18166908211237,-1.2234370708465576,-9.744400978088379,-0.39624038338661194,-0.0391286201775074,0.0678761824965477,0.010381062515079975
18166909448737,-1.2270283699035645,-9.75517463684082,-0.38905778527259827,-0.0346035435795784,0.0705379918217659,0.01117960549890995
18166910686187,-1.2006921768188477,-9.813833236694336,-0.3818751871585846,-0.0343373604118824,0.066545270383358,0.010114881210029125
18166911923662,-1.2030863761901855,-9.78869342803955,-0.35075056552886963,-0.0401933453977108,0.0684085413813591,0.010114881210029125
18166913161137,-1.2042834758758545,-9.81263542175293,-0.4082113802433014,-0.0425889752805233,0.0681423619389534,0.00931633822619915
18166914398612,-1.1982979774475098,-9.834183692932129,-0.43694180250167847,-0.0455169677734375,0.0708041712641716,0.005057440605014563
18166915636075,-1.2342109680175781,-9.84495735168457,-0.4513070285320282,-0.0447184219956398,0.0702718123793602,0.010381062515079975
18166916873550,-1.2258312702178955,-9.915586471557617,-0.3974374830722809,-0.0447184219956398,0.0673438161611557,0.01117960549890995
18166918111000,-1.217451572418213,-9.9000244140625,-0.41060560941696167,-0.0463155098259449,0.071868896484375,0.007985432632267475
18166919348487,-1.2102689743041992,-9.920374870300293,-0.42856210470199585,-0.0447184219956398,0.0625525563955307,0.00931633822619915
18166920585962,-1.192312479019165,-9.952696800231934,-0.4513070285320282,-0.0471140518784523,0.0638834610581398,0.014373779296875
18166921823437,-1.2282254695892334,-9.950302124023438,-0.43335050344467163,-0.0529700368642807,0.0716027170419693,0.0181003138422966
18166923060912,-1.2114660739898682,-9.998186111450195,-0.4596867263317108,-0.0521714948117733,0.0692070871591568,0.0186326764523983
18166924298387,-1.2006921768188477,-10.000580787658691,-0.40222588181495667,-0.0535023994743824,0.071336530148983,0.01756795309484005
18166925535850,-1.2222399711608887,-9.964667320251465,-0.41778820753097534,-0.0553656667470932,0.0710703507065773,0.02022976242005825
18166926773325,-1.1504138708114624,-9.884461402893066,-0.47405195236206055,-0.0598907470703125,0.0708041712641716,0.0191650390625
18166928010800,-1.1456254720687866,-9.859322547912598,-0.4034229815006256,-0.0577612966299057,0.0686747208237648,0.0244886614382267
18166929248262,-1.170764684677124,-9.829395294189453,-0.4058171808719635,-0.0593583844602108,0.071868896484375,0.02315775491297245
18166930485737,-1.113303780555725,-9.732430458068848,-0.38905778527259827,-0.0630849227309227,0.0724012553691864,0.0191650390625
18166931723212,-1.1264718770980835,-9.716867446899414,-0.41778820753097534,-0.0625525563955307,0.0705379918217659,0.0244886614382267
18166932960687,-1.113303780555725,-9.611522674560547,-0.4165911078453064,-0.0614878311753273,0.0681423619389534,0.02901373989880085
18166934198150,-1.0977414846420288,-9.611522674560547,-0.363918662071228,-0.0614878311753273,0.0633511021733284,0.0327402763068676
18166935435612,-1.047463297843933,-9.642647743225098,-0.4345476031303406,-0.0641496405005455,0.0630849227309227,0.02502102218568325
18166936673087,-1.0654197931289673,-9.550470352172852,-0.39384618401527405,-0.0598907470703125,0.0649481862783432,0.0292799212038517
18166937910562,-1.1085153818130493,-9.532514572143555,-0.40940847992897034,-0.0569627545773983,0.0590922012925148,0.0343373604118824
18166939148050,-1.0582371950149536,-9.510966300964355,-0.46327802538871765,-0.0606892891228199,0.0588260218501091,0.0276828333735466
18166940385512,-1.0618284940719604,-9.470264434814453,-0.40222588181495667,-0.0614878311753273,0.0636172816157341,0.0282151959836483
18166941622987,-1.1276689767837524,-9.493009567260742,-0.4429273307323456,-0.0598907470703125,0.0577612966299057,0.0295461006462574
18166942860462,-1.113303780555725,-9.495404243469238,-0.4441244304180145,-0.0556318499147892,0.0596245639026165,0.0322079136967659
18166944097925,-1.1420341730117798,-9.528923034667969,-0.4668693244457245,-0.0537685826420784,0.0558980293571949,0.033272635191679
18166945335412,-1.113303780555725,-9.557653427124023,-0.4776432514190674,-0.0516391322016716,0.0500420443713665,0.0369991734623909
18166946572862,-1.1432312726974487,-9.593565940856934,-0.4991910457611084,-0.0503082275390625,0.0535023994743824,0.0314093679189682
18166947810325,-1.1587936878204346,-9.634267807006836,-0.4752490520477295,-0.0532362200319767,0.0545671246945858,0.033538818359375
18166949047825,-1.1552022695541382,-9.637859344482422,-0.4776432514190674,-0.0489773228764534,0.0511067695915699,0.0324740931391716
18166950285275,-1.1623849868774414,-9.680954933166504,-0.4836287498474121,-0.04791259765625,0.04791259765625,0.03087700717151165
18166951522750,-1.2114660739898682,-9.75278091430664,-0.5027823448181152,-0.04791259765625,0.0481787770986557,0.0423227921128273
18166952760212,-1.1851298809051514,-9.770737648010254,-0.50876784324646,-0.0481787770986557,0.0468478724360466,0.0396609827876091
18166953997700,-1.1635820865631104,-9.785102844238281,-0.5374982953071594,-0.0441860631108284,0.0529700368642807,0.0399271659553051
18166955235162,-1.1587936878204346,-9.81024169921875,-0.5171476006507874,-0.0481787770986557,0.0503082275390625,0.0423227921128273
18166956472637,-1.138442873954773,-9.86770248413086,-0.5015852451324463,-0.0521714948117733,0.0516391322016716,0.0351359061896801
18166957710100,-1.1899182796478271,-9.828198432922363,-0.4800374507904053,-0.0574951171875,0.0489773228764534,0.0316755510866642
18166958947575,-1.1300631761550903,-9.87967300415039,-0.4728548526763916,-0.0511067695915699,0.0484449602663517,0.038330078125
18166960185062,-1.194706678390503,-9.829395294189453,-0.4537012279033661,-0.0521714948117733,0.047646414488554,0.0396609827876091
18166961422537,-1.1863269805908203,-9.84376049041748,-0.45250412821769714,-0.0497758649289608,0.0484449602663517,0.0385962575674057
18166962659987,-1.1587936878204346,-9.835380554199219,-0.4800374507904053,-0.0497758649289608,0.0439198799431324,0.0393948033452034
18166963897450,-1.1647791862487793,-9.84615421295166,-0.45250412821769714,-0.052437674254179,0.042855154722929,0.0415242500603199
18166965134937,-1.1767501831054688,-9.830592155456543,-0.4225766062736511,-0.0540347620844841,0.0436537005007267,0.0412580706179142
18166966372400,-1.1037269830703735,-9.841365814208984,-0.40701428055763245,-0.0553656667470932,0.0457831472158432,0.0423227921128273
18166967609875,-1.1444283723831177,-9.81263542175293,-0.39145198464393616,-0.0532362200319767,0.0420566126704216,0.0396609827876091
18166968847362,-1.1899182796478271,-9.821015357971191,-0.4010287821292877,-0.0553656667470932,0.0439198799431324,0.0385962575674057
18166970084825,-1.139639973640442,-9.763554573059082,-0.3998316824436188,-0.0553656667470932,0.0444522425532341,0.0409918874502182
18166971322287,-1.1563994884490967,-9.740809440612793,-0.4537012279033661,-0.0537685826420784,0.043121337890625,0.0399271659553051
18166972559750,-1.1444283723831177,-9.787496566772461,-0.46088382601737976,-0.0561642125248909,0.0409918874502182,0.0412580706179142
18166973797237,-1.0809820890426636,-9.781511306762695,-0.45489832758903503,-0.0569627545773983,0.0404595248401165,0.0425889752805233
18166975034712,-1.1288660764694214,-9.762357711791992,-0.49559974670410156,-0.0564303919672966,0.0420566126704216,0.0401933453977108
18166976272187,-1.1049240827560425,-9.785102844238281,-0.4812345504760742,-0.0580274797976017,0.0396609827876091,0.0396609827876091
18166977509650,-1.116895079612732,-9.768342971801758,-0.4572925269603729,-0.0569627545773983,0.0385962575674057,0.0385962575674057
18166978747125,-1.1456254720687866,-9.75158405303955,-0.5291185975074768,-0.0590922012925148,0.038063894957304,0.0354020856320858
18166979984575,-1.116895079612732,-9.77672290802002,-0.4812345504760742,-0.0590922012925148,0.0338049978017807,0.0372653529047966
18166981222062,-1.1468225717544556,-9.72285270690918,-0.5123591423034668,-0.0596245639026165,0.0372653529047966,0.0367329902946949
18166982459537,-1.1839327812194824,-9.737218856811523,-0.456095427274704,-0.0612216517329216,0.0393948033452034,0.0324740931391716
18166983697012,-1.1456254720687866,-9.725247383117676,-0.49320554733276367,-0.0625525563955307,0.0396609827876091,0.0322079136967659
18166984934475,-1.1324573755264282,-9.7791166305542,-0.4489128291606903,-0.0601569265127182,0.0396609827876091,0.0340711809694767
18166986171950,-1.1563994884490967,-9.727641105651855,-0.43694180250167847,-0.0585598424077034,0.0356682650744915,0.0319417305290699
18166987409425,-1.1563994884490967,-9.730035781860352,-0.45489832758903503,-0.0601569265127182,0.0300784632563591,0.0300784632563591
18166988646900,-1.1683704853057861,-9.702502250671387,-0.47644615173339844,-0.0598907470703125,0.0362006276845932,0.0306108258664608
18166989884362,-1.1611878871917725,-9.692925453186035,-0.4836287498474121,-0.0550994873046875,0.0327402763068676,0.0295461006462574
18166991121837,-1.1001356840133667,-9.659406661987305,-0.4441244304180145,-0.0529700368642807,0.02794901467859745,0.02422248013317585
18166992359300,-1.1623849868774414,-9.601945877075195,-0.47405195236206055,-0.052437674254179,0.0327402763068676,0.0276828333735466
18166993596800,-1.1456254720687866,-9.583989143371582,-0.4189853072166443,-0.0519053116440773,0.0348697230219841,0.0300784632563591
18166994834262,-1.137245774269104,-9.57441234588623,-0.41539400815963745,-0.0508405901491642,0.0247548408806324,0.02874755859375
18166996071712,-1.1456254720687866,-9.527726173400879,-0.49799394607543945,-0.0465816929936409,0.02741665206849575,0.02794901467859745
18166997309200,-1.1204863786697388,-9.515754699707031,-0.4752490520477295,-0.0495096817612648,0.0282151959836483,0.0292799212038517
18166998546675,-1.1097124814987183,-9.47265911102295,-0.45489832758903503,-0.0471140518784523,0.0244886614382267,0.02741665206849575
18166999784137,-1.1683704853057861,-9.469067573547363,-0.4213795065879822,-0.0433875173330307,0.0210283063352108,0.02981228195130825
18167001021600,-1.1408370733261108,-9.452308654785156,-0.4644751250743866,-0.0447184219956398,0.0215606689453125,0.02874755859375
18167002259100,-1.1492167711257935,-9.491812705993652,-0.4812345504760742,-0.0409918874502182,0.02182685025036335,0.0271504707634449
18167003496562,-1.2018892765045166,-9.491812705993652,-0.47405195236206055,-0.0391286201775074,0.02022976242005825,0.02608574740588665
18167004734037,-1.2318167686462402,-9.467870712280273,-0.4991910457611084,-0.0399271659553051,0.0234239362180233,0.02848137728869915
18167005971487,-1.237802267074585,-9.50617790222168,-0.48602294921875,-0.0362006276845932,0.0191650390625,0.0292799212038517
18167007208975,-1.2018892765045166,-9.583989143371582,-0.4836287498474121,-0.0316755510866642,0.02076212503015995,0.0311431884765625
18167008446437,-1.2198457717895508,-9.57441234588623,-0.48482584953308105,-0.0311431884765625,0.0186326764523983,0.0354020856320858
18167009683912,-1.2198457717895508,-9.624691009521484,-0.5386953949928284,-0.0338049978017807,0.01889885775744915,0.0367329902946949
18167010921387,-1.2401964664459229,-9.633070945739746,-0.5003881454467773,-0.0300784632563591,0.02315775491297245,0.0319417305290699
18167012158875,-1.2533645629882812,-9.633070945739746,-0.4752490520477295,-0.02661811001598835,0.0234239362180233,0.03034464456140995
18167013396312,-1.2114660739898682,-9.68694019317627,-0.5542576909065247,-0.02608574740588665,0.02315775491297245,0.0375315360724926
18167014633800,-1.256955862045288,-9.709685325622559,-0.5003881454467773,-0.0271504707634449,0.0191650390625,0.0354020856320858
18167015871275,-1.238999366760254,-9.707290649414062,-0.5039794445037842,-0.02794901467859745,0.02608574740588665,0.0311431884765625
18167017108737,-1.2210428714752197,-9.727641105651855,-0.5135562419891357,-0.02608574740588665,0.02022976242005825,0.0351359061896801
18167018346212,-1.2401964664459229,-9.726444244384766,-0.524330198764801,-0.0215606689453125,0.0173017717897892,0.0364668108522892
18167019583675,-1.2485761642456055,-9.72165584564209,-0.5374982953071594,-0.02502102218568325,0.0191650390625,0.0351359061896801
18167020821150,-1.2437877655029297,-9.738415718078613,-0.4991910457611084,-0.0228915736079216,0.012510511092841625,0.0417904332280159
18167022058625,-1.256955862045288,-9.712079048156738,-0.5003881454467773,-0.01943122036755085,0.014906140975654125,0.038063894957304
18167023296125,-1.2234370708465576,-9.679757118225098,-0.49799394607543945,-0.0204959437251091,0.01703559048473835,0.0377977155148983
18167024533575,-1.2701239585876465,-9.732430458068848,-0.4967968463897705,-0.0186326764523983,0.014373779296875,0.0393948033452034
18167025771037,-1.2342109680175781,-9.694122314453125,-0.4776432514190674,-0.0204959437251091,0.012776692397892475,0.0362006276845932
18167027008512,-1.2749123573303223,-9.684545516967773,-0.5027823448181152,-0.0196974016726017,0.013042873702943325,0.0346035435795784
18167028245987,-1.2186486721038818,-9.641449928283691,-0.5291185975074768,-0.01783413253724575,0.012776692397892475,0.0282151959836483
18167029483450,-1.2725181579589844,-9.62947940826416,-0.48243165016174316,-0.01836649514734745,0.01756795309484005,0.0340711809694767
18167030720950,-1.294066071510315,-9.666589736938477,-0.5099649429321289,-0.0181003138422966,0.01410759799182415,0.0324740931391716
18167031958425,-1.2713210582733154,-9.676166534423828,-0.5039794445037842,-0.02076212503015995,0.01410759799182415,0.03034464456140995
18167033195862,-1.2629413604736328,-9.683348655700684,-0.4668693244457245,-0.0196974016726017,0.010913425125181675,0.0292799212038517
18167034433337,-1.2653355598449707,-9.68694019317627,-0.4836287498474121,-0.01756795309484005,0.0162370465695858,0.0258195661008358
18167035670837,-1.2880805730819702,-9.706093788146973,-0.5183447003364563,-0.0186326764523983,0.01836649514734745,0.02794901467859745
18167036908300,-1.2449848651885986,-9.718064308166504,-0.5374982953071594,-0.0223592109978199,0.01410759799182415,0.0311431884765625
18167038145750,-1.2677297592163086,-9.720458984375,-0.5123591423034668,-0.0173017717897892,0.01410759799182415,0.02794901467859745
18167039383237,-1.2557587623596191,-9.727641105651855,-0.48602294921875,-0.010114881210029125,0.01357523538172245,0.01996358297765255
18167040620712,-1.2725181579589844,-9.725247383117676,-0.5111620426177979,-0.0090501569211483,0.008783976547420025,0.0234239362180233
18167041858175,-1.2856863737106323,-9.726444244384766,-0.5494692921638489,-0.0114457868039608,0.0037265352439135313,0.02661811001598835
18167043095675,-1.217451572418213,-9.747992515563965,-0.5410895943641663,-0.015172322280704975,0.010913425125181675,0.02262539230287075
18167044333125,-1.2868834733963013,-9.71926212310791,-0.5518634915351868,-0.0162370465695858,0.0167694091796875,0.0223592109978199
18167045570600,-1.2461819648742676,-9.740809440612793,-0.545877993106842,-0.00931633822619915,0.012776692397892475,0.0181003138422966
18167046808062,-1.2270283699035645,-9.734824180603027,-0.48602294921875,-0.0157046839594841,0.012776692397892475,0.02661811001598835
18167048045550,-1.2246341705322266,-9.707290649414062,-0.52552729845047,-0.014373779296875,0.0114457868039608,0.02661811001598835
18167049283000,-1.236605167388916,-9.724050521850586,-0.46806642413139343,-0.0090501569211483,0.01117960549890995,0.02608574740588665
18167050520462,-1.236605167388916,-9.702502250671387,-0.5015852451324463,-0.0138414166867733,0.01463996060192585,0.0234239362180233
18167051757950,-1.2282254695892334,-9.709685325622559,-0.49320554733276367,-0.013042873702943325,0.015438503585755825,0.02129448764026165
18167052995425,-1.2342109680175781,-9.68694019317627,-0.44532153010368347,-0.0090501569211483,0.008517795242369175,0.02422248013317585
18167054232887,-1.2006921768188477,-9.694122314453125,-0.45250412821769714,-0.013042873702943325,0.01117960549890995,0.01943122036755085
18167055470362,-1.2006921768188477,-9.666589736938477,-0.4944026470184326,-0.008251613937318325,0.00931633822619915,0.01943122036755085
18167056707850,-1.2330138683319092,-9.649829864501953,-0.5015852451324463,-0.008517795242369175,0.005855984054505825,0.02129448764026165
18167057945337,-1.2449848651885986,-9.646238327026367,-0.4944026470184326,-0.003460354171693325,0.008251613937318325,0.01943122036755085
18167059182787,-1.2054805755615234,-9.655815124511719,-0.4991910457611084,-0.010114881210029125,0.007985432632267475,0.01996358297765255
18167060420262,-1.2066776752471924,-9.647436141967773,-0.5339069962501526,-0.007453070487827063,0.0026618109550327063,0.0223592109978199
18167061657737,-1.1994950771331787,-9.680954933166504,-0.4776432514190674,-0.0037265352439135313,0.0042588976211845875,0.02262539230287075
18167062895212,-1.2294225692749023,-9.653421401977539,-0.5135562419891357,-0.0063883461989462376,0.0077192517928779125,0.01836649514734745
18167064132675,-1.2449848651885986,-9.710882186889648,-0.5434837937355042,-0.007453070487827063,0.0077192517928779125,0.0162370465695858
18167065370137,-1.2617442607879639,-9.649829864501953,-0.5303156971931458,-0.010381062515079975,0.008517795242369175,0.01836649514734745
18167066607612,-1.2330138683319092,-9.667786598205566,-0.47884035110473633,-0.005589802749454975,0.0063883461989462376,0.0234239362180233
18167067845075,-1.215057373046875,-9.651026725769043,-0.5315127968788147,-0.0042588976211845875,0.0013309054775163531,0.0204959437251091
18167069082550,-1.2557587623596191,-9.641449928283691,-0.5482721924781799,-0.004791259765625,0.0013309054775163531,0.02076212503015995
18167070320037,-1.2437877655029297,-9.642647743225098,-0.5039794445037842,-0.004791259765625,0.003460354171693325,0.02369011752307415
18167071557500,-1.2401964664459229,-9.667786598205566,-0.5207388997077942,-0.0023956298828125,0.0021294488105922937,0.01943122036755085
18167072794987,-1.2306196689605713,-9.676166534423828,-0.52552729845047,0.0,0.005855984054505825,0.0191650390625
18167074032437,-1.2641384601593018,-9.674968719482422,-0.5291185975074768,-0.004791259765625,0.0063883461989462376,0.02129448764026165
18167075269912,-1.2413935661315918,-9.68933391571045,-0.5315127968788147,-0.004791259765625,0.0037265352439135313,0.0191650390625
18167076507375,-1.2653355598449707,-9.682151794433594,-0.547075092792511,0.0002661811013240367,-0.0010647244052961469,0.01703559048473835
18167077744862,-1.2318167686462402,-9.680954933166504,-0.5434837937355042,-0.0023956298828125,-0.0013309054775163531,0.0210283063352108
18167078982362,-1.2330138683319092,-9.667786598205566,-0.5494692921638489,-0.0007985432748682797,0.0039927163161337376,0.02315775491297245
18167080219812,-1.2294225692749023,-9.72285270690918,-0.5434837937355042,0.0005323622026480734,-0.0018632676219567657,0.02129448764026165
18167081457275,-1.2856863737106323,-9.718064308166504,-0.5027823448181152,0.0010647244052961469,0.0005323622026480734,0.0204959437251091
18167082694737,-1.2222399711608887,-9.671378135681152,-0.50876784324646,0.0002661811013240367,0.0007985432748682797,0.02502102218568325
18167083932250,-1.291671872138977,-9.746795654296875,-0.4920084476470947,-0.0023956298828125,-0.0029279920272529125,0.0215606689453125
18167085169700,-1.2222399711608887,-9.730035781860352,-0.5051765441894531,0.0010647244052961469,-0.0039927163161337376,0.0215606689453125
18167086407175,-1.2222399711608887,-9.713275909423828,-0.4991910457611084,0.0,0.0,0.0252872034907341
18167087644637,-1.2330138683319092,-9.771934509277344,-0.4991910457611084,-0.0018632676219567657,-0.0018632676219567657,0.0263519287109375
18167088882112,-1.2737152576446533,-9.728838920593262,-0.5374982953071594,0.0002661811013240367,-0.003460354171693325,0.0268842913210392
18167090119587,-1.2509703636169434,-9.75397777557373,-0.48482584953308105,0.0,0.0,0.0258195661008358
18167091357062,-1.260547161102295,-9.781511306762695,-0.48482584953308105,-0.0002661811013240367,-0.0021294488105922937,0.0247548408806324
18167092594525,-1.290474772453308,-9.75158405303955,-0.4991910457611084,-0.0023956298828125,-0.003460354171693325,0.02369011752307415
18167093832000,-1.2677297592163086,-9.732430458068848,-0.5027823448181152,-0.004791259765625,-0.0031941730994731188,0.0228915736079216
18167095069487,-1.256955862045288,-9.793481826782227,-0.48602294921875,-0.0039927163161337376,-0.003460354171693325,0.0196974016726017
18167096306950,-1.2689268589019775,-9.77552604675293,-0.4920084476470947,-0.0037265352439135313,-0.0013309054775163531,0.0210283063352108
18167097544412,-1.2737152576446533,-9.77791976928711,-0.4967968463897705,-0.0053236219100654125,0.0007985432748682797,0.0204959437251091
18167098781900,-1.2449848651885986,-9.789891242980957,-0.4908113479614258,-0.004791259765625,-0.00452507846057415,0.02022976242005825
18167100019362,-1.2306196689605713,-9.75278091430664,-0.5015852451324463,-0.0071868896484375,-0.007453070487827063,0.01996358297765255
18167101256850,-1.2545616626739502,-9.757569313049316,-0.5051765441894531,-0.010381062515079975,-0.0007985432748682797,0.02502102218568325
18167102494300,-1.2282254695892334,-9.728838920593262,-0.5039794445037842,-0.0077192517928779125,-0.0015970865497365594,0.02502102218568325
18167103731775,-1.259350061416626,-9.745597839355469,-0.4644751250743866,-0.0090501569211483,-0.0007985432748682797,0.0196974016726017
18167104969250,-1.2186486721038818,-9.710882186889648,-0.5015852451324463,-0.0039927163161337376,-0.0037265352439135313,0.01943122036755085
18167106206725,-1.2761094570159912,-9.756372451782227,-0.4776432514190674,-0.005589802749454975,-0.005855984054505825,0.0215606689453125
18167107444200,-1.2641384601593018,-9.724050521850586,-0.49320554733276367,-0.0039927163161337376,-0.0023956298828125,0.0223592109978199
18167108681675,-1.2413935661315918,-9.704896926879883,-0.48602294921875,-0.006122165359556675,-0.005057440605014563,0.02315775491297245
18167109919150,-1.215057373046875,-9.68694019317627,-0.4644751250743866,-0.0090501569211483,-0.007453070487827063,0.0191650390625
18167111156612,-1.2689268589019775,-9.715670585632324,-0.4728548526763916,-0.010381062515079975,-0.0029279920272529125,0.0181003138422966
18167112394075,-1.292868971824646,-9.704896926879883,-0.5015852451324463,-0.015438503585755825,-0.0063883461989462376,0.02022976242005825
18167113631562,-1.2545616626739502,-9.703699111938477,-0.5171476006507874,-0.01357523538172245,-0.010647243820130825,0.0204959437251091
18167114869037,-1.236605167388916,-9.68694019317627,-0.5219359993934631,-0.005589802749454975,-0.010647243820130825,0.01996358297765255
18167116106500,-1.2677297592163086,-9.738415718078613,-0.4920084476470947,-0.007985432632267475,-0.005589802749454975,0.0167694091796875
18167117343975,-1.2665326595306396,-9.709685325622559,-0.5063736438751221,-0.00958251953125,-0.0063883461989462376,0.0186326764523983
18167118581450,-1.2258312702178955,-9.66299819946289,-0.4620809257030487,-0.0114457868039608,-0.007453070487827063,0.0186326764523983
18167119818925,-1.258152961730957,-9.696516990661621,-0.5051765441894531,-0.008783976547420025,-0.0090501569211483,0.01889885775744915
18167121056387,-1.2713210582733154,-9.715670585632324,-0.5422866940498352,-0.00931633822619915,-0.007453070487827063,0.013042873702943325
18167122293862,-1.2892776727676392,-9.6989107131958,-0.5015852451324463,-0.0119781494140625,-0.006122165359556675,0.01783413253724575
18167123531325,-1.2497732639312744,-9.672574996948242,-0.4812345504760742,-0.01171196810901165,-0.0090501569211483,0.0138414166867733
18167124768812,-1.2725181579589844,-9.706093788146973,-0.5195418000221252,-0.0063883461989462376,-0.0077192517928779125,0.01463996060192585
18167126006275,-1.2797008752822876,-9.702502250671387,-0.5351040959358215,-0.0053236219100654125,-0.010913425125181675,0.0119781494140625
18167127243750,-1.256955862045288,-9.730035781860352,-0.5291185975074768,-0.005855984054505825,-0.010114881210029125,0.014373779296875
18167128481225,-1.2832921743392944,-9.743204116821289,-0.5099649429321289,-0.0005323622026480734,-0.01410759799182415,0.014906140975654125
18167129718700,-1.2653355598449707,-9.75158405303955,-0.5111620426177979,-0.005855984054505825,-0.0114457868039608,0.01650322787463665
18167130956175,-1.2677297592163086,-9.724050521850586,-0.5003881454467773,-0.008783976547420025,-0.00958251953125,0.0173017717897892
18167132193637,-1.3084312677383423,-9.706093788146973,-0.4836287498474121,-0.0037265352439135313,-0.014373779296875,0.01357523538172245
18167133431100,-1.2844892740249634,-9.702502250671387,-0.48482584953308105,-0.0114457868039608,-0.00931633822619915,0.014373779296875
18167134668587,-1.2844892740249634,-9.68933391571045,-0.48482584953308105,-0.008517795242369175,-0.0071868896484375,0.008517795242369175
18167135906050,-1.2701239585876465,-9.648633003234863,-0.4800374507904053,-0.0021294488105922937,-0.008517795242369175,0.00958251953125
18167137143525,-1.2761094570159912,-9.701305389404297,-0.5147533416748047,-0.004791259765625,-0.014373779296875,0.0186326764523983
18167138381000,-1.237802267074585,-9.691728591918945,-0.456095427274704,0.0013309054775163531,-0.012776692397892475,0.01756795309484005
18167139618487,-1.2641384601593018,-9.659406661987305,-0.4728548526763916,-0.0007985432748682797,-0.013309055007994175,0.02129448764026165
18167140855962,-1.294066071510315,-9.645041465759277,-0.4884171485900879,-0.0015970865497365594,-0.014373779296875,0.0181003138422966
18167142093400,-1.2437877655029297,-9.641449928283691,-0.47165775299072266,0.0015970865497365594,-0.00958251953125,0.0191650390625
18167143330887,-1.2641384601593018,-9.603142738342285,-0.44771572947502136,0.0,-0.012776692397892475,0.02022976242005825
18167144568375,-1.3000515699386597,-9.59596061706543,-0.4704606235027313,-0.0005323622026480734,-0.014906140975654125,0.0167694091796875
18167145805837,-1.2701239585876465,-9.63187313079834,-0.50876784324646,-0.0013309054775163531,-0.010647243820130825,0.01783413253724575
18167147043300,-1.2761094570159912,-9.621099472045898,-0.507570743560791,0.0,-0.012776692397892475,0.01889885775744915
18167148280800,-1.2832921743392944,-9.624691009521484,-0.50876784324646,0.0031941730994731188,-0.0173017717897892,0.01783413253724575
18167149518250,-1.3072341680526733,-9.639056205749512,-0.5351040959358215,0.0023956298828125,-0.0173017717897892,0.02076212503015995
18167150755712,-1.2725181579589844,-9.637859344482422,-0.5422866940498352,-0.0029279920272529125,-0.0181003138422966,0.01756795309484005
18167151993187,-1.235408067703247,-9.610325813293457,-0.5015852451324463,0.0037265352439135313,-0.0157046839594841,0.015172322280704975
18167153230675,-1.3000515699386597,-9.62828254699707,-0.4572925269603729,0.0063883461989462376,-0.0162370465695858,0.0157046839594841
18167154468137,-1.3072341680526733,-9.635464668273926,-0.4836287498474121,0.00958251953125,-0.0173017717897892,0.01756795309484005
18167155705612,-1.3036428689956665,-9.639056205749512,-0.48602294921875,0.00692070834338665,-0.01836649514734745,0.0181003138422966
18167156943087,-1.316810965538025,-9.623494148254395,-0.44771572947502136,0.00958251953125,-0.02315775491297245,0.01756795309484005
18167158180550,-1.3275848627090454,-9.655815124511719,-0.4967968463897705,0.010913425125181675,-0.0181003138422966,0.0220930315554142
18167159418025,-1.3215993642807007,-9.68933391571045,-0.5051765441894531,0.010913425125181675,-0.0181003138422966,0.01410759799182415
18167160655500,-1.2964602708816528,-9.691728591918945,-0.4620809257030487,0.008517795242369175,-0.0162370465695858,0.013042873702943325
18167161892962,-1.2964602708816528,-9.695320129394531,-0.5051765441894531,0.005855984054505825,-0.0167694091796875,0.010647243820130825
18167163130462,-1.3287819623947144,-9.672574996948242,-0.4991910457611084,0.01117960549890995,-0.01357523538172245,0.01171196810901165
18167164367912,-1.3204022645950317,-9.655815124511719,-0.49799394607543945,0.01117960549890995,-0.0167694091796875,0.0119781494140625
18167165605387,-1.3060370683670044,-9.708487510681152,-0.4800374507904053,0.0063883461989462376,-0.0181003138422966,0.010647243820130825
18167166842837,-1.3323732614517212,-9.696516990661621,-0.4884171485900879,0.01357523538172245,-0.014373779296875,0.013309055007994175
18167168080337,-1.316810965538025,-9.703699111938477,-0.46327802538871765,0.0114457868039608,-0.02129448764026165,0.012776692397892475
18167169317812,-1.2856863737106323,-9.677363395690918,-0.47165775299072266,0.0138414166867733,-0.02076212503015995,0.015438503585755825
18167170555287,-1.3000515699386597,-9.696516990661621,-0.4752490520477295,0.014373779296875,-0.015172322280704975,0.010913425125181675
18167171792750,-1.316810965538025,-9.6989107131958,-0.48961424827575684,0.0162370465695858,-0.01783413253724575,0.012776692397892475
18167173030225,-1.292868971824646,-9.758766174316406,-0.4620809257030487,0.0157046839594841,-0.01996358297765255,0.012776692397892475
18167174267700,-1.3108254671096802,-9.710882186889648,-0.4800374507904053,0.0114457868039608,-0.015172322280704975,0.01597086526453495
18167175505175,-1.3012486696243286,-9.700108528137207,-0.44532153010368347,0.010114881210029125,-0.01597086526453495,0.014906140975654125
18167176742625,-1.2677297592163086,-9.7420072555542,-0.4752490520477295,0.01463996060192585,-0.02129448764026165,0.015438503585755825
18167177980100,-1.2689268589019775,-9.718064308166504,-0.4465186297893524,0.00984870083630085,-0.01889885775744915,0.0138414166867733
18167179217600,-1.3335703611373901,-9.704896926879883,-0.44173023104667664,0.015172322280704975,-0.0215606689453125,0.01597086526453495
18167180455050,-1.357512354850769,-9.745597839355469,-0.4728548526763916,0.013309055007994175,-0.0223592109978199,0.013042873702943325
18167181692525,-1.3479355573654175,-9.725247383117676,-0.4572925269603729,0.01357523538172245,-0.0234239362180233,0.010647243820130825
18167182930000,-1.3096283674240112,-9.724050521850586,-0.48482584953308105,0.013042873702943325,-0.02022976242005825,0.01410759799182415
18167184167475,-1.3634978532791138,-9.747992515563965,-0.5171476006507874,0.01224433071911335,-0.01943122036755085,0.006122165359556675
18167185404950,-1.3204022645950317,-9.750386238098145,-0.5231330990791321,0.01171196810901165,-0.02369011752307415,0.0090501569211483
18167186642412,-1.3670891523361206,-9.728838920593262,-0.5111620426177979,0.015172322280704975,-0.023956298828125,0.013042873702943325
18167187879887,-1.3922282457351685,-9.737218856811523,-0.5339069962501526,0.0167694091796875,-0.01836649514734745,0.010913425125181675
18167189117350,-1.3670891523361206,-9.757569313049316,-0.5039794445037842,0.01650322787463665,-0.01889885775744915,0.007453070487827063
18167190354825,-1.3335703611373901,-9.716867446899414,-0.5015852451324463,0.01410759799182415,-0.01650322787463665,0.008251613937318325
18167191592300,-1.3730746507644653,-9.703699111938477,-0.49559974670410156,0.0138414166867733,-0.01703559048473835,0.010913425125181675
18167192829775,-1.3623007535934448,-9.720458984375,-0.5111620426177979,0.01597086526453495,-0.0167694091796875,0.008251613937318325
18167194067250,-1.359906554222107,-9.720458984375,-0.5279214978218079,0.0071868896484375,-0.01756795309484005,0.0071868896484375
18167195304725,-1.3994109630584717,-9.727641105651855,-0.5051765441894531,0.008783976547420025,-0.01410759799182415,0.007453070487827063
18167196542200,-1.3838485479354858,-9.756372451782227,-0.4908113479614258,0.0138414166867733,-0.00931633822619915,0.008251613937318325
18167197779650,-1.3646949529647827,-9.75397777557373,-0.507570743560791,0.0119781494140625,-0.01463996060192585,0.006122165359556675
18167199017125,-1.3970166444778442,-9.68813705444336,-0.48482584953308105,0.012776692397892475,-0.0162370465695858,0.0077192517928779125
18167200254600,-1.3778630495071411,-9.7420072555542,-0.4704606235027313,0.0077192517928779125,-0.01410759799182415,0.008783976547420025
18167201492062,-1.416170358657837,-9.734824180603027,-0.45250412821769714,0.006122165359556675,-0.00958251953125,0.00958251953125
18167202729550,-1.3670891523361206,-9.739612579345703,-0.47405195236206055,0.0071868896484375,-0.01836649514734745,0.010381062515079975
18167203967012,-1.3646949529647827,-9.756372451782227,-0.49320554733276367,0.010913425125181675,-0.01357523538172245,0.010114881210029125
18167205204487,-1.3658920526504517,-9.738415718078613,-0.5111620426177979,0.012776692397892475,-0.004791259765625,0.0063883461989462376
18167206441975,-1.3551181554794312,-9.728838920593262,-0.50876784324646,0.010647243820130825,-0.00958251953125,0.008783976547420025
18167207679425,-1.3682862520217896,-9.767146110534668,-0.47405195236206055,0.005855984054505825,-0.012776692397892475,0.010381062515079975
18167208916912,-1.4245500564575195,-9.736021041870117,-0.5183447003364563,0.0053236219100654125,-0.01117960549890995,0.007453070487827063
18167210154400,-1.3742717504501343,-9.709685325622559,-0.5099649429321289,0.00692070834338665,-0.0090501569211483,0.0026618109550327063
18167211391850,-1.4030022621154785,-9.740809440612793,-0.5518634915351868,0.005855984054505825,-0.0037265352439135313,0.005589802749454975
18167212629337,-1.3838485479354858,-9.733627319335938,-0.5171476006507874,0.008783976547420025,-0.005855984054505825,0.005855984054505825
18167213866787,-1.3551181554794312,-9.728838920593262,-0.4920084476470947,0.014373779296875,-0.0066545275039970875,0.007453070487827063
18167215104262,-1.3838485479354858,-9.740809440612793,-0.5159504413604736,0.00984870083630085,-0.00958251953125,0.0
18167216341750,-1.37906014919281,-9.707290649414062,-0.47405195236206055,0.015172322280704975,-0.007453070487827063,0.0042588976211845875
18167217579225,-1.3443442583084106,-9.71926212310791,-0.4967968463897705,0.01117960549890995,-0.00692070834338665,0.0090501569211483
18167218816687,-1.3563152551651,-9.68933391571045,-0.5099649429321289,0.0066545275039970875,-0.007453070487827063,0.0077192517928779125
18167220054162,-1.382651448249817,-9.679757118225098,-0.4596867263317108,0.008783976547420025,-0.0005323622026480734,0.008517795242369175
18167221291625,-1.3658920526504517,-9.700108528137207,-0.44173023104667664,0.00692070834338665,-0.005057440605014563,0.005589802749454975
18167222529112,-1.357512354850769,-9.682151794433594,-0.4489128291606903,0.007985432632267475,-0.00984870083630085,0.00692070834338665
18167223766587,-1.3682862520217896,-9.672574996948242,-0.45489832758903503,0.008251613937318325,-0.005589802749454975,0.005589802749454975
18167225004062,-1.3886369466781616,-9.713275909423828,-0.5183447003364563,0.00931633822619915,-0.005057440605014563,0.0013309054775163531
18167226241525,-1.359906554222107,-9.730035781860352,-0.4884171485900879,0.01171196810901165,-0.0053236219100654125,0.0039927163161337376
18167227479000,-1.4077906608581543,-9.736021041870117,-0.47644615173339844,0.012776692397892475,-0.0066545275039970875,0.01463996060192585
18167228716475,-1.3455413579940796,-9.733627319335938,-0.456095427274704,0.008783976547420025,-0.005855984054505825,0.010381062515079975
18167229953937,-1.3611036539077759,-9.758766174316406,-0.5219359993934631,0.00958251953125,-0.00692070834338665,0.0114457868039608
18167231191412,-1.3551181554794312,-9.739612579345703,-0.5339069962501526,0.010913425125181675,-0.0077192517928779125,0.012776692397892475
18167232428887,-1.3623007535934448,-9.763554573059082,-0.5003881454467773,0.007453070487827063,-0.00958251953125,0.014373779296875
18167233666350,-1.3551181554794312,-9.744400978088379,-0.5195418000221252,0.0031941730994731188,-0.012776692397892475,0.01756795309484005
18167234903825,-1.3778630495071411,-9.769539833068848,-0.5195418000221252,0.0053236219100654125,-0.008251613937318325,0.0167694091796875
18167236141300,-1.3634978532791138,-9.786299705505371,-0.48722004890441895,0.00452507846057415,-0.0053236219100654125,0.0071868896484375
18167237378762,-1.3778630495071411,-9.757569313049316,-0.5111620426177979,-0.0029279920272529125,-0.005057440605014563,0.00958251953125
18167238616250,-1.3862427473068237,-9.793481826782227,-0.4884171485900879,-0.0015970865497365594,-0.0026618109550327063,0.008783976547420025
18167239853725,-1.3886369466781616,-9.797073364257812,-0.5111620426177979,0.0031941730994731188,-0.007453070487827063,0.014373779296875
18167241091187,-1.3874398469924927,-9.774328231811523,-0.4692635238170624,0.0063883461989462376,-0.005589802749454975,0.0157046839594841
18167242328662,-1.437718152999878,-9.785102844238281,-0.47884035110473633,-0.0013309054775163531,-0.005589802749454975,0.014373779296875
18167243566137,-1.4018051624298096,-9.749189376831055,-0.49320554733276367,0.0010647244052961469,-0.0066545275039970875,0.01224433071911335
18167244803625,-1.3634978532791138,-9.75397777557373,-0.5291185975074768,-0.0031941730994731188,-0.0026618109550327063,0.01117960549890995
18167246041087,-1.3934253454208374,-9.77552604675293,-0.4752490520477295,-0.0053236219100654125,-0.008517795242369175,0.01650322787463665
18167247278550,-1.382651448249817,-9.765949249267578,-0.5303156971931458,0.0,-0.0042588976211845875,0.01357523538172245
18167248516000,-1.3431471586227417,-9.780314445495605,-0.48482584953308105,-0.0005323622026480734,-0.0023956298828125,0.01463996060192585
18167249753500,-1.3730746507644653,-9.704896926879883,-0.5638344883918762,-0.0066545275039970875,-0.004791259765625,0.01463996060192585
18167250990987,-1.3910311460494995,-9.762357711791992,-0.547075092792511,-0.0071868896484375,-0.0053236219100654125,0.01171196810901165
18167252228450,-1.4006080627441406,-9.781511306762695,-0.5434837937355042,-0.005855984054505825,-0.006122165359556675,0.01463996060192585
18167253465912,-1.3970166444778442,-9.733627319335938,-0.507570743560791,-0.0042588976211845875,-0.0029279920272529125,0.01171196810901165
18167254703400,-1.3898340463638306,-9.71926212310791,-0.49559974670410156,-0.00692070834338665,-0.0015970865497365594,0.0138414166867733
18167255940862,-1.4053964614868164,-9.734824180603027,-0.4991910457611084,-0.00958251953125,-0.0039927163161337376,0.005057440605014563
18167257178325,-1.4221558570861816,-9.72285270690918,-0.49799394607543945,-0.010114881210029125,-0.00452507846057415,0.0090501569211483
18167258415812,-1.4185645580291748,-9.773131370544434,-0.5195418000221252,-0.01357523538172245,-0.005589802749454975,0.01410759799182415
18167259653287,-1.413776159286499,-9.773131370544434,-0.4991910457611084,-0.0077192517928779125,-0.0031941730994731188,0.00931633822619915
18167260890750,-1.4018051624298096,-9.780314445495605,-0.5219359993934631,-0.008251613937318325,-0.0029279920272529125,0.0053236219100654125
18167262128200,-1.4269442558288574,-9.774328231811523,-0.5590460896492004,-0.013042873702943325,-0.0010647244052961469,0.010114881210029125
18167263365687,-1.3994109630584717,-9.792284965515137,-0.52552729845047,-0.01463996060192585,0.0013309054775163531,0.00984870083630085
18167264603175,-1.3646949529647827,-9.730035781860352,-0.47165775299072266,-0.00984870083630085,0.0,0.013042873702943325
18167265840650,-1.4101848602294922,-9.77791976928711,-0.5303156971931458,-0.00931633822619915,-0.0021294488105922937,0.0210283063352108
18167267078112,-1.4113819599151611,-9.798270225524902,-0.5003881454467773,-0.010647243820130825,-0.0007985432748682797,0.00984870083630085
18167268315575,-1.3994109630584717,-9.768342971801758,-0.5494692921638489,-0.010913425125181675,-0.0066545275039970875,0.008517795242369175
18167269553050,-1.37906014919281,-9.773131370544434,-0.47405195236206055,-0.01410759799182415,0.0002661811013240367,0.01410759799182415
18167270790500,-1.3862427473068237,-9.791088104248047,-0.5315127968788147,-0.01463996060192585,-0.0015970865497365594,0.01171196810901165
18167272028000,-1.3742717504501343,-9.806650161743164,-0.5183447003364563,-0.014906140975654125,-0.0026618109550327063,0.0077192517928779125
18167273265475,-1.3611036539077759,-9.747992515563965,-0.49320554733276367,-0.01836649514734745,0.004791259765625,0.005589802749454975
18167274502962,-1.3491326570510864,-9.803058624267578,-0.44532153010368347,-0.01224433071911335,0.005855984054505825,0.006122165359556675
18167275740412,-1.3970166444778442,-9.769539833068848,-0.4920084476470947,-0.012510511092841625,-0.0063883461989462376,0.010114881210029125
18167276977887,-1.3994109630584717,-9.747992515563965,-0.4537012279033661,-0.0167694091796875,-0.005057440605014563,0.0063883461989462376
18167278215362,-1.3706804513931274,-9.726444244384766,-0.4465186297893524,-0.01650322787463665,0.0018632676219567657,0.0053236219100654125
18167279452837,-1.3527239561080933,-9.75158405303955,-0.4644751250743866,-0.01357523538172245,0.0007985432748682797,0.0063883461989462376
18167280690312,-1.3323732614517212,-9.678560256958008,-0.48243165016174316,-0.01650322787463665,0.0013309054775163531,0.0037265352439135313
18167281927787,-1.3778630495071411,-9.706093788146973,-0.48722004890441895,-0.0186326764523983,0.0007985432748682797,0.0029279920272529125
18167283165237,-1.3850456476211548,-9.710882186889648,-0.49559974670410156,-0.01650322787463665,-0.0042588976211845875,-0.0039927163161337376
18167284402737,-1.3646949529647827,-9.72165584564209,-0.4812345504760742,-0.01836649514734745,0.0013309054775163531,-0.0026618109550327063
18167285640200,-1.359906554222107,-9.708487510681152,-0.5099649429321289,-0.014906140975654125,0.0023956298828125,0.0037265352439135313
18167286877662,-1.380257248878479,-9.724050521850586,-0.5159504413604736,-0.0157046839594841,-0.0002661811013240367,-0.0031941730994731188
18167288115150,-1.3670891523361206,-9.680954933166504,-0.5123591423034668,-0.0162370465695858,0.005589802749454975,-0.0066545275039970875
18167289352612,-1.3742717504501343,-9.666589736938477,-0.4728548526763916,-0.01357523538172245,0.0031941730994731188,-0.0021294488105922937
18167290590087,-1.3539210557937622,-9.667786598205566,-0.4920084476470947,-0.0162370465695858,0.0037265352439135313,-0.0031941730994731188
18167291827575,-1.316810965538025,-9.6618013381958,-0.5171476006507874,-0.015172322280704975,0.00452507846057415,-0.007985432632267475
18167293065037,-1.3658920526504517,-9.678560256958008,-0.5386953949928284,-0.012510511092841625,-0.0010647244052961469,-0.0077192517928779125
18167294302500,-1.3479355573654175,-9.709685325622559,-0.4752490520477295,-0.01410759799182415,-0.00452507846057415,-0.006122165359556675
18167295539975,-1.3443442583084106,-9.706093788146973,-0.49320554733276367,-0.015172322280704975,0.0026618109550327063,0.0013309054775163531
18167296777462,-1.358709454536438,-9.700108528137207,-0.4836287498474121,-0.01117960549890995,0.0015970865497365594,-0.005057440605014563
18167298014925,-1.3204022645950317,-9.703699111938477,-0.49559974670410156,-0.01171196810901165,0.00452507846057415,-0.0018632676219567657
18167299252387,-1.3718775510787964,-9.710882186889648,-0.5279214978218079,-0.0119781494140625,0.0039927163161337376,-0.0053236219100654125
18167300489862,-1.3419500589370728,-9.702502250671387,-0.49559974670410156,-0.010913425125181675,-0.0013309054775163531,-0.0037265352439135313
18167301727337,-1.3455413579940796,-9.716867446899414,-0.5207388997077942,-0.01224433071911335,0.0015970865497365594,-0.005589802749454975
18167302964812,-1.313219666481018,-9.692925453186035,-0.5291185975074768,-0.007453070487827063,0.003460354171693325,-0.0063883461989462376
18167304202287,-1.3096283674240112,-9.690531730651855,-0.5015852451324463,-0.0114457868039608,0.0021294488105922937,-0.0066545275039970875
18167305439762,-1.3275848627090454,-9.660603523254395,-0.4991910457611084,-0.010647243820130825,0.0013309054775163531,-0.0071868896484375
18167306677225,-1.358709454536438,-9.696516990661621,-0.5219359993934631,-0.0114457868039608,0.007453070487827063,-0.01463996060192585
18167307914712,-1.3443442583084106,-9.724050521850586,-0.4776432514190674,-0.0071868896484375,0.005855984054505825,-0.00931633822619915
18167309152175,-1.3204022645950317,-9.744400978088379,-0.45010992884635925,-0.007453070487827063,-0.0002661811013240367,-0.007985432632267475
18167310389637,-1.3263877630233765,-9.730035781860352,-0.4812345504760742,-0.004791259765625,0.0018632676219567657,-0.007985432632267475
18167311627137,-1.3563152551651,-9.713275909423828,-0.4704606235027313,-0.0021294488105922937,0.0005323622026480734,-0.008517795242369175
18167312864600,-1.3838485479354858,-9.718064308166504,-0.43095630407333374,-0.005589802749454975,0.0005323622026480734,-0.0053236219100654125
18167314102062,-1.3204022645950317,-9.743204116821289,-0.5219359993934631,-0.0053236219100654125,0.0015970865497365594,-0.0119781494140625
18167315339550,-1.3443442583084106,-9.743204116821289,-0.5039794445037842,-0.00452507846057415,-0.0039927163161337376,-0.0090501569211483
18167316577025,-1.3335703611373901,-9.7420072555542,-0.48722004890441895,0.0013309054775163531,-0.0023956298828125,-0.0066545275039970875
18167317814487,-1.3299790620803833,-9.736021041870117,-0.5111620426177979,0.0005323622026480734,0.0018632676219567657,-0.0090501569211483
18167319051962,-1.3120225667953491,-9.7420072555542,-0.4836287498474121,-0.0029279920272529125,-0.0018632676219567657,-0.004791259765625
18167320289425,-1.3012486696243286,-9.767146110534668,-0.47405195236206055,-0.0010647244052961469,0.0021294488105922937,-0.010381062515079975
18167321526900,-1.3036428689956665,-9.756372451782227,-0.507570743560791,-0.00452507846057415,0.0026618109550327063,-0.01117960549890995
18167322764375,-1.2713210582733154,-9.783905029296875,-0.507570743560791,-0.004791259765625,-0.0005323622026480734,-0.010913425125181675
18167324001862,-1.2880805730819702,-9.77791976928711,-0.5207388997077942,-0.0026618109550327063,0.004791259765625,-0.0071868896484375
18167325239325,-1.2988544702529907,-9.77672290802002,-0.5339069962501526,-0.0018632676219567657,0.00452507846057415,-0.00984870083630085
18167326476800,-1.3239935636520386,-9.787496566772461,-0.5123591423034668,0.0018632676219567657,0.0018632676219567657,-0.01224433071911335
18167327714262,-1.3227964639663696,-9.75158405303955,-0.5063736438751221,-0.006122165359556675,0.0037265352439135313,-0.0157046839594841
18167328951737,-1.3299790620803833,-9.750386238098145,-0.5171476006507874,-0.0015970865497365594,0.0021294488105922937,-0.01463996060192585
18167330189225,-1.3706804513931274,-9.72165584564209,-0.4967968463897705,-0.0005323622026480734,-0.0010647244052961469,-0.01650322787463665
18167331426687,-1.3754688501358032,-9.75158405303955,-0.5063736438751221,-0.0005323622026480734,0.0005323622026480734,-0.01756795309484005
18167332664162,-1.3192051649093628,-9.733627319335938,-0.5386953949928284,0.0018632676219567657,0.007453070487827063,-0.014906140975654125
18167333901625,-1.3323732614517212,-9.68813705444336,-0.5111620426177979,0.0029279920272529125,0.007985432632267475,-0.0157046839594841
18167335139100,-1.3563152551651,-9.736021041870117,-0.47405195236206055,0.0013309054775163531,0.0039927163161337376,-0.01943122036755085
18167336376587,-1.3227964639663696,-9.692925453186035,-0.5398924946784973,-0.0029279920272529125,0.00452507846057415,-0.0181003138422966
18167337614050,-1.3407529592514038,-9.724050521850586,-0.47644615173339844,-0.0013309054775163531,0.004791259765625,-0.01597086526453495
18167338851537,-1.338358759880066,-9.684545516967773,-0.4321534037590027,0.0031941730994731188,0.0021294488105922937,-0.0196974016726017
18167340088987,-1.3299790620803833,-9.690531730651855,-0.4429273307323456,-0.0007985432748682797,-0.0010647244052961469,-0.01996358297765255
18167341326462,-1.337161660194397,-9.657012939453125,-0.5291185975074768,-0.0002661811013240367,0.0053236219100654125,-0.01836649514734745
18167342563950,-1.2868834733963013,-9.678560256958008,-0.5099649429321289,-0.0002661811013240367,0.005057440605014563,-0.01597086526453495
18167343801425,-1.3251906633377075,-9.62828254699707,-0.5207388997077942,0.0005323622026480734,0.005057440605014563,-0.01889885775744915
18167345038887,-1.294066071510315,-9.637859344482422,-0.4596867263317108,0.0039927163161337376,0.0053236219100654125,-0.02022976242005825
18167346276350,-1.3036428689956665,-9.642647743225098,-0.49559974670410156,0.0042588976211845875,0.0063883461989462376,-0.01943122036755085
18167347513837,-1.2761094570159912,-9.624691009521484,-0.45010992884635925,0.003460354171693325,0.0053236219100654125,-0.0196974016726017
18167348751312,-1.3180080652236938,-9.657012939453125,-0.4776432514190674,0.0018632676219567657,0.0005323622026480734,-0.0173017717897892
18167349988787,-1.3000515699386597,-9.678560256958008,-0.5386953949928284,0.0015970865497365594,0.0053236219100654125,-0.0204959437251091
18167351226262,-1.2868834733963013,-9.677363395690918,-0.5015852451324463,0.0031941730994731188,0.0042588976211845875,-0.0186326764523983
18167352463737,-1.338358759880066,-9.640253067016602,-0.524330198764801,-0.0010647244052961469,0.004791259765625,-0.01756795309484005
18167353701200,-1.3204022645950317,-9.62947940826416,-0.5063736438751221,0.0029279920272529125,0.005057440605014563,-0.0191650390625
18167354938662,-1.2892776727676392,-9.66419506072998,-0.5542576909065247,0.008783976547420025,0.006122165359556675,-0.0162370465695858
18167356176125,-1.2449848651885986,-9.642647743225098,-0.5315127968788147,0.006122165359556675,0.0021294488105922937,-0.0173017717897892
18167357413625,-1.258152961730957,-9.617507934570312,-0.5578489899635315,0.0021294488105922937,0.005057440605014563,-0.0186326764523983
18167358651112,-1.2749123573303223,-9.639056205749512,-0.46088382601737976,0.0013309054775163531,0.0138414166867733,-0.0191650390625
18167359888562,-1.3060370683670044,-9.66539192199707,-0.507570743560791,0.0039927163161337376,0.00984870083630085,-0.0173017717897892
18167361126050,-1.2856863737106323,-9.659406661987305,-0.5111620426177979,0.00692070834338665,0.005855984054505825,-0.01889885775744915
18167362363512,-1.3096283674240112,-9.645041465759277,-0.4704606235027313,0.0029279920272529125,0.0071868896484375,-0.01756795309484005
18167363601000,-1.2701239585876465,-9.622296333312988,-0.52552729845047,-0.0018632676219567657,0.007985432632267475,-0.02076212503015995
18167364838450,-1.2509703636169434,-9.579200744628906,-0.5099649429321289,-0.0007985432748682797,0.008251613937318325,-0.02262539230287075
18167366075925,-1.235408067703247,-9.589975357055664,-0.4967968463897705,0.0039927163161337376,0.0042588976211845875,-0.01943122036755085
18167367313412,-1.2545616626739502,-9.579200744628906,-0.4728548526763916,0.0114457868039608,0.0002661811013240367,-0.01943122036755085
18167368550862,-1.2473790645599365,-9.57321548461914,-0.49799394607543945,0.005855984054505825,0.0002661811013240367,-0.02076212503015995
18167369788350,-1.2557587623596191,-9.56124496459961,-0.4967968463897705,0.00452507846057415,0.0018632676219567657,-0.02076212503015995
18167371025812,-1.2641384601593018,-9.575610160827637,-0.4692635238170624,0.008783976547420025,0.006122165359556675,-0.01943122036755085
18167372263300,-1.2629413604736328,-9.615114212036133,-0.5315127968788147,0.00958251953125,0.0042588976211845875,-0.0167694091796875
18167373500750,-1.2342109680175781,-9.570821762084961,-0.5135562419891357,0.01171196810901165,0.0018632676219567657,-0.02076212503015995
18167374738237,-1.2030863761901855,-9.624691009521484,-0.507570743560791,0.0119781494140625,0.0005323622026480734,-0.015172322280704975
18167375975700,-1.215057373046875,-9.609128952026367,-0.4644751250743866,0.01171196810901165,0.00452507846057415,-0.0138414166867733
18167377213175,-1.2820950746536255,-9.641449928283691,-0.4812345504760742,0.01117960549890995,0.005057440605014563,-0.0204959437251091
18167378450650,-1.238999366760254,-9.645041465759277,-0.4812345504760742,0.014373779296875,0.0005323622026480734,-0.0196974016726017
18167379688137,-1.291671872138977,-9.640253067016602,-0.48243165016174316,0.0162370465695858,0.0010647244052961469,-0.0173017717897892
18167380925587,-1.2689268589019775,-9.703699111938477,-0.5195418000221252,0.0181003138422966,-0.0031941730994731188,-0.013042873702943325
18167382163087,-1.2617442607879639,-9.668983459472656,-0.5111620426177979,0.0186326764523983,-0.0005323622026480734,-0.02022976242005825
18167383400562,-1.2617442607879639,-9.66299819946289,-0.4920084476470947,0.01783413253724575,0.0042588976211845875,-0.0215606689453125
18167384638025,-1.2952631711959839,-9.707290649414062,-0.4596867263317108,0.0186326764523983,0.005855984054505825,-0.01996358297765255
18167385875487,-1.3060370683670044,-9.709685325622559,-0.4776432514190674,0.0234239362180233,-0.0002661811013240367,-0.01756795309484005
18167387112975,-1.2689268589019775,-9.622296333312988,-0.43694180250167847,0.0204959437251091,-0.0042588976211845875,-0.0181003138422966
18167388350462,-1.2617442607879639,-9.668983459472656,-0.49799394607543945,0.01756795309484005,-0.0026618109550327063,-0.015172322280704975
18167389587912,-1.2820950746536255,-9.633070945739746,-0.4944026470184326,0.01836649514734745,0.0002661811013240367,-0.010381062515079975
18167390825387,-1.2629413604736328,-9.709685325622559,-0.4537012279033661,0.02182685025036335,-0.0015970865497365594,-0.0066545275039970875
18167392062850,-1.2401964664459229,-9.683348655700684,-0.5063736438751221,0.0196974016726017,-0.0039927163161337376,-0.010114881210029125
18167393300325,-1.2270283699035645,-9.679757118225098,-0.5123591423034668,0.02076212503015995,-0.0037265352439135313,-0.014373779296875
18167394537812,-1.2641384601593018,-9.647436141967773,-0.4728548526763916,0.01836649514734745,-0.00692070834338665,-0.01410759799182415
18167395775287,-1.2330138683319092,-9.66539192199707,-0.4776432514190674,0.0215606689453125,-0.0023956298828125,-0.012510511092841625
18167397012750,-1.212663173675537,-9.642647743225098,-0.456095427274704,0.02076212503015995,0.0,-0.013042873702943325
18167398250225,-1.237802267074585,-9.633070945739746,-0.4572925269603729,0.0234239362180233,-0.0029279920272529125,-0.0186326764523983
18167399487712,-1.2509703636169434,-9.637859344482422,-0.4644751250743866,0.02315775491297245,-0.0039927163161337376,-0.0119781494140625
18167400725175,-1.2413935661315918,-9.564835548400879,-0.4776432514190674,0.02608574740588665,-0.0005323622026480734,-0.013042873702943325
18167401962650,-1.2856863737106323,-9.643844604492188,-0.45250412821769714,0.0263519287109375,-0.005855984054505825,-0.015172322280704975
18167403200125,-1.2844892740249634,-9.642647743225098,-0.43933600187301636,0.02369011752307415,-0.0037265352439135313,-0.0162370465695858
18167404437587,-1.3048399686813354,-9.625887870788574,-0.4537012279033661,0.0196974016726017,-0.0031941730994731188,-0.015172322280704975
18167405675062,-1.2665326595306396,-9.66419506072998,-0.45250412821769714,0.01889885775744915,-0.0015970865497365594,-0.01703559048473835
18167406912550,-1.259350061416626,-9.619902610778809,-0.46567222476005554,0.02315775491297245,-0.0026618109550327063,-0.0220930315554142
18167408150000,-1.2713210582733154,-9.615114212036133,-0.4141969084739685,0.0244886614382267,-0.003460354171693325,-0.02369011752307415
18167409387500,-1.290474772453308,-9.643844604492188,-0.42018240690231323,0.0314093679189682,-0.0031941730994731188,-0.0210283063352108
18167410624962,-1.2689268589019775,-9.677363395690918,-0.4644751250743866,0.02502102218568325,-0.0037265352439135313,-0.01836649514734745
18167411862425,-1.2330138683319092,-9.678560256958008,-0.46567222476005554,0.023956298828125,-0.0029279920272529125,-0.01836649514734745
18167413099900,-1.2725181579589844,-9.690531730651855,-0.4812345504760742,0.0252872034907341,0.0002661811013240367,-0.0247548408806324
18167414337362,-1.2545616626739502,-9.66539192199707,-0.4692635238170624,0.02502102218568325,-0.005855984054505825,-0.0234239362180233
18167415574875,-1.2401964664459229,-9.66539192199707,-0.43933600187301636,0.0252872034907341,-0.0031941730994731188,-0.0234239362180233
18167416812337,-1.2557587623596191,-9.649829864501953,-0.4668693244457245,0.02661811001598835,-0.0013309054775163531,-0.0282151959836483
18167418049787,-1.256955862045288,-9.682151794433594,-0.47405195236206055,0.0282151959836483,-0.0005323622026480734,-0.0228915736079216
18167419287275,-1.2306196689605713,-9.673771858215332,-0.4465186297893524,0.03034464456140995,-0.0007985432748682797,-0.02608574740588665
18167420524737,-1.2437877655029297,-9.682151794433594,-0.45010992884635925,0.0316755510866642,-0.005855984054505825,-0.0252872034907341
18167421762212,-1.1791443824768066,-9.673771858215332,-0.45489832758903503,0.0252872034907341,-0.004791259765625,-0.0263519287109375
18167422999662,-1.2413935661315918,-9.645041465759277,-0.4704606235027313,0.02741665206849575,-0.00452507846057415,-0.02129448764026165
18167424237162,-1.2868834733963013,-9.627084732055664,-0.4513070285320282,0.02555338479578495,-0.0042588976211845875,-0.0268842913210392
18167425474637,-1.2258312702178955,-9.619902610778809,-0.41060560941696167,0.02794901467859745,-0.008517795242369175,-0.0268842913210392
18167426712100,-1.2318167686462402,-9.606734275817871,-0.4489128291606903,0.0271504707634449,-0.0090501569211483,-0.0247548408806324
18167427949562,-1.2342109680175781,-9.611522674560547,-0.4465186297893524,0.0316755510866642,-0.0029279920272529125,-0.0295461006462574
18167429187075,-1.2090718746185303,-9.570821762084961,-0.4189853072166443,0.03087700717151165,-0.0021294488105922937,-0.02901373989880085
18167430424537,-1.2449848651885986,-9.619902610778809,-0.40701428055763245,0.02661811001598835,-0.0031941730994731188,-0.0306108258664608
18167431662000,-1.259350061416626,-9.610325813293457,-0.4213795065879822,0.03034464456140995,0.0031941730994731188,-0.0340711809694767
18167432899487,-1.2413935661315918,-9.617507934570312,-0.4644751250743866,0.0354020856320858,0.0018632676219567657,-0.0276828333735466
18167434136950,-1.2078747749328613,-9.653421401977539,-0.50876784324646,0.0316755510866642,-0.0026618109550327063,-0.02608574740588665
18167435374425,-1.238999366760254,-9.643844604492188,-0.38067808747291565,0.0330064557492733,-0.0029279920272529125,-0.02848137728869915
18167436611912,-1.2270283699035645,-9.6618013381958,-0.4441244304180145,0.038330078125,-0.0071868896484375,-0.0268842913210392
18167437849350,-1.2413935661315918,-9.65222454071045,-0.43694180250167847,0.0327402763068676,-0.005855984054505825,-0.0282151959836483
18167439086825,-1.260547161102295,-9.679757118225098,-0.43335050344467163,0.0346035435795784,0.0002661811013240367,-0.02981228195130825
18167440324312,-1.2437877655029297,-9.68694019317627,-0.4381389021873474,0.0372653529047966,-0.0031941730994731188,-0.0271504707634449
18167441561800,-1.215057373046875,-9.671378135681152,-0.45489832758903503,0.0343373604118824,-0.0015970865497365594,-0.033538818359375
18167442799262,-1.237802267074585,-9.724050521850586,-0.4429273307323456,0.0359344482421875,-0.0018632676219567657,-0.02981228195130825
18167444036737,-1.2342109680175781,-9.703699111938477,-0.41060560941696167,0.0359344482421875,-0.007985432632267475,-0.0271504707634449
18167445274212,-1.2437877655029297,-9.670180320739746,-0.42856210470199585,0.0340711809694767,-0.0015970865497365594,-0.0300784632563591
18167446511700,-1.2234370708465576,-9.692925453186035,-0.4297592043876648,0.0367329902946949,-0.0037265352439135313,-0.0306108258664608
18167447749137,-1.2342109680175781,-9.6989107131958,-0.4441244304180145,0.0388624407351017,-0.0063883461989462376,-0.0306108258664608
18167448986637,-1.2509703636169434,-9.6989107131958,-0.395043283700943,0.0356682650744915,-0.008251613937318325,-0.0220930315554142
18167450224100,-1.212663173675537,-9.677363395690918,-0.3878606855869293,0.0460493303835392,-0.005589802749454975,-0.02608574740588665
18167451461587,-1.2677297592163086,-9.672574996948242,-0.35913026332855225,0.0391286201775074,-0.0031941730994731188,-0.0295461006462574
18167452699037,-1.2437877655029297,-9.697713851928711,-0.39384618401527405,0.0385962575674057,-0.005855984054505825,-0.0300784632563591
18167453936525,-1.2461819648742676,-9.701305389404297,-0.41539400815963745,0.0356682650744915,-0.0066545275039970875,-0.0346035435795784
18167455174000,-1.2234370708465576,-9.725247383117676,-0.4058171808719635,0.0409918874502182,-0.0077192517928779125,-0.0295461006462574
18167456411487,-1.194706678390503,-9.683348655700684,-0.3663128614425659,0.0393948033452034,-0.00452507846057415,-0.0306108258664608
18167457648950,-1.238999366760254,-9.690531730651855,-0.4165911078453064,0.0367329902946949,-0.003460354171693325,-0.0319417305290699
18167458886412,-1.2318167686462402,-9.66299819946289,-0.3974374830722809,0.0399271659553051,-0.0031941730994731188,-0.0292799212038517
18167460123900,-1.2018892765045166,-9.691728591918945,-0.3711012601852417,0.0444522425532341,-0.006122165359556675,-0.0316755510866642
18167461361375,-1.215057373046875,-9.658209800720215,-0.35075056552886963,0.0449846051633358,-0.0053236219100654125,-0.0354020856320858
18167462598825,-1.2557587623596191,-9.670180320739746,-0.3387795388698578,0.0388624407351017,-0.00452507846057415,-0.033538818359375
18167463836325,-1.215057373046875,-9.706093788146973,-0.41299980878829956,0.038063894957304,-0.0031941730994731188,-0.0351359061896801
18167465073787,-1.217451572418213,-9.66299819946289,-0.38905778527259827,0.0447184219956398,-0.0063883461989462376,-0.0346035435795784
18167466311262,-1.2330138683319092,-9.674968719482422,-0.3974374830722809,0.0457831472158432,-0.005589802749454975,-0.033272635191679
18167467548725,-1.2246341705322266,-9.619902610778809,-0.4058171808719635,0.043121337890625,-0.005855984054505825,-0.02901373989880085
18167468786200,-1.2330138683319092,-9.643844604492188,-0.3387795388698578,0.0415242500603199,-0.0039927163161337376,-0.033272635191679
18167470023675,-1.2401964664459229,-9.619902610778809,-0.3866635859012604,0.0404595248401165,-0.005855984054505825,-0.0351359061896801
18167471261150,-1.238999366760254,-9.660603523254395,-0.38067808747291565,0.0463155098259449,-0.008251613937318325,-0.0324740931391716
18167472498625,-1.259350061416626,-9.66299819946289,-0.3926490843296051,0.043121337890625,-0.004791259765625,-0.0356682650744915
18167473736100,-1.2258312702178955,-9.68933391571045,-0.363918662071228,0.0417904332280159,-0.005057440605014563,-0.033538818359375
18167474973562,-1.2222399711608887,-9.676166534423828,-0.3711012601852417,0.0423227921128273,-0.0037265352439135313,-0.0367329902946949
18167476211050,-1.256955862045288,-9.68813705444336,-0.3471592366695404,0.0460493303835392,-0.006122165359556675,-0.0327402763068676
18167477448512,-1.213860273361206,-9.697713851928711,-0.38905778527259827,0.047646414488554,-0.0029279920272529125,-0.0359344482421875
18167478685975,-1.217451572418213,-9.674968719482422,-0.4141969084739685,0.0468478724360466,-0.0039927163161337376,-0.0343373604118824
18167479923450,-1.259350061416626,-9.668983459472656,-0.38067808747291565,0.0481787770986557,-0.010647243820130825,-0.0348697230219841
18167481160937,-1.2461819648742676,-9.714473724365234,-0.38546648621559143,0.0503082275390625,-0.010647243820130825,-0.0322079136967659
18167482398425,-1.2318167686462402,-9.72285270690918,-0.3663128614425659,0.0460493303835392,-0.0053236219100654125,-0.0316755510866642
18167483635900,-1.258152961730957,-9.725247383117676,-0.3280056416988373,0.04791259765625,-0.005057440605014563,-0.0338049978017807
18167484873362,-1.2425906658172607,-9.709685325622559,-0.38067808747291565,0.0444522425532341,-0.008517795242369175,-0.0327402763068676
18167486110812,-1.2533645629882812,-9.704896926879883,-0.365115761756897,0.0444522425532341,-0.005057440605014563,-0.033538818359375
18167487348300,-1.291671872138977,-9.712079048156738,-0.43335050344467163,0.0455169677734375,-0.00692070834338665,-0.0327402763068676
18167488585775,-1.2988544702529907,-9.737218856811523,-0.3687070608139038,0.0436537005007267,-0.0077192517928779125,-0.03034464456140995
18167489823237,-1.2677297592163086,-9.757569313049316,-0.42616790533065796,0.0393948033452034,-0.00452507846057415,-0.0359344482421875
18167491060737,-1.235408067703247,-9.731232643127441,-0.363918662071228,0.0425889752805233,-0.0010647244052961469,-0.0369991734623909
18167492298212,-1.2629413604736328,-9.713275909423828,-0.4321534037590027,0.0473802350461483,-0.005589802749454975,-0.0359344482421875
18167493535675,-1.2617442607879639,-9.75517463684082,-0.4034229815006256,0.0436537005007267,-0.0029279920272529125,-0.0356682650744915
18167494773162,-1.2665326595306396,-9.77672290802002,-0.38307228684425354,0.0401933453977108,0.0002661811013240367,-0.0354020856320858
18167496010600,-1.2413935661315918,-9.768342971801758,-0.39145198464393616,0.0417904332280159,-0.0063883461989462376,-0.0356682650744915
