timestamp_ns,accel_x,accel_y,accel_z,gyro_x,gyro_y,gyro_z
18743323888800,0.7721300721168518,-9.849745750427246,0.2801215946674347,0.01889885775744915,0.0119781494140625,-0.007985432632267475
18743325125962,0.7314286231994629,-9.86889934539795,0.32441434264183044,0.02076212503015995,0.0090501569211483,-0.010647243820130825
18743326363137,0.7589619159698486,-9.847352027893066,0.3531447649002075,0.0244886614382267,0.01410759799182415,-0.0119781494140625
18743327600337,0.730231523513794,-9.837775230407715,0.3495534360408783,0.0181003138422966,0.012510511092841625,-0.012776692397892475
18743328837500,0.750582218170166,-9.860519409179688,0.31842881441116333,0.0191650390625,0.007985432632267475,-0.008783976547420025
18743330074662,0.7709329724311829,-9.831789016723633,0.333991140127182,0.0173017717897892,0.00692070834338665,-0.010913425125181675
18743331311837,0.7972691655158997,-9.830592155456543,0.33997663855552673,0.01703559048473835,0.0066545275039970875,-0.008251613937318325
18743332549012,0.7637503743171692,-9.874884605407715,0.33279404044151306,0.0210283063352108,0.0119781494140625,-0.012776692397892475
18743333786187,0.7577648162841797,-9.850942611694336,0.3471592366695404,0.02315775491297245,0.008783976547420025,-0.010913425125181675
18743335023375,0.7481880187988281,-9.847352027893066,0.3794809579849243,0.02182685025036335,0.005855984054505825,-0.0090501569211483
18743336260550,0.7398083209991455,-9.858125686645508,0.37469255924224854,0.02076212503015995,0.0063883461989462376,-0.00984870083630085
18743337497725,0.7960720658302307,-9.882067680358887,0.37469255924224854,0.0234239362180233,0.0031941730994731188,-0.00452507846057415
18743338734887,0.7493851184844971,-9.864110946655273,0.3663128614425659,0.0215606689453125,0.00692070834338665,-0.007453070487827063
18743339972062,0.7218518257141113,-9.860519409179688,0.31364041566848755,0.0215606689453125,0.008517795242369175,-0.0066545275039970875
18743341209250,0.7709329724311829,-9.874884605407715,0.35434186458587646,0.0186326764523983,0.0066545275039970875,-0.007985432632267475
18743342446412,0.7649474740028381,-9.885659217834473,0.35673606395721436,0.013042873702943325,0.010114881210029125,-0.01117960549890995
18743343683600,0.7649474740028381,-9.841365814208984,0.35913026332855225,0.0186326764523983,0.008783976547420025,-0.005855984054505825
18743344920737,0.7972691655158997,-9.871294021606445,0.3387795388698578,0.0173017717897892,0.005855984054505825,-0.008783976547420025
18743346157950,0.7960720658302307,-9.850942611694336,0.35075056552886963,0.02076212503015995,0.0023956298828125,-0.0077192517928779125
18743347395112,0.7709329724311829,-9.876082420349121,0.38905778527259827,0.0173017717897892,0.010381062515079975,-0.013042873702943325
18743348632287,0.7266402244567871,-9.882067680358887,0.3627215623855591,0.01943122036755085,0.007985432632267475,-0.00958251953125
18743349869462,0.7541735172271729,-9.883264541625977,0.3280056416988373,0.0191650390625,0.005855984054505825,-0.008517795242369175
18743351106637,0.7924807667732239,-9.871294021606445,0.33518823981285095,0.01783413253724575,0.0066545275039970875,-0.01224433071911335
18743352343825,0.7637503743171692,-9.86650562286377,0.365115761756897,0.015438503585755825,0.0066545275039970875,-0.01410759799182415
18743353580975,0.7529764175415039,-9.861717224121094,0.34835633635520935,0.01756795309484005,0.005855984054505825,-0.0063883461989462376
18743354818150,0.7637503743171692,-9.838972091674805,0.35434186458587646,0.0162370465695858,0.008783976547420025,-0.00931633822619915
18743356055325,0.727837324142456,-9.87967300415039,0.36750996112823486,0.01703559048473835,0.00931633822619915,-0.01463996060192585
18743357292525,0.7553706169128418,-9.832986831665039,0.333991140127182,0.01756795309484005,0.0026618109550327063,-0.0090501569211483
18743358529700,0.7469909191131592,-9.849745750427246,0.3172317147254944,0.01943122036755085,0.0031941730994731188,-0.008251613937318325
18743359766837,0.7445967197418213,-9.856928825378418,0.31842881441116333,0.01783413253724575,0.008783976547420025,-0.010647243820130825
18743361004050,0.7577648162841797,-9.854534149169922,0.34356793761253357,0.01889885775744915,0.0066545275039970875,-0.0071868896484375
18743362241225,0.7649474740028381,-9.87967300415039,0.3734954595565796,0.015438503585755825,0.004791259765625,-0.008251613937318325
18743363478375,0.7457938194274902,-9.84615421295166,0.363918662071228,0.01597086526453495,0.00452507846057415,-0.01224433071911335
18743364715550,0.7194576263427734,-9.825803756713867,0.35434186458587646,0.0173017717897892,0.005589802749454975,-0.007453070487827063
18743365952750,0.7469909191131592,-9.850942611694336,0.38067808747291565,0.0173017717897892,0.0013309054775163531,-0.008783976547420025
18743367189900,0.7577648162841797,-9.795876502990723,0.3878606855869293,0.01410759799182415,0.0031941730994731188,-0.007985432632267475
18743368427100,0.751779317855835,-9.815030097961426,0.34835633635520935,0.0138414166867733,0.0042588976211845875,-0.0066545275039970875
18743369664262,0.7613561749458313,-9.859322547912598,0.3555389642715454,0.01357523538172245,0.0037265352439135313,-0.00958251953125
18743370901437,0.7206547260284424,-9.872490882873535,0.35075056552886963,0.010913425125181675,0.003460354171693325,-0.010381062515079975
18743372138612,0.7601590752601624,-9.825803756713867,0.3711012601852417,0.012510511092841625,0.0066545275039970875,-0.00958251953125
18743373375775,0.7745242714881897,-9.849745750427246,0.3363853394985199,0.0114457868039608,0.00958251953125,-0.010114881210029125
18743374612950,0.7493851184844971,-9.874884605407715,0.3531447649002075,0.01224433071911335,0.0077192517928779125,-0.010381062515079975
18743375850137,0.768538773059845,-9.877279281616211,0.3447650372982025,0.014906140975654125,0.0042588976211845875,-0.0090501569211483
18743377087325,0.7852981686592102,-9.86650562286377,0.33758243918418884,0.012776692397892475,0.005589802749454975,-0.008783976547420025
18743378324475,0.7326257228851318,-9.892841339111328,0.34596213698387146,0.0167694091796875,0.0021294488105922937,-0.0090501569211483
18743379561662,0.7565677165985107,-9.850942611694336,0.3519476652145386,0.015172322280704975,0.0031941730994731188,-0.008251613937318325
18743380798825,0.7565677165985107,-9.858125686645508,0.365115761756897,0.01357523538172245,0.005057440605014563,-0.005855984054505825
18743382036000,0.7805097699165344,-9.861717224121094,0.3495534360408783,0.008783976547420025,0.0039927163161337376,-0.010381062515079975
18743383273187,0.767341673374176,-9.860519409179688,0.35673606395721436,0.008783976547420025,0.003460354171693325,-0.01357523538172245
18743384510362,0.7709329724311829,-9.84376049041748,0.3926490843296051,0.010913425125181675,0.0042588976211845875,-0.01117960549890995
18743385747525,0.7338228225708008,-9.853337287902832,0.365115761756897,0.0138414166867733,0.0063883461989462376,-0.0090501569211483
18743386984712,0.727837324142456,-9.836577415466309,0.3579331636428833,0.010913425125181675,0.007985432632267475,-0.00984870083630085
18743388221875,0.7350199222564697,-9.824606895446777,0.37469255924224854,0.0119781494140625,0.005057440605014563,-0.007985432632267475
18743389459062,0.7529764175415039,-9.859322547912598,0.3423708379268646,0.014373779296875,0.005589802749454975,-0.012776692397892475
18743390696225,0.7362170219421387,-9.849745750427246,0.41299980878829956,0.01357523538172245,0.004791259765625,-0.010647243820130825
18743391933412,0.7457938194274902,-9.858125686645508,0.39145198464393616,0.0181003138422966,0.007985432632267475,-0.0071868896484375
18743393170587,0.7410054206848145,-9.84256362915039,0.3519476652145386,0.013042873702943325,0.005855984054505825,-0.008783976547420025
18743394407762,0.7086837291717529,-9.849745750427246,0.3734954595565796,0.013309055007994175,0.0119781494140625,-0.0053236219100654125
18743395644950,0.767341673374176,-9.858125686645508,0.3842693865299225,0.010647243820130825,0.00452507846057415,-0.008783976547420025
18743396882137,0.768538773059845,-9.84256362915039,0.3866635859012604,0.005855984054505825,0.0029279920272529125,-0.0053236219100654125
18743398119287,0.7362170219421387,-9.853337287902832,0.40701428055763245,0.01171196810901165,0.010913425125181675,-0.0015970865497365594
18743399356475,0.7541735172271729,-9.847352027893066,0.3148375153541565,0.010381062515079975,0.008517795242369175,-0.0042588976211845875
18743400593625,0.751779317855835,-9.835380554199219,0.3818751871585846,0.010647243820130825,0.0071868896484375,-0.008251613937318325
18743401830812,0.7422025203704834,-9.825803756713867,0.3866635859012604,0.014906140975654125,0.00984870083630085,-0.006122165359556675
18743403067975,0.7709329724311829,-9.834183692932129,0.36750996112823486,0.014906140975654125,0.00984870083630085,-0.005589802749454975
18743404305162,0.7398083209991455,-9.861717224121094,0.38067808747291565,0.00692070834338665,0.007985432632267475,-0.0063883461989462376
18743405542337,0.729034423828125,-9.840168952941895,0.41299980878829956,0.007985432632267475,0.010114881210029125,-0.01117960549890995
18743406779525,0.7709329724311829,-9.793481826782227,0.3734954595565796,0.01463996060192585,0.00984870083630085,-0.0077192517928779125
18743408016687,0.7781155705451965,-9.81263542175293,0.3603273630142212,0.012776692397892475,0.012776692397892475,-0.0077192517928779125
18743409253862,0.788889467716217,-9.829395294189453,0.39863458275794983,0.005057440605014563,0.01117960549890995,-0.012510511092841625
18743410491037,0.7386112213134766,-9.831789016723633,0.4165911078453064,0.010913425125181675,0.008783976547420025,-0.015172322280704975
18743411728212,0.7553706169128418,-9.816226959228516,0.3711012601852417,0.012510511092841625,0.01171196810901165,-0.0053236219100654125
18743412965400,0.7445967197418213,-9.86650562286377,0.33758243918418884,0.007453070487827063,0.008251613937318325,-0.005589802749454975
18743414202575,0.7541735172271729,-9.847352027893066,0.33758243918418884,0.01171196810901165,0.012510511092841625,-0.007985432632267475
18743415439737,0.729034423828125,-9.855731010437012,0.3711012601852417,0.010647243820130825,0.01224433071911335,-0.00958251953125
18743416676900,0.7912836670875549,-9.870096206665039,0.4082113802433014,0.008783976547420025,0.010381062515079975,-0.0066545275039970875
18743417914087,0.768538773059845,-9.853337287902832,0.39863458275794983,0.0114457868039608,0.014373779296875,-0.010114881210029125
18743419151250,0.7637503743171692,-9.821015357971191,0.3770867586135864,0.01996358297765255,0.01597086526453495,-0.007453070487827063
18743420388425,0.767341673374176,-9.807847023010254,0.36990416049957275,0.01463996060192585,0.01117960549890995,-0.006122165359556675
18743421625612,0.7757213711738586,-9.837775230407715,0.3770867586135864,0.012776692397892475,0.01357523538172245,-0.010114881210029125
18743422862800,0.7110779285430908,-9.818621635437012,0.3926490843296051,0.0138414166867733,0.01410759799182415,-0.008251613937318325
18743424099962,0.7541735172271729,-9.794679641723633,0.34596213698387146,0.01171196810901165,0.0119781494140625,-0.005855984054505825
18743425337150,0.7601590752601624,-9.831789016723633,0.3770867586135864,0.01463996060192585,0.0114457868039608,-0.008517795242369175
18743426574312,0.7134721279144287,-9.865307807922363,0.35913026332855225,0.0119781494140625,0.01357523538172245,-0.0066545275039970875
18743427811487,0.7422025203704834,-9.847352027893066,0.3423708379268646,0.01117960549890995,0.01703559048473835,-0.0071868896484375
18743429048662,0.7350199222564697,-9.864110946655273,0.3603273630142212,0.00984870083630085,0.014906140975654125,-0.00692070834338665
18743430285850,0.7733271718025208,-9.848548889160156,0.3818751871585846,0.0063883461989462376,0.013042873702943325,-0.0063883461989462376
18743431522987,0.727837324142456,-9.872490882873535,0.3794809579849243,0.00931633822619915,0.01463996060192585,-0.008783976547420025
18743432760187,0.7457938194274902,-9.852140426635742,0.3818751871585846,0.0173017717897892,0.01224433071911335,-0.0077192517928779125
18743433997362,0.7589619159698486,-9.835380554199219,0.3663128614425659,0.010114881210029125,0.01836649514734745,-0.008783976547420025
18743435234537,0.768538773059845,-9.821015357971191,0.35673606395721436,0.01224433071911335,0.0186326764523983,-0.008251613937318325
18743436471712,0.767341673374176,-9.84615421295166,0.3734954595565796,0.01171196810901165,0.015438503585755825,-0.007985432632267475
18743437708875,0.727837324142456,-9.858125686645508,0.3232172429561615,0.012510511092841625,0.015172322280704975,-0.0021294488105922937
18743438946062,0.8104372620582581,-9.834183692932129,0.3878606855869293,0.01357523538172245,0.02182685025036335,-0.0053236219100654125
18743440183250,0.7769184708595276,-9.859322547912598,0.3818751871585846,0.012510511092841625,0.02076212503015995,-0.0042588976211845875
18743441420437,0.767341673374176,-9.877279281616211,0.4118027091026306,0.010381062515079975,0.02182685025036335,-0.0053236219100654125
18743442657600,0.7410054206848145,-9.872490882873535,0.39384618401527405,0.01224433071911335,0.0181003138422966,-0.0015970865497365594
18743443894762,0.7206547260284424,-9.886856079101562,0.3902548849582672,0.0053236219100654125,0.0186326764523983,-0.012776692397892475
18743445131937,0.7374141216278076,-9.836577415466309,0.3842693865299225,0.010913425125181675,0.0173017717897892,-0.010114881210029125
18743446369112,0.7230489253997803,-9.886856079101562,0.38546648621559143,0.013309055007994175,0.02022976242005825,-0.004791259765625
18743447606300,0.7326257228851318,-9.885659217834473,0.3770867586135864,0.00984870083630085,0.02502102218568325,-0.0071868896484375
18743448843462,0.7326257228851318,-9.850942611694336,0.39145198464393616,0.012510511092841625,0.0220930315554142,-0.0002661811013240367
18743450080637,0.7649474740028381,-9.86650562286377,0.38067808747291565,0.01117960549890995,0.02182685025036335,-0.0037265352439135313
18743451317812,0.7613561749458313,-9.909601211547852,0.36750996112823486,0.010114881210029125,0.0228915736079216,-0.0026618109550327063
18743452554987,0.7350199222564697,-9.874884605407715,0.36152446269989014,0.00931633822619915,0.0210283063352108,-0.003460354171693325
18743453792162,0.7805097699165344,-9.920374870300293,0.3519476652145386,0.013042873702943325,0.0181003138422966,-0.005057440605014563
18743455029350,0.727837324142456,-9.90122127532959,0.38307228684425354,0.0090501569211483,0.02874755859375,-0.01117960549890995
18743456266512,0.7601590752601624,-9.927556991577148,0.3663128614425659,0.006122165359556675,0.0295461006462574,-0.005589802749454975
18743457503700,0.7577648162841797,-9.940725326538086,0.40940847992897034,0.01171196810901165,0.0263519287109375,-0.0018632676219567657
18743458740875,0.7625532746315002,-9.864110946655273,0.4058171808719635,0.013309055007994175,0.02608574740588665,-0.0018632676219567657
18743459978025,0.7314286231994629,-9.895236015319824,0.39863458275794983,0.008517795242369175,0.02608574740588665,-0.0021294488105922937
18743461215225,0.7386112213134766,-9.885659217834473,0.39624038338661194,0.00931633822619915,0.0282151959836483,-0.0042588976211845875
18743462452375,0.7134721279144287,-9.888052940368652,0.3734954595565796,0.007985432632267475,0.02661811001598835,-0.008251613937318325
18743463689562,0.7541735172271729,-9.864110946655273,0.3531447649002075,0.012776692397892475,0.02901373989880085,-0.007453070487827063
18743464926750,0.7493851184844971,-9.883264541625977,0.38307228684425354,0.00958251953125,0.03087700717151165,-0.007453070487827063
18743466163912,0.7541735172271729,-9.87967300415039,0.38307228684425354,0.0039927163161337376,0.02981228195130825,-0.0029279920272529125
18743467401087,0.7493851184844971,-9.861717224121094,0.395043283700943,0.0042588976211845875,0.02981228195130825,-0.0015970865497365594
18743468638262,0.7577648162841797,-9.897629737854004,0.4273650050163269,0.008517795242369175,0.03087700717151165,-0.006122165359556675
18743469875437,0.7589619159698486,-9.862914085388184,0.39624038338661194,0.012776692397892475,0.033538818359375,-0.007453070487827063
18743471112612,0.7386112213134766,-9.872490882873535,0.41299980878829956,0.00692070834338665,0.033538818359375,-0.005855984054505825
18743472349787,0.7577648162841797,-9.855731010437012,0.37828385829925537,0.0037265352439135313,0.0351359061896801,-0.008517795242369175
18743473586962,0.7445967197418213,-9.854534149169922,0.3866635859012604,0.00958251953125,0.033538818359375,0.004791259765625
18743474824125,0.751779317855835,-9.855731010437012,0.3866635859012604,0.008783976547420025,0.0340711809694767,-0.0010647244052961469
18743476061325,0.7422025203704834,-9.864110946655273,0.3998316824436188,0.0090501569211483,0.0292799212038517,-0.007985432632267475
18743477298487,0.706289529800415,-9.791088104248047,0.395043283700943,0.008517795242369175,0.02874755859375,-0.0015970865497365594
18743478535675,0.7158663272857666,-9.80904483795166,0.3926490843296051,0.005589802749454975,0.0351359061896801,-0.0042588976211845875
18743479772837,0.7218518257141113,-9.836577415466309,0.3734954595565796,0.00452507846057415,0.033538818359375,-0.0023956298828125
18743481010012,0.7577648162841797,-9.860519409179688,0.3663128614425659,0.008783976547420025,0.0348697230219841,0.0015970865497365594
18743482247187,0.751779317855835,-9.832986831665039,0.43095630407333374,0.004791259765625,0.0314093679189682,0.0013309054775163531
18743483484375,0.7864952683448792,-9.864110946655273,0.38905778527259827,0.00692070834338665,0.0319417305290699,-0.0037265352439135313
18743484721550,0.7445967197418213,-9.824606895446777,0.3842693865299225,0.008783976547420025,0.0393948033452034,-0.0010647244052961469
18743485958725,0.7242460250854492,-9.81263542175293,0.33997663855552673,0.010381062515079975,0.0420566126704216,-0.0002661811013240367
18743487195900,0.7481880187988281,-9.841365814208984,0.37828385829925537,0.00984870083630085,0.0338049978017807,-0.0013309054775163531
18743488433050,0.7493851184844971,-9.86770248413086,0.4082113802433014,0.007985432632267475,0.0388624407351017,-0.0013309054775163531
18743489670250,0.6967126727104187,-9.882067680358887,0.38905778527259827,0.005855984054505825,0.0377977155148983,0.0023956298828125
18743490907412,0.7445967197418213,-9.84256362915039,0.3794809579849243,0.008251613937318325,0.0375315360724926,0.0039927163161337376
18743492144600,0.751779317855835,-9.860519409179688,0.3842693865299225,0.008517795242369175,0.0388624407351017,-0.0002661811013240367
18743493381762,0.7745242714881897,-9.856928825378418,0.37469255924224854,0.0138414166867733,0.0391286201775074,0.003460354171693325
18743494618950,0.7445967197418213,-9.882067680358887,0.38067808747291565,0.00984870083630085,0.0364668108522892,0.0037265352439135313
18743495856125,0.7326257228851318,-9.850942611694336,0.3878606855869293,0.00958251953125,0.0420566126704216,0.0021294488105922937
18743497093300,0.7745242714881897,-9.861717224121094,0.36152446269989014,0.010913425125181675,0.0455169677734375,-0.0039927163161337376
18743498330475,0.7553706169128418,-9.864110946655273,0.3315969407558441,0.00958251953125,0.042855154722929,-0.0007985432748682797
18743499567650,0.7182605266571045,-9.890447616577148,0.3519476652145386,0.013042873702943325,0.0465816929936409,0.0053236219100654125
18743500804825,0.7015011310577393,-9.895236015319824,0.3423708379268646,0.01117960549890995,0.0463155098259449,0.0029279920272529125
18743502042012,0.7793126702308655,-9.925163269042969,0.36152446269989014,0.010647243820130825,0.0447184219956398,0.0002661811013240367
18743503279162,0.7182605266571045,-9.877279281616211,0.41060560941696167,0.0071868896484375,0.0449846051633358,0.0021294488105922937
18743504516350,0.7565677165985107,-9.897629737854004,0.3603273630142212,0.00984870083630085,0.0460493303835392,0.003460354171693325
18743505753512,0.7374141216278076,-9.883264541625977,0.36750996112823486,0.00958251953125,0.0473802350461483,0.0037265352439135313
18743506990687,0.7541735172271729,-9.888052940368652,0.39145198464393616,0.01117960549890995,0.0447184219956398,0.0090501569211483
18743508227862,0.7242460250854492,-9.908403396606445,0.3627215623855591,0.00931633822619915,0.0449846051633358,0.0138414166867733
18743509465050,0.7577648162841797,-9.922768592834473,0.3687070608139038,0.00958251953125,0.04791259765625,0.005057440605014563
18743510702212,0.7745242714881897,-9.862914085388184,0.365115761756897,0.008783976547420025,0.0535023994743824,0.007453070487827063
18743511939400,0.7613561749458313,-9.910798072814941,0.34596213698387146,0.00931633822619915,0.0473802350461483,0.008783976547420025
18743513176562,0.7326257228851318,-9.892841339111328,0.33279404044151306,0.0042588976211845875,0.0484449602663517,0.00984870083630085
18743514413750,0.7697358727455139,-9.920374870300293,0.38546648621559143,0.008517795242369175,0.0481787770986557,0.006122165359556675
18743515650937,0.7457938194274902,-9.86889934539795,0.3411737382411957,0.008251613937318325,0.04791259765625,0.0071868896484375
18743516888112,0.7553706169128418,-9.889249801635742,0.3866635859012604,0.00931633822619915,0.047646414488554,0.008783976547420025
18743518125275,0.7422025203704834,-9.93354320526123,0.3842693865299225,0.003460354171693325,0.0492435023188591,0.01224433071911335
18743519362450,0.7960720658302307,-9.87967300415039,0.40940847992897034,0.004791259765625,0.0471140518784523,0.003460354171693325
18743520599637,0.7948749661445618,-9.877279281616211,0.36750996112823486,0.00931633822619915,0.0521714948117733,0.008783976547420025
18743521836812,0.7422025203704834,-9.926360130310059,0.33997663855552673,0.0037265352439135313,0.0511067695915699,0.00984870083630085
18743523073950,0.7829039692878723,-9.891644477844238,0.4010287821292877,0.005589802749454975,0.0497758649289608,0.010647243820130825
18743524311150,0.7745242714881897,-9.884461402893066,0.39384618401527405,0.0077192517928779125,0.0492435023188591,0.00931633822619915
18743525548325,0.7793126702308655,-9.921571731567383,0.3531447649002075,0.0023956298828125,0.0516391322016716,0.0090501569211483
18743526785512,0.7637503743171692,-9.894038200378418,0.3579331636428833,0.003460354171693325,0.0540347620844841,0.0071868896484375
18743528022675,0.727837324142456,-9.931148529052734,0.3794809579849243,0.007985432632267475,0.0545671246945858,0.0039927163161337376
18743529259850,0.7972691655158997,-9.895236015319824,0.3734954595565796,0.008783976547420025,0.0529700368642807,0.0007985432748682797
18743530497025,0.7433996200561523,-9.891644477844238,0.3411737382411957,0.008251613937318325,0.0543009415268898,0.0053236219100654125
18743531734200,0.7469909191131592,-9.926360130310059,0.3818751871585846,0.0015970865497365594,0.0513729527592659,0.007453070487827063
18743532971375,0.7613561749458313,-9.926360130310059,0.39145198464393616,0.0007985432748682797,0.0535023994743824,0.0071868896484375
18743534208562,0.7386112213134766,-9.947908401489258,0.365115761756897,0.0031941730994731188,0.0561642125248909,0.0066545275039970875
18743535445737,0.7386112213134766,-9.974244117736816,0.35434186458587646,-0.0029279920272529125,0.0580274797976017,0.004791259765625
18743536682912,0.7026982307434082,-9.929951667785645,0.31364041566848755,-0.0005323622026480734,0.0513729527592659,0.010114881210029125
18743537920075,0.7493851184844971,-9.931148529052734,0.31124621629714966,0.003460354171693325,0.0556318499147892,0.008517795242369175
18743539157250,0.7625532746315002,-9.927556991577148,0.38067808747291565,0.0013309054775163531,0.0521714948117733,0.012776692397892475
18743540394437,0.7170634269714355,-9.975441932678223,0.395043283700943,-0.0007985432748682797,0.0521714948117733,0.004791259765625
18743541631612,0.7326257228851318,-9.914389610290527,0.3423708379268646,0.0013309054775163531,0.0535023994743824,0.0071868896484375
18743542868787,0.7721300721168518,-9.946710586547852,0.3471592366695404,0.0023956298828125,0.0553656667470932,0.01463996060192585
18743544105950,0.7721300721168518,-9.907206535339355,0.39863458275794983,-0.0005323622026480734,0.0617540143430233,0.00984870083630085
18743545343137,0.7445967197418213,-9.932345390319824,0.4010287821292877,-0.004791259765625,0.0590922012925148,0.005855984054505825
18743546580300,0.7601590752601624,-9.93354320526123,0.3842693865299225,-0.005589802749454975,0.0574951171875,0.0063883461989462376
18743547817475,0.707486629486084,-9.953893661499023,0.3471592366695404,-0.006122165359556675,0.0569627545773983,0.004791259765625
18743549054637,0.7110779285430908,-9.946710586547852,0.3579331636428833,-0.005855984054505825,0.0564303919672966,0.008251613937318325
18743550291825,0.7565677165985107,-9.921571731567383,0.3711012601852417,-0.00692070834338665,0.0548333041369915,0.005855984054505825
18743551529000,0.7649474740028381,-9.925163269042969,0.37828385829925537,-0.0090501569211483,0.052703857421875,0.0077192517928779125
18743552766175,0.7529764175415039,-9.959878921508789,0.4034229815006256,-0.005057440605014563,0.052703857421875,0.0066545275039970875
18743554003350,0.7613561749458313,-9.919178009033203,0.3902548849582672,-0.004791259765625,0.0636172816157341,0.0023956298828125
18743555240537,0.788889467716217,-9.929951667785645,0.3878606855869293,-0.00692070834338665,0.0601569265127182,0.007985432632267475
18743556477700,0.751779317855835,-9.910798072814941,0.30286651849746704,-0.0071868896484375,0.0580274797976017,0.013042873702943325
18743557714887,0.7422025203704834,-9.93354320526123,0.3711012601852417,-0.006122165359556675,0.0543009415268898,0.012776692397892475
18743558952050,0.7338228225708008,-9.955090522766113,0.37229835987091064,-0.00958251953125,0.0585598424077034,0.0162370465695858
18743560189212,0.7433996200561523,-9.914389610290527,0.3387795388698578,-0.010647243820130825,0.0582936592400074,0.012510511092841625
18743561426412,0.7733271718025208,-9.9371337890625,0.36990416049957275,-0.0119781494140625,0.0574951171875,0.007985432632267475
18743562663575,0.7757213711738586,-9.874884605407715,0.32441434264183044,-0.01463996060192585,0.0609554722905159,0.006122165359556675
18743563900762,0.7445967197418213,-9.910798072814941,0.3387795388698578,-0.012776692397892475,0.0588260218501091,0.0119781494140625
18743565137937,0.7721300721168518,-9.882067680358887,0.35075056552886963,-0.013042873702943325,0.0638834610581398,0.00958251953125
18743566375112,0.7422025203704834,-9.864110946655273,0.33997663855552673,-0.013042873702943325,0.0646820068359375,0.00931633822619915
18743567612275,0.751779317855835,-9.892841339111328,0.37229835987091064,-0.014373779296875,0.0644158273935318,0.00958251953125
18743568849475,0.7338228225708008,-9.907206535339355,0.38067808747291565,-0.0157046839594841,0.0617540143430233,0.007985432632267475
18743570086637,0.7445967197418213,-9.8784761428833,0.3315969407558441,-0.013309055007994175,0.0540347620844841,0.010381062515079975
18743571323812,0.8104372620582581,-9.860519409179688,0.36750996112823486,-0.0162370465695858,0.0585598424077034,0.00931633822619915
18743572560962,0.7757213711738586,-9.854534149169922,0.3387795388698578,-0.01943122036755085,0.0614878311753273,0.00931633822619915
18743573798162,0.7613561749458313,-9.86889934539795,0.363918662071228,-0.01597086526453495,0.0585598424077034,0.008783976547420025
18743575035312,0.751779317855835,-9.86650562286377,0.35434186458587646,-0.01410759799182415,0.0580274797976017,0.008517795242369175
18743576272512,0.7781155705451965,-9.856928825378418,0.3603273630142212,-0.01996358297765255,0.0601569265127182,0.010913425125181675
18743577509675,0.7852981686592102,-9.870096206665039,0.3663128614425659,-0.01783413253724575,0.0614878311753273,0.014906140975654125
18743578746862,0.7350199222564697,-9.849745750427246,0.3495534360408783,-0.0191650390625,0.0601569265127182,0.013309055007994175
18743579984037,0.768538773059845,-9.897629737854004,0.33039984107017517,-0.0204959437251091,0.0582936592400074,0.012510511092841625
18743581221200,0.7242460250854492,-9.884461402893066,0.3100491166114807,-0.0186326764523983,0.0630849227309227,0.010913425125181675
18743582458387,0.7386112213134766,-9.892841339111328,0.3064578175544739,-0.0234239362180233,0.0628187358379364,0.0053236219100654125
18743583695562,0.7721300721168518,-9.871294021606445,0.30526071786880493,-0.02182685025036335,0.0636172816157341,0.01117960549890995
18743584932750,0.7733271718025208,-9.849745750427246,0.36750996112823486,-0.0215606689453125,0.0598907470703125,0.0138414166867733
18743586169925,0.7936778664588928,-9.927556991577148,0.33518823981285095,-0.02076212503015995,0.0601569265127182,0.01357523538172245
18743587407100,0.7996633648872375,-9.909601211547852,0.3148375153541565,-0.0181003138422966,0.0628187358379364,0.01224433071911335
18743588644250,0.7649474740028381,-9.910798072814941,0.3471592366695404,-0.01996358297765255,0.0596245639026165,0.0173017717897892
18743589881437,0.8248025178909302,-9.904812812805176,0.3423708379268646,-0.02182685025036335,0.0606892891228199,0.0157046839594841
18743591118625,0.7613561749458313,-9.84256362915039,0.3603273630142212,-0.02076212503015995,0.0558980293571949,0.014906140975654125
18743592355787,0.7817068696022034,-9.86770248413086,0.33758243918418884,-0.01889885775744915,0.0585598424077034,0.013042873702943325
18743593592962,0.8367735147476196,-9.821015357971191,0.31603461503982544,-0.0186326764523983,0.0633511021733284,0.012776692397892475
18743594830137,0.8104372620582581,-9.856928825378418,0.34596213698387146,-0.0196974016726017,0.0614878311753273,0.0196974016726017
18743596067300,0.8200140595436096,-9.822212219238281,0.33758243918418884,-0.01357523538172245,0.0590922012925148,0.02262539230287075
18743597304500,0.7817068696022034,-9.854534149169922,0.31603461503982544,-0.0204959437251091,0.0609554722905159,0.01756795309484005
18743598541662,0.788889467716217,-9.86889934539795,0.3280056416988373,-0.0258195661008358,0.0662790909409523,0.02022976242005825
18743599778850,0.7876923680305481,-9.816226959228516,0.3256114423274994,-0.0258195661008358,0.0617540143430233,0.0223592109978199
18743601016025,0.8008604645729065,-9.787496566772461,0.34835633635520935,-0.023956298828125,0.0628187358379364,0.02262539230287075
18743602253187,0.8164227604866028,-9.825803756713867,0.365115761756897,-0.01889885775744915,0.0564303919672966,0.0252872034907341
18743603490375,0.788889467716217,-9.787496566772461,0.33518823981285095,-0.01836649514734745,0.0593583844602108,0.02608574740588665
18743604727550,0.7805097699165344,-9.7791166305542,0.33518823981285095,-0.015438503585755825,0.0601569265127182,0.0244886614382267
18743605964712,0.8044517636299133,-9.770737648010254,0.3471592366695404,-0.0167694091796875,0.0596245639026165,0.0252872034907341
18743607201912,0.8164227604866028,-9.840168952941895,0.3256114423274994,-0.0204959437251091,0.0588260218501091,0.02608574740588665
18743608439075,0.768538773059845,-9.804256439208984,0.3531447649002075,-0.0204959437251091,0.0601569265127182,0.02608574740588665
18743609676250,0.7912836670875549,-9.81143856048584,0.32441434264183044,-0.014373779296875,0.0644158273935318,0.0258195661008358
18743610913437,0.8307880163192749,-9.793481826782227,0.37828385829925537,-0.010114881210029125,0.0593583844602108,0.02741665206849575
18743612150587,0.8020575642585754,-9.80904483795166,0.33279404044151306,-0.01410759799182415,0.0580274797976017,0.02848137728869915
18743613387787,0.7996633648872375,-9.825803756713867,0.3172317147254944,-0.0186326764523983,0.0550994873046875,0.0295461006462574
18743614624962,0.8104372620582581,-9.81024169921875,0.3256114423274994,-0.014906140975654125,0.0548333041369915,0.02555338479578495
18743615862137,0.8319851160049438,-9.836577415466309,0.30885201692581177,-0.01703559048473835,0.0558980293571949,0.0268842913210392
18743617099300,0.8080430626869202,-9.78869342803955,0.3208230435848236,-0.013309055007994175,0.0543009415268898,0.03034464456140995
18743618336475,0.7936778664588928,-9.832986831665039,0.2537853717803955,-0.014373779296875,0.0577612966299057,0.0247548408806324
18743619573650,0.8104372620582581,-9.838972091674805,0.30286651849746704,-0.02129448764026165,0.0588260218501091,0.02608574740588665
18743620810825,0.8259996175765991,-9.770737648010254,0.27892449498176575,-0.02076212503015995,0.0516391322016716,0.0295461006462574
18743622048000,0.8331822156906128,-9.847352027893066,0.333991140127182,-0.01357523538172245,0.0543009415268898,0.0300784632563591
18743623285162,0.8248025178909302,-9.86889934539795,0.3687070608139038,-0.0119781494140625,0.0516391322016716,0.0327402763068676
18743624522350,0.8044517636299133,-9.81143856048584,0.3447650372982025,-0.01224433071911335,0.047646414488554,0.0354020856320858
18743625759537,0.8271967172622681,-9.837775230407715,0.3519476652145386,-0.013042873702943325,0.04791259765625,0.0367329902946949
18743626996700,0.8200140595436096,-9.829395294189453,0.3387795388698578,-0.010913425125181675,0.0503082275390625,0.033538818359375
18743628233875,0.7960720658302307,-9.797073364257812,0.363918662071228,-0.0173017717897892,0.0500420443713665,0.033538818359375
18743629471050,0.829590916633606,-9.827000617980957,0.35913026332855225,-0.01783413253724575,0.0489773228764534,0.0359344482421875
18743630708237,0.8319851160049438,-9.821015357971191,0.3172317147254944,-0.0114457868039608,0.0511067695915699,0.0327402763068676
18743631945400,0.8056488633155823,-9.816226959228516,0.2968810200691223,-0.008251613937318325,0.0473802350461483,0.033272635191679
18743633182587,0.8140285611152649,-9.80904483795166,0.3531447649002075,-0.008251613937318325,0.0463155098259449,0.0338049978017807
18743634419775,0.8056488633155823,-9.799468040466309,0.32680854201316833,-0.0119781494140625,0.0463155098259449,0.0327402763068676
18743635656937,0.790086567401886,-9.799468040466309,0.35673606395721436,-0.01117960549890995,0.0441860631108284,0.0346035435795784
18743636894087,0.7960720658302307,-9.795876502990723,0.28969842195510864,-0.015438503585755825,0.0441860631108284,0.0282151959836483
18743638131287,0.8176198601722717,-9.807847023010254,0.3100491166114807,-0.00984870083630085,0.0441860631108284,0.0346035435795784
18743639368462,0.7709329724311829,-9.830592155456543,0.3687070608139038,-0.008517795242369175,0.0455169677734375,0.0346035435795784
18743640605625,0.7996633648872375,-9.791088104248047,0.33997663855552673,-0.006122165359556675,0.0423227921128273,0.038063894957304
18743641842787,0.7553706169128418,-9.836577415466309,0.3471592366695404,-0.0090501569211483,0.042855154722929,0.0343373604118824
18743643079987,0.8020575642585754,-9.824606895446777,0.2717418968677521,-0.008783976547420025,0.0439198799431324,0.0401933453977108
18743644317137,0.7960720658302307,-9.81024169921875,0.30286651849746704,-0.0063883461989462376,0.0444522425532341,0.038063894957304
18743645554337,0.7972691655158997,-9.818621635437012,0.34356793761253357,-0.012510511092841625,0.043121337890625,0.0362006276845932
18743646791525,0.8343793153762817,-9.797073364257812,0.3663128614425659,-0.01117960549890995,0.0412580706179142,0.0364668108522892
18743648028687,0.8212112188339233,-9.80904483795166,0.29807811975479126,-0.00692070834338665,0.0372653529047966,0.0375315360724926
18743649265887,0.7793126702308655,-9.799468040466309,0.3519476652145386,-0.0066545275039970875,0.0423227921128273,0.0327402763068676
18743650503037,0.7745242714881897,-9.837775230407715,0.33518823981285095,-0.00692070834338665,0.0425889752805233,0.0364668108522892
18743651740225,0.8068459630012512,-9.804256439208984,0.34835633635520935,-0.005855984054505825,0.0401933453977108,0.0391286201775074
18743652977387,0.7996633648872375,-9.764751434326172,0.32680854201316833,-0.005855984054505825,0.0372653529047966,0.038063894957304
18743654214562,0.8164227604866028,-9.803058624267578,0.37469255924224854,-0.0063883461989462376,0.0367329902946949,0.0391286201775074
18743655451750,0.788889467716217,-9.81263542175293,0.33518823981285095,-0.00692070834338665,0.0369991734623909,0.0364668108522892
18743656688925,0.8307880163192749,-9.782708168029785,0.3076549172401428,-0.008517795242369175,0.0340711809694767,0.0362006276845932
18743657926087,0.8523358106613159,-9.805453300476074,0.33997663855552673,-0.008783976547420025,0.0322079136967659,0.0319417305290699
18743659163262,0.8236054182052612,-9.813833236694336,0.34596213698387146,-0.0066545275039970875,0.0359344482421875,0.0324740931391716
18743660400450,0.7996633648872375,-9.800664901733398,0.35913026332855225,-0.0007985432748682797,0.0327402763068676,0.0391286201775074
18743661637600,0.7733271718025208,-9.818621635437012,0.36750996112823486,-0.0042588976211845875,0.0306108258664608,0.0425889752805233
18743662874787,0.8152256608009338,-9.727641105651855,0.3447650372982025,-0.0053236219100654125,0.02794901467859745,0.0377977155148983
18743664111975,0.8164227604866028,-9.758766174316406,0.34835633635520935,-0.0021294488105922937,0.02661811001598835,0.038330078125
18743665349150,0.8104372620582581,-9.81263542175293,0.28969842195510864,-0.007453070487827063,0.0271504707634449,0.0346035435795784
18743666586325,0.7805097699165344,-9.785102844238281,0.3687070608139038,-0.0039927163161337376,0.02502102218568325,0.0369991734623909
18743667823487,0.7805097699165344,-9.803058624267578,0.32441434264183044,-0.004791259765625,0.0252872034907341,0.038330078125
18743669060662,0.7745242714881897,-9.795876502990723,0.33518823981285095,-0.005855984054505825,0.02315775491297245,0.0375315360724926
18743670297837,0.7912836670875549,-9.793481826782227,0.33279404044151306,0.0018632676219567657,0.02076212503015995,0.0359344482421875
18743671535012,0.8140285611152649,-9.818621635437012,0.3794809579849243,-0.0053236219100654125,0.02129448764026165,0.0364668108522892
18743672772187,0.7649474740028381,-9.828198432922363,0.36152446269989014,-0.003460354171693325,0.02182685025036335,0.0417904332280159
18743674009362,0.7733271718025208,-9.794679641723633,0.30286651849746704,-0.0026618109550327063,0.0244886614382267,0.0409918874502182
18743675246537,0.790086567401886,-9.794679641723633,0.36152446269989014,-0.0023956298828125,0.0247548408806324,0.0369991734623909
18743676483712,0.8068459630012512,-9.791088104248047,0.33758243918418884,-0.004791259765625,0.02422248013317585,0.0343373604118824
18743677720875,0.8056488633155823,-9.832986831665039,0.3663128614425659,0.0023956298828125,0.01703559048473835,0.0369991734623909
18743678958050,0.7793126702308655,-9.805453300476074,0.3064578175544739,0.0021294488105922937,0.01597086526453495,0.0417904332280159
18743680195237,0.8092401623725891,-9.834183692932129,0.3363853394985199,0.0005323622026480734,0.01943122036755085,0.0375315360724926
18743681432412,0.8427590131759644,-9.793481826782227,0.3411737382411957,-0.0007985432748682797,0.0186326764523983,0.0372653529047966
18743682669587,0.812831461429596,-9.813833236694336,0.35434186458587646,-0.0026618109550327063,0.0186326764523983,0.0396609827876091
18743683906775,0.7817068696022034,-9.858125686645508,0.34835633635520935,-0.0005323622026480734,0.01410759799182415,0.0420566126704216
18743685143937,0.7637503743171692,-9.84256362915039,0.29568392038345337,0.0010647244052961469,0.0090501569211483,0.0447184219956398
18743686381125,0.7936778664588928,-9.865307807922363,0.3531447649002075,-0.0005323622026480734,0.01357523538172245,0.0393948033452034
18743687618300,0.7984662652015686,-9.84495735168457,0.33039984107017517,0.0007985432748682797,0.01171196810901165,0.0362006276845932
18743688855475,0.7960720658302307,-9.831789016723633,0.3315969407558441,0.0007985432748682797,0.00958251953125,0.0354020856320858
18743690092650,0.790086567401886,-9.785102844238281,0.2944868206977844,0.0023956298828125,0.0090501569211483,0.0354020856320858
18743691329825,0.7829039692878723,-9.806650161743164,0.3292027413845062,0.0021294488105922937,0.00958251953125,0.0369991734623909
18743692567000,0.790086567401886,-9.856928825378418,0.31962594389915466,0.0005323622026480734,0.012510511092841625,0.0367329902946949
18743693804162,0.7637503743171692,-9.87967300415039,0.3411737382411957,0.0015970865497365594,0.0077192517928779125,0.0399271659553051
18743695041350,0.7793126702308655,-9.824606895446777,0.31842881441116333,0.0029279920272529125,0.005589802749454975,0.0351359061896801
18743696278512,0.7733271718025208,-9.835380554199219,0.33997663855552673,0.005057440605014563,0.0077192517928779125,0.0346035435795784
18743697515700,0.7469909191131592,-9.81024169921875,0.34596213698387146,0.007453070487827063,0.0007985432748682797,0.0377977155148983
18743698752875,0.7817068696022034,-9.782708168029785,0.3627215623855591,0.0031941730994731188,-0.0013309054775163531,0.0399271659553051
18743699990050,0.7912836670875549,-9.793481826782227,0.3471592366695404,0.0021294488105922937,-0.0005323622026480734,0.0343373604118824
18743701227225,0.7972691655158997,-9.804256439208984,0.3387795388698578,0.0013309054775163531,0.005589802749454975,0.0354020856320858
18743702464387,0.7433996200561523,-9.813833236694336,0.3627215623855591,0.0021294488105922937,-0.0015970865497365594,0.038063894957304
18743703701562,0.7493851184844971,-9.825803756713867,0.3663128614425659,0.0021294488105922937,-0.0018632676219567657,0.0399271659553051
18743704938775,0.730231523513794,-9.882067680358887,0.3387795388698578,0.005855984054505825,0.0026618109550327063,0.0364668108522892
18743706175925,0.7410054206848145,-9.831789016723633,0.33279404044151306,0.00452507846057415,-0.0005323622026480734,0.0362006276845932
18743707413100,0.7493851184844971,-9.818621635437012,0.34356793761253357,-0.0010647244052961469,-0.0002661811013240367,0.033538818359375
18743708650287,0.7697358727455139,-9.827000617980957,0.3423708379268646,-0.0005323622026480734,-0.0029279920272529125,0.0356682650744915
18743709887450,0.7577648162841797,-9.850942611694336,0.3280056416988373,0.003460354171693325,-0.0037265352439135313,0.0369991734623909
18743711124612,0.7529764175415039,-9.819818496704102,0.3531447649002075,0.008251613937318325,-0.004791259765625,0.0377977155148983
18743712361787,0.7529764175415039,-9.806650161743164,0.3687070608139038,0.006122165359556675,-0.0037265352439135313,0.0423227921128273
18743713598962,0.7433996200561523,-9.828198432922363,0.38307228684425354,0.005057440605014563,-0.0026618109550327063,0.0372653529047966
18743714836162,0.751779317855835,-9.84256362915039,0.3148375153541565,0.008517795242369175,-0.0077192517928779125,0.033272635191679
18743716073312,0.7589619159698486,-9.832986831665039,0.3292027413845062,0.00958251953125,-0.005589802749454975,0.0343373604118824
18743717310500,0.7254431247711182,-9.806650161743164,0.365115761756897,0.007985432632267475,-0.00984870083630085,0.0364668108522892
18743718547662,0.7242460250854492,-9.860519409179688,0.32441434264183044,0.0077192517928779125,-0.0114457868039608,0.0375315360724926
18743719784850,0.6979097723960876,-9.848548889160156,0.34835633635520935,0.010381062515079975,-0.00984870083630085,0.0375315360724926
18743721022037,0.7350199222564697,-9.848548889160156,0.34835633635520935,0.012776692397892475,-0.00931633822619915,0.033272635191679
18743722259212,0.7805097699165344,-9.801861763000488,0.34356793761253357,0.010647243820130825,-0.015172322280704975,0.0324740931391716
18743723496387,0.7457938194274902,-9.832986831665039,0.32202014327049255,0.013042873702943325,-0.01463996060192585,0.033272635191679
18743724733550,0.706289529800415,-9.834183692932129,0.3471592366695404,0.01224433071911335,-0.012510511092841625,0.0343373604118824
18743725970737,0.7589619159698486,-9.821015357971191,0.3603273630142212,0.010913425125181675,-0.02022976242005825,0.0300784632563591
18743727207900,0.727837324142456,-9.803058624267578,0.3423708379268646,0.008517795242369175,-0.01836649514734745,0.0300784632563591
18743728445087,0.7338228225708008,-9.84495735168457,0.36152446269989014,0.012510511092841625,-0.013309055007994175,0.0300784632563591
18743729682250,0.7374141216278076,-9.816226959228516,0.3758896589279175,0.0138414166867733,-0.01597086526453495,0.0276828333735466
18743730919437,0.7015011310577393,-9.825803756713867,0.3315969407558441,0.01224433071911335,-0.0138414166867733,0.0258195661008358
18743732156600,0.7613561749458313,-9.80904483795166,0.395043283700943,0.0119781494140625,-0.02129448764026165,0.02874755859375
18743733393787,0.7613561749458313,-9.806650161743164,0.34596213698387146,0.0138414166867733,-0.01597086526453495,0.0311431884765625
18743734630962,0.7457938194274902,-9.770737648010254,0.3758896589279175,0.01756795309484005,-0.0210283063352108,0.02794901467859745
18743735868137,0.706289529800415,-9.781511306762695,0.3423708379268646,0.0181003138422966,-0.0282151959836483,0.02741665206849575
18743737105312,0.7374141216278076,-9.838972091674805,0.3495534360408783,0.012510511092841625,-0.023956298828125,0.02555338479578495
18743738342487,0.7206547260284424,-9.800664901733398,0.3531447649002075,0.0157046839594841,-0.0186326764523983,0.02315775491297245
18743739579662,0.7422025203704834,-9.819818496704102,0.3758896589279175,0.01783413253724575,-0.0204959437251091,0.0300784632563591
18743740816837,0.7398083209991455,-9.791088104248047,0.3758896589279175,0.015438503585755825,-0.0252872034907341,0.02901373989880085
18743742054000,0.7374141216278076,-9.787496566772461,0.36990416049957275,0.01463996060192585,-0.02981228195130825,0.02608574740588665
18743743291187,0.7445967197418213,-9.824606895446777,0.3758896589279175,0.0157046839594841,-0.02981228195130825,0.0196974016726017
18743744528350,0.7314286231994629,-9.819818496704102,0.33997663855552673,0.0162370465695858,-0.02502102218568325,0.02422248013317585
18743745765537,0.7350199222564697,-9.81143856048584,0.3495534360408783,0.0191650390625,-0.0228915736079216,0.0244886614382267
18743747002712,0.7589619159698486,-9.813833236694336,0.36990416049957275,0.01836649514734745,-0.0295461006462574,0.0210283063352108
18743748239887,0.7326257228851318,-9.818621635437012,0.3842693865299225,0.01703559048473835,-0.02661811001598835,0.0191650390625
18743749477062,0.7218518257141113,-9.81024169921875,0.38546648621559143,0.01996358297765255,-0.02608574740588665,0.0223592109978199
18743750714237,0.7015011310577393,-9.794679641723633,0.34596213698387146,0.01357523538172245,-0.0244886614382267,0.0162370465695858
18743751951425,0.706289529800415,-9.780314445495605,0.34835633635520935,0.02262539230287075,-0.0271504707634449,0.02315775491297245
18743753188587,0.7350199222564697,-9.80904483795166,0.3627215623855591,0.02182685025036335,-0.02874755859375,0.023956298828125
18743754425762,0.7398083209991455,-9.832986831665039,0.3734954595565796,0.01463996060192585,-0.02661811001598835,0.0191650390625
18743755662937,0.7230489253997803,-9.806650161743164,0.34835633635520935,0.0204959437251091,-0.0282151959836483,0.0157046839594841
18743756900100,0.7338228225708008,-9.793481826782227,0.3555389642715454,0.02315775491297245,-0.0292799212038517,0.0191650390625
18743758137300,0.7254431247711182,-9.80904483795166,0.35913026332855225,0.02315775491297245,-0.0282151959836483,0.01836649514734745
18743759374462,0.7038953304290771,-9.81263542175293,0.35913026332855225,0.0215606689453125,-0.0292799212038517,0.01650322787463665
18743760611662,0.7374141216278076,-9.840168952941895,0.3902548849582672,0.01597086526453495,-0.02555338479578495,0.015438503585755825
18743761848812,0.7206547260284424,-9.829395294189453,0.37828385829925537,0.0247548408806324,-0.02981228195130825,0.010381062515079975
18743763085975,0.7122750282287598,-9.81143856048584,0.3471592366695404,0.02076212503015995,-0.0346035435795784,0.0066545275039970875
18743764323175,0.729034423828125,-9.806650161743164,0.3687070608139038,0.0210283063352108,-0.0351359061896801,0.014373779296875
18743765560362,0.6955155730247498,-9.841365814208984,0.35075056552886963,0.0210283063352108,-0.03087700717151165,0.01171196810901165
18743766797512,0.706289529800415,-9.816226959228516,0.37828385829925537,0.0215606689453125,-0.0340711809694767,0.008783976547420025
18743768034712,0.6847416758537292,-9.813833236694336,0.38546648621559143,0.0186326764523983,-0.0330064557492733,0.014906140975654125
18743769271875,0.6823474764823914,-9.865307807922363,0.37828385829925537,0.01703559048473835,-0.0330064557492733,0.013042873702943325
18743770509050,0.7170634269714355,-9.821015357971191,0.3974374830722809,0.02369011752307415,-0.033272635191679,0.00692070834338665
18743771746237,0.750582218170166,-9.806650161743164,0.3411737382411957,0.0228915736079216,-0.033272635191679,0.0053236219100654125
18743772983387,0.7098808288574219,-9.838972091674805,0.3387795388698578,0.02129448764026165,-0.0367329902946949,0.00452507846057415
18743774220575,0.730231523513794,-9.8784761428833,0.37469255924224854,0.02262539230287075,-0.0356682650744915,0.0
18743775457750,0.7182605266571045,-9.852140426635742,0.40701428055763245,0.02502102218568325,-0.0327402763068676,0.0023956298828125
18743776694937,0.707486629486084,-9.848548889160156,0.4141969084739685,0.0276828333735466,-0.0322079136967659,0.007985432632267475
18743777932112,0.7206547260284424,-9.838972091674805,0.3770867586135864,0.0282151959836483,-0.0372653529047966,0.00931633822619915
18743779169287,0.7110779285430908,-9.849745750427246,0.3423708379268646,0.02502102218568325,-0.0356682650744915,0.003460354171693325
18743780406475,0.729034423828125,-9.84256362915039,0.3818751871585846,0.02555338479578495,-0.0359344482421875,0.0031941730994731188
18743781643625,0.6667851805686951,-9.84615421295166,0.37229835987091064,0.02981228195130825,-0.033538818359375,0.0037265352439135313
18743782880812,0.6859387755393982,-9.823410034179688,0.37229835987091064,0.02555338479578495,-0.0324740931391716,0.0037265352439135313
18743784117975,0.6787561774253845,-9.81263542175293,0.333991140127182,0.02981228195130825,-0.033538818359375,0.0039927163161337376
18743785355150,0.730231523513794,-9.86650562286377,0.3878606855869293,0.02555338479578495,-0.0340711809694767,0.0031941730994731188
18743786592325,0.6236895322799683,-9.827000617980957,0.36750996112823486,0.02661811001598835,-0.0306108258664608,0.0007985432748682797
18743787829500,0.6763619780540466,-9.822212219238281,0.36990416049957275,0.02741665206849575,-0.0375315360724926,0.0005323622026480734
18743789066675,0.6823474764823914,-9.84615421295166,0.3974374830722809,0.02848137728869915,-0.0348697230219841,0.00452507846057415
18743790303862,0.667982280254364,-9.803058624267578,0.3974374830722809,0.0300784632563591,-0.038330078125,0.0015970865497365594
18743791541025,0.6871358752250671,-9.816226959228516,0.3866635859012604,0.02981228195130825,-0.0401933453977108,-0.00452507846057415
18743792778212,0.707486629486084,-9.791088104248047,0.39145198464393616,0.0295461006462574,-0.0377977155148983,0.0007985432748682797
18743794015387,0.6883329749107361,-9.798270225524902,0.395043283700943,0.0330064557492733,-0.0401933453977108,0.0018632676219567657
18743795252537,0.6823474764823914,-9.855731010437012,0.3663128614425659,0.02901373989880085,-0.0385962575674057,-0.0005323622026480734
18743796489737,0.6727706789970398,-9.864110946655273,0.41299980878829956,0.02661811001598835,-0.0362006276845932,-0.0013309054775163531
18743797726912,0.6703764796257019,-9.786299705505371,0.3998316824436188,0.0282151959836483,-0.0409918874502182,0.0018632676219567657
18743798964100,0.6727706789970398,-9.821015357971191,0.37828385829925537,0.0324740931391716,-0.0338049978017807,-0.0021294488105922937
18743800201262,0.6799532771110535,-9.816226959228516,0.3818751871585846,0.0319417305290699,-0.0354020856320858,-0.0039927163161337376
18743801438437,0.7098808288574219,-9.824606895446777,0.38905778527259827,0.02981228195130825,-0.0369991734623909,-0.0015970865497365594
18743802675625,0.6847416758537292,-9.821015357971191,0.365115761756897,0.0322079136967659,-0.038330078125,-0.003460354171693325
18743803912787,0.7242460250854492,-9.815030097961426,0.3866635859012604,0.02901373989880085,-0.038330078125,-0.0002661811013240367
18743805149962,0.6667851805686951,-9.873687744140625,0.3878606855869293,0.02981228195130825,-0.0316755510866642,-0.0013309054775163531
18743806387137,0.7122750282287598,-9.827000617980957,0.3758896589279175,0.0319417305290699,-0.0364668108522892,-0.0021294488105922937
18743807624312,0.7338228225708008,-9.831789016723633,0.3711012601852417,0.02794901467859745,-0.0369991734623909,-0.0013309054775163531
18743808861500,0.7015011310577393,-9.819818496704102,0.3878606855869293,0.0271504707634449,-0.033272635191679,-0.0039927163161337376
18743810098662,0.7086837291717529,-9.880870819091797,0.37469255924224854,0.02981228195130825,-0.0322079136967659,-0.0021294488105922937
18743811335850,0.6859387755393982,-9.870096206665039,0.39145198464393616,0.0282151959836483,-0.033272635191679,0.0015970865497365594
18743812573025,0.6787561774253845,-9.862914085388184,0.3842693865299225,0.02315775491297245,-0.0354020856320858,-0.005057440605014563
18743813810212,0.7015011310577393,-9.806650161743164,0.4345476031303406,0.0268842913210392,-0.0359344482421875,-0.0031941730994731188
18743815047375,0.6715735793113708,-9.847352027893066,0.4034229815006256,0.0292799212038517,-0.0409918874502182,-0.0039927163161337376
18743816284550,0.669179379940033,-9.831789016723633,0.3734954595565796,0.0311431884765625,-0.0369991734623909,-0.005589802749454975
18743817521725,0.6847416758537292,-9.824606895446777,0.38067808747291565,0.02608574740588665,-0.0364668108522892,-0.0063883461989462376
18743818758900,0.6619967818260193,-9.816226959228516,0.3734954595565796,0.0258195661008358,-0.0354020856320858,-0.008251613937318325
18743819996075,0.6991068720817566,-9.84256362915039,0.3447650372982025,0.02262539230287075,-0.0351359061896801,-0.003460354171693325
18743821233250,0.6739677786827087,-9.816226959228516,0.33039984107017517,0.0282151959836483,-0.0375315360724926,-0.004791259765625
18743822470437,0.7015011310577393,-9.841365814208984,0.36990416049957275,0.02794901467859745,-0.0351359061896801,-0.005057440605014563
18743823707587,0.6524199843406677,-9.818621635437012,0.3627215623855591,0.0258195661008358,-0.0362006276845932,-0.004791259765625
18743824944775,0.667982280254364,-9.828198432922363,0.36152446269989014,0.023956298828125,-0.033272635191679,-0.00692070834338665
18743826181962,0.6799532771110535,-9.84495735168457,0.3974374830722809,0.0282151959836483,-0.0314093679189682,-0.00692070834338665
18743827419137,0.6488286852836609,-9.841365814208984,0.3926490843296051,0.0263519287109375,-0.0314093679189682,-0.007985432632267475
18743828656312,0.6931213736534119,-9.886856079101562,0.3627215623855591,0.03034464456140995,-0.03034464456140995,-0.005057440605014563
18743829893475,0.6703764796257019,-9.850942611694336,0.363918662071228,0.0263519287109375,-0.0282151959836483,-0.0053236219100654125
18743831130675,0.6703764796257019,-9.848548889160156,0.3603273630142212,0.0167694091796875,-0.02555338479578495,-0.010114881210029125
18743832367837,0.7182605266571045,-9.855731010437012,0.36750996112823486,0.023956298828125,-0.0327402763068676,-0.007453070487827063
18743833605012,0.6859387755393982,-9.860519409179688,0.3711012601852417,0.02741665206849575,-0.0327402763068676,-0.0063883461989462376
18743834842187,0.6643909811973572,-9.818621635437012,0.3734954595565796,0.02262539230287075,-0.02874755859375,-0.008517795242369175
18743836079362,0.6488286852836609,-9.9000244140625,0.39624038338661194,0.0263519287109375,-0.0282151959836483,-0.0063883461989462376
18743837316537,0.7050924301147461,-9.883264541625977,0.38546648621559143,0.0252872034907341,-0.03034464456140995,-0.008517795242369175
18743838553712,0.646434485912323,-9.919178009033203,0.36750996112823486,0.02555338479578495,-0.0306108258664608,-0.008517795242369175
18743839790887,0.6667851805686951,-9.925163269042969,0.3758896589279175,0.02422248013317585,-0.03087700717151165,-0.010647243820130825
18743841028050,0.6368576288223267,-9.889249801635742,0.3794809579849243,0.023956298828125,-0.033538818359375,-0.007985432632267475
18743842265250,0.6751648783683777,-9.895236015319824,0.39624038338661194,0.0191650390625,-0.0319417305290699,-0.007453070487827063
18743843502412,0.669179379940033,-9.86889934539795,0.3878606855869293,0.01597086526453495,-0.02874755859375,-0.0063883461989462376
18743844739587,0.7003040313720703,-9.897629737854004,0.3926490843296051,0.0220930315554142,-0.0263519287109375,-0.0157046839594841
18743845976775,0.6751648783683777,-9.889249801635742,0.39384618401527405,0.02315775491297245,-0.03087700717151165,-0.015438503585755825
18743847213950,0.6703764796257019,-9.888052940368652,0.37828385829925537,0.0228915736079216,-0.0314093679189682,-0.008517795242369175
18743848451125,0.6799532771110535,-9.87967300415039,0.41299980878829956,0.0228915736079216,-0.0228915736079216,-0.005855984054505825
18743849688287,0.6548141837120056,-9.90241813659668,0.395043283700943,0.0252872034907341,-0.0268842913210392,-0.005057440605014563
18743850925475,0.6799532771110535,-9.853337287902832,0.36990416049957275,0.0215606689453125,-0.0316755510866642,-0.0119781494140625
18743852162637,0.646434485912323,-9.86770248413086,0.3878606855869293,0.0228915736079216,-0.0268842913210392,-0.005057440605014563
18743853399837,0.6847416758537292,-9.890447616577148,0.38067808747291565,0.0276828333735466,-0.0295461006462574,-0.0066545275039970875
18743854636987,0.6943184733390808,-9.914389610290527,0.3902548849582672,0.02182685025036335,-0.02555338479578495,-0.008251613937318325
18743855874187,0.6799532771110535,-9.864110946655273,0.365115761756897,0.01996358297765255,-0.02422248013317585,-0.0029279920272529125
18743857111350,0.689530074596405,-9.849745750427246,0.4165911078453064,0.0191650390625,-0.0220930315554142,-0.0026618109550327063
18743858348537,0.667982280254364,-9.847352027893066,0.42856210470199585,0.01783413253724575,-0.0247548408806324,-0.008251613937318325
18743859585712,0.7170634269714355,-9.828198432922363,0.424970805644989,0.0167694091796875,-0.0223592109978199,-0.00692070834338665
18743860822875,0.6955155730247498,-9.824606895446777,0.39384618401527405,0.01996358297765255,-0.0258195661008358,-0.0021294488105922937
18743862060050,0.6572083830833435,-9.848548889160156,0.3974374830722809,0.0223592109978199,-0.0271504707634449,-0.00452507846057415
18743863297237,0.7050924301147461,-9.807847023010254,0.40462008118629456,0.02076212503015995,-0.0191650390625,-0.0071868896484375
18743864534400,0.6811503767967224,-9.84615421295166,0.4082113802433014,0.02022976242005825,-0.0173017717897892,-0.0071868896484375
18743865771575,0.6979097723960876,-9.8784761428833,0.3902548849582672,0.0181003138422966,-0.0220930315554142,-0.0029279920272529125
18743867008762,0.6751648783683777,-9.855731010437012,0.41060560941696167,0.02182685025036335,-0.0282151959836483,-0.0039927163161337376
18743868245937,0.7026982307434082,-9.825803756713867,0.3842693865299225,0.023956298828125,-0.02741665206849575,-0.008251613937318325
18743869483112,0.6883329749107361,-9.850942611694336,0.35434186458587646,0.01783413253724575,-0.02262539230287075,-0.010114881210029125
18743870720275,0.6847416758537292,-9.84495735168457,0.36750996112823486,0.01783413253724575,-0.01943122036755085,-0.00984870083630085
18743871957450,0.6991068720817566,-9.798270225524902,0.3663128614425659,0.0186326764523983,-0.02182685025036335,-0.010647243820130825
18743873194637,0.6823474764823914,-9.827000617980957,0.3663128614425659,0.0191650390625,-0.0204959437251091,-0.010114881210029125
18743874431800,0.7110779285430908,-9.797073364257812,0.3292027413845062,0.01650322787463665,-0.0215606689453125,-0.010913425125181675
18743875668975,0.689530074596405,-9.838972091674805,0.39624038338661194,0.0181003138422966,-0.02129448764026165,-0.01171196810901165
18743876906162,0.6655880808830261,-9.86770248413086,0.3627215623855591,0.014373779296875,-0.0138414166867733,-0.012510511092841625
18743878143350,0.6739677786827087,-9.830592155456543,0.38546648621559143,0.015172322280704975,-0.0204959437251091,-0.010114881210029125
18743879380525,0.7326257228851318,-9.841365814208984,0.3902548849582672,0.01783413253724575,-0.01889885775744915,-0.0063883461989462376
18743880617687,0.7553706169128418,-9.837775230407715,0.38307228684425354,0.015438503585755825,-0.0186326764523983,-0.0071868896484375
18743881854862,0.667982280254364,-9.829395294189453,0.38307228684425354,0.0157046839594841,-0.0157046839594841,-0.00931633822619915
18743883092037,0.7218518257141113,-9.830592155456543,0.40222588181495667,0.01756795309484005,-0.015438503585755825,-0.0114457868039608
18743884329212,0.7158663272857666,-9.837775230407715,0.3758896589279175,0.01783413253724575,-0.01783413253724575,-0.010647243820130825
18743885566412,0.7206547260284424,-9.84495735168457,0.3926490843296051,0.0173017717897892,-0.0167694091796875,-0.005855984054505825
18743886803587,0.7445967197418213,-9.862914085388184,0.4572925269603729,0.01783413253724575,-0.01996358297765255,-0.0018632676219567657
18743888040737,0.7637503743171692,-9.872490882873535,0.38546648621559143,0.01889885775744915,-0.013042873702943325,-0.0090501569211483
18743889277912,0.7422025203704834,-9.885659217834473,0.3926490843296051,0.015438503585755825,-0.0167694091796875,-0.0114457868039608
18743890515087,0.7122750282287598,-9.907206535339355,0.40940847992897034,0.0114457868039608,-0.012510511092841625,-0.012510511092841625
18743891752275,0.7314286231994629,-9.856928825378418,0.39384618401527405,0.01463996060192585,-0.01650322787463665,-0.010647243820130825
18743892989450,0.7182605266571045,-9.849745750427246,0.4213795065879822,0.013309055007994175,-0.012510511092841625,-0.008517795242369175
18743894226612,0.6931213736534119,-9.877279281616211,0.40462008118629456,0.014906140975654125,-0.010913425125181675,-0.0114457868039608
18743895463812,0.729034423828125,-9.897629737854004,0.37828385829925537,0.013309055007994175,-0.01756795309484005,-0.00958251953125
18743896700962,0.7146692276000977,-9.907206535339355,0.4297592043876648,0.015172322280704975,-0.01703559048473835,-0.01117960549890995
18743897938150,0.6979097723960876,-9.876082420349121,0.38905778527259827,0.0167694091796875,-0.01410759799182415,-0.007985432632267475
18743899175325,0.6979097723960876,-9.884461402893066,0.3687070608139038,0.01597086526453495,-0.0119781494140625,-0.007453070487827063
18743900412512,0.7134721279144287,-9.884461402893066,0.38067808747291565,0.01117960549890995,-0.00984870083630085,-0.010647243820130825
18743901649687,0.7086837291717529,-9.872490882873535,0.4034229815006256,0.010381062515079975,-0.01117960549890995,-0.012776692397892475
18743902886837,0.7026982307434082,-9.877279281616211,0.37469255924224854,0.01171196810901165,-0.0119781494140625,-0.01117960549890995
18743904124025,0.7254431247711182,-9.908403396606445,0.42018240690231323,0.0196974016726017,-0.010647243820130825,-0.004791259765625
18743905361212,0.7230489253997803,-9.888052940368652,0.42856210470199585,0.01889885775744915,-0.013042873702943325,-0.00452507846057415
18743906598387,0.7266402244567871,-9.938331604003906,0.3926490843296051,0.01650322787463665,-0.00984870083630085,-0.00958251953125
18743907835550,0.7230489253997803,-9.897629737854004,0.38067808747291565,0.01756795309484005,-0.010913425125181675,-0.0053236219100654125
18743909072737,0.7410054206848145,-9.874884605407715,0.35075056552886963,0.01597086526453495,-0.007453070487827063,-0.0071868896484375
18743910309912,0.7338228225708008,-9.886856079101562,0.36990416049957275,0.01703559048473835,-0.01171196810901165,-0.007985432632267475
18743911547075,0.750582218170166,-9.86889934539795,0.41060560941696167,0.01357523538172245,-0.01224433071911335,-0.00958251953125
18743912784250,0.6883329749107361,-9.873687744140625,0.3842693865299225,0.0173017717897892,-0.004791259765625,-0.005589802749454975
18743914021437,0.7433996200561523,-9.914389610290527,0.4165911078453064,0.01463996060192585,-0.005855984054505825,-0.00692070834338665
18743915258612,0.7577648162841797,-9.873687744140625,0.35434186458587646,0.013042873702943325,-0.01357523538172245,-0.00452507846057415
18743916495800,0.7529764175415039,-9.864110946655273,0.395043283700943,0.015438503585755825,-0.00692070834338665,-0.007453070487827063
18743917732962,0.7481880187988281,-9.876082420349121,0.3866635859012604,0.01996358297765255,-0.008783976547420025,-0.0066545275039970875
18743918970162,0.706289529800415,-9.874884605407715,0.3926490843296051,0.01703559048473835,-0.0090501569211483,-0.0026618109550327063
18743920207312,0.7457938194274902,-9.8784761428833,0.3627215623855591,0.0167694091796875,-0.013042873702943325,-0.0042588976211845875
18743921444487,0.7230489253997803,-9.84256362915039,0.4034229815006256,0.0157046839594841,-0.0114457868039608,-0.0021294488105922937
18743922681650,0.750582218170166,-9.862914085388184,0.4225766062736511,0.007453070487827063,-0.0071868896484375,0.005057440605014563
18743923918850,0.7254431247711182,-9.841365814208984,0.4058171808719635,0.0167694091796875,-0.008783976547420025,0.0023956298828125
18743925156012,0.7362170219421387,-9.876082420349121,0.3423708379268646,0.014906140975654125,-0.010647243820130825,-0.00452507846057415
18743926393187,0.7469909191131592,-9.890447616577148,0.3663128614425659,0.01836649514734745,-0.0157046839594841,0.0015970865497365594
18743927630387,0.7457938194274902,-9.861717224121094,0.4189853072166443,0.0186326764523983,-0.005589802749454975,0.003460354171693325
18743928867550,0.7445967197418213,-9.84495735168457,0.3974374830722809,0.0114457868039608,-0.0042588976211845875,0.0037265352439135313
18743930104725,0.7254431247711182,-9.841365814208984,0.41299980878829956,0.0173017717897892,-0.013042873702943325,0.0007985432748682797
18743931341900,0.7374141216278076,-9.84376049041748,0.4034229815006256,0.0162370465695858,-0.010647243820130825,0.0037265352439135313
18743932579087,0.7577648162841797,-9.852140426635742,0.3579331636428833,0.0181003138422966,-0.010381062515079975,-0.0015970865497365594
18743933816262,0.7433996200561523,-9.856928825378418,0.4213795065879822,0.0186326764523983,-0.008251613937318325,0.005855984054505825
18743935053425,0.730231523513794,-9.852140426635742,0.41060560941696167,0.01836649514734745,-0.005855984054505825,0.00452507846057415
18743936290600,0.7206547260284424,-9.86770248413086,0.4034229815006256,0.02076212503015995,-0.0037265352439135313,0.00692070834338665
18743937527787,0.7637503743171692,-9.860519409179688,0.42018240690231323,0.0223592109978199,-0.0053236219100654125,0.004791259765625
18743938764950,0.7793126702308655,-9.861717224121094,0.4010287821292877,0.02555338479578495,-0.010114881210029125,0.0071868896484375
18743940002137,0.750582218170166,-9.853337287902832,0.38067808747291565,0.0252872034907341,-0.01597086526453495,0.00692070834338665
18743941239300,0.7948749661445618,-9.832986831665039,0.37828385829925537,0.02022976242005825,-0.008517795242369175,0.008517795242369175
18743942476500,0.7745242714881897,-9.830592155456543,0.4225766062736511,0.0186326764523983,-0.0090501569211483,0.0090501569211483
18743943713662,0.7817068696022034,-9.860519409179688,0.41778820753097534,0.0186326764523983,-0.014373779296875,0.00958251953125
18743944950825,0.7661445736885071,-9.8784761428833,0.4225766062736511,0.0204959437251091,-0.010381062515079975,0.007985432632267475
18743946188012,0.828393816947937,-9.847352027893066,0.3794809579849243,0.01783413253724575,-0.012510511092841625,0.008251613937318325
18743947425200,0.7876923680305481,-9.855731010437012,0.3998316824436188,0.02129448764026165,-0.0090501569211483,0.008251613937318325
18743948662375,0.8092401623725891,-9.870096206665039,0.4465186297893524,0.02076212503015995,-0.01171196810901165,0.008251613937318325
18743949899550,0.7493851184844971,-9.876082420349121,0.4441244304180145,0.013309055007994175,-0.0114457868039608,0.0077192517928779125
18743951136700,0.7457938194274902,-9.877279281616211,0.3711012601852417,0.01357523538172245,-0.00984870083630085,0.005057440605014563
18743952373900,0.7589619159698486,-9.889249801635742,0.395043283700943,0.0215606689453125,-0.0162370465695858,0.015172322280704975
18743953611050,0.7841010689735413,-9.884461402893066,0.38307228684425354,0.0181003138422966,-0.0119781494140625,0.0157046839594841
18743954848250,0.7709329724311829,-9.892841339111328,0.3758896589279175,0.0191650390625,-0.010381062515079975,0.014373779296875
18743956085425,0.7829039692878723,-9.90122127532959,0.3758896589279175,0.02076212503015995,-0.0138414166867733,0.01410759799182415
18743957322612,0.7649474740028381,-9.926360130310059,0.3770867586135864,0.013309055007994175,-0.0157046839594841,0.007453070487827063
18743958559775,0.7793126702308655,-9.926360130310059,0.3687070608139038,0.0157046839594841,-0.0119781494140625,0.014906140975654125
18743959796962,0.7757213711738586,-9.907206535339355,0.3280056416988373,0.0173017717897892,-0.013309055007994175,0.01171196810901165
18743961034125,0.727837324142456,-9.90122127532959,0.3974374830722809,0.01703559048473835,-0.0157046839594841,0.014906140975654125
18743962271312,0.7613561749458313,-9.885659217834473,0.3663128614425659,0.02076212503015995,-0.01756795309484005,0.012510511092841625
18743963508487,0.7469909191131592,-9.910798072814941,0.4141969084739685,0.0162370465695858,-0.01357523538172245,0.01117960549890995
18743964745650,0.7649474740028381,-9.939528465270996,0.38546648621559143,0.01357523538172245,-0.0223592109978199,0.015438503585755825
18743965982825,0.7541735172271729,-9.897629737854004,0.42856210470199585,0.0173017717897892,-0.0210283063352108,0.01703559048473835
18743967220012,0.7948749661445618,-9.908403396606445,0.43694180250167847,0.012776692397892475,-0.01597086526453495,0.01357523538172245
18743968457175,0.7996633648872375,-9.907206535339355,0.43933600187301636,0.012510511092841625,-0.0181003138422966,0.01171196810901165
18743969694350,0.7769184708595276,-9.929951667785645,0.4513070285320282,0.014373779296875,-0.0204959437251091,0.01756795309484005
18743970931525,0.7601590752601624,-9.916783332824707,0.4728548526763916,0.0119781494140625,-0.02369011752307415,0.01463996060192585
18743972168700,0.7793126702308655,-9.87967300415039,0.4189853072166443,0.01117960549890995,-0.02369011752307415,0.01597086526453495
18743973405900,0.788889467716217,-9.917980194091797,0.41060560941696167,0.013309055007994175,-0.02076212503015995,0.01889885775744915
18743974643062,0.8020575642585754,-9.8784761428833,0.3866635859012604,0.01357523538172245,-0.02182685025036335,0.0162370465695858
18743975880237,0.7769184708595276,-9.908403396606445,0.4165911078453064,0.01224433071911335,-0.0228915736079216,0.0196974016726017
18743977117412,0.7541735172271729,-9.885659217834473,0.4429273307323456,0.0119781494140625,-0.02555338479578495,0.02422248013317585
18743978354600,0.8056488633155823,-9.9000244140625,0.4297592043876648,0.010114881210029125,-0.0215606689453125,0.0220930315554142
18743979591775,0.7841010689735413,-9.921571731567383,0.4058171808719635,0.00692070834338665,-0.0220930315554142,0.01996358297765255
18743980828950,0.7733271718025208,-9.86889934539795,0.4213795065879822,0.008783976547420025,-0.02555338479578495,0.02129448764026165
18743982066125,0.7972691655158997,-9.861717224121094,0.4058171808719635,0.007453070487827063,-0.0263519287109375,0.0186326764523983
18743983303300,0.7721300721168518,-9.888052940368652,0.3878606855869293,0.008517795242369175,-0.0268842913210392,0.01943122036755085
18743984540475,0.8056488633155823,-9.889249801635742,0.3794809579849243,0.008517795242369175,-0.02794901467859745,0.0204959437251091
18743985777650,0.8080430626869202,-9.892841339111328,0.3663128614425659,0.0071868896484375,-0.0292799212038517,0.0223592109978199
18743987014837,0.7984662652015686,-9.897629737854004,0.4273650050163269,0.00931633822619915,-0.03034464456140995,0.0244886614382267
18743988252025,0.7757213711738586,-9.86770248413086,0.4381389021873474,0.0063883461989462376,-0.0276828333735466,0.0196974016726017
18743989489187,0.7457938194274902,-9.864110946655273,0.38905778527259827,0.005589802749454975,-0.0258195661008358,0.0191650390625
18743990726375,0.7829039692878723,-9.882067680358887,0.3926490843296051,0.0039927163161337376,-0.0314093679189682,0.0181003138422966
18743991963537,0.7876923680305481,-9.861717224121094,0.41299980878829956,0.0066545275039970875,-0.0367329902946949,0.01783413253724575
18743993200700,0.7924807667732239,-9.885659217834473,0.3794809579849243,0.0021294488105922937,-0.0351359061896801,0.0220930315554142
18743994437887,0.7625532746315002,-9.889249801635742,0.42856210470199585,0.0013309054775163531,-0.0319417305290699,0.0252872034907341
18743995675062,0.767341673374176,-9.859322547912598,0.3974374830722809,-0.0010647244052961469,-0.03034464456140995,0.01756795309484005
18743996912225,0.7924807667732239,-9.895236015319824,0.41299980878829956,0.005589802749454975,-0.033538818359375,0.0181003138422966
18743998149412,0.7864952683448792,-9.916783332824707,0.3998316824436188,0.006122165359556675,-0.0348697230219841,0.02422248013317585
18743999386587,0.7841010689735413,-9.87967300415039,0.36152446269989014,0.0013309054775163531,-0.0340711809694767,0.02608574740588665
18744000623750,0.7948749661445618,-9.874884605407715,0.41060560941696167,0.0021294488105922937,-0.0385962575674057,0.02262539230287075
18744001860937,0.8104372620582581,-9.929951667785645,0.3878606855869293,0.0029279920272529125,-0.0362006276845932,0.01889885775744915
18744003098125,0.7972691655158997,-9.913191795349121,0.39145198464393616,-0.0013309054775163531,-0.0367329902946949,0.02262539230287075
18744004335300,0.788889467716217,-9.922768592834473,0.41778820753097534,-0.0002661811013240367,-0.0375315360724926,0.0247548408806324
18744005572475,0.8152256608009338,-9.932345390319824,0.40462008118629456,0.0031941730994731188,-0.0396609827876091,0.0228915736079216
18744006809662,0.8152256608009338,-9.907206535339355,0.44532153010368347,0.0002661811013240367,-0.0399271659553051,0.0252872034907341
18744008046837,0.790086567401886,-9.928754806518555,0.4165911078453064,0.0002661811013240367,-0.043121337890625,0.0223592109978199
18744009284000,0.788889467716217,-9.93593692779541,0.40701428055763245,-0.0026618109550327063,-0.0423227921128273,0.0204959437251091
18744010521175,0.829590916633606,-9.910798072814941,0.42018240690231323,-0.0037265352439135313,-0.0417904332280159,0.0215606689453125
18744011758350,0.7338228225708008,-9.907206535339355,0.3794809579849243,-0.005589802749454975,-0.0423227921128273,0.0220930315554142
18744012995512,0.7410054206848145,-9.929951667785645,0.4465186297893524,-0.0039927163161337376,-0.0452507846057415,0.02369011752307415
18744014232712,0.7601590752601624,-9.95748519897461,0.4297592043876648,-0.0071868896484375,-0.0481787770986557,0.02422248013317585
18744015469875,0.7601590752601624,-9.931148529052734,0.4429273307323456,-0.005855984054505825,-0.0412580706179142,0.0271504707634449
18744016707062,0.7541735172271729,-9.931148529052734,0.4213795065879822,-0.0066545275039970875,-0.0457831472158432,0.0258195661008358
18744017944250,0.7589619159698486,-9.927556991577148,0.37828385829925537,-0.004791259765625,-0.0489773228764534,0.0247548408806324
18744019181412,0.7445967197418213,-9.897629737854004,0.35673606395721436,-0.008517795242369175,-0.0465816929936409,0.02608574740588665
18744020418600,0.7841010689735413,-9.923966407775879,0.40940847992897034,-0.0114457868039608,-0.0473802350461483,0.023956298828125
18744021655775,0.7338228225708008,-9.9000244140625,0.4273650050163269,-0.007985432632267475,-0.0468478724360466,0.0215606689453125
18744022892962,0.7721300721168518,-9.904812812805176,0.39384618401527405,-0.0071868896484375,-0.052437674254179,0.0282151959836483
18744024130125,0.7422025203704834,-9.93474006652832,0.41778820753097534,-0.0119781494140625,-0.0535023994743824,0.02608574740588665
18744025367300,0.7709329724311829,-9.906009674072266,0.3974374830722809,-0.01410759799182415,-0.0500420443713665,0.01889885775744915
18744026604475,0.768538773059845,-9.90122127532959,0.37828385829925537,-0.0157046839594841,-0.0516391322016716,0.0234239362180233
18744027841637,0.7481880187988281,-9.896432876586914,0.4297592043876648,-0.01410759799182415,-0.0497758649289608,0.02369011752307415
18744029078825,0.7793126702308655,-9.940725326538086,0.37828385829925537,-0.01117960549890995,-0.0481787770986557,0.0223592109978199
18744030316000,0.7493851184844971,-9.925163269042969,0.41539400815963745,-0.01171196810901165,-0.0537685826420784,0.0247548408806324
18744031553175,0.7577648162841797,-9.913191795349121,0.41299980878829956,-0.01597086526453495,-0.0516391322016716,0.0252872034907341
18744032790350,0.7422025203704834,-9.941922187805176,0.4381389021873474,-0.01463996060192585,-0.0508405901491642,0.0234239362180233
18744034027537,0.751779317855835,-9.904812812805176,0.37469255924224854,-0.014906140975654125,-0.0582936592400074,0.023956298828125
18744035264712,0.7493851184844971,-9.906009674072266,0.3770867586135864,-0.0196974016726017,-0.0566965714097023,0.0300784632563591
18744036501887,0.7972691655158997,-9.915586471557617,0.42018240690231323,-0.01889885775744915,-0.04791259765625,0.023956298828125
18744037739062,0.7864952683448792,-9.886856079101562,0.42018240690231323,-0.0167694091796875,-0.0553656667470932,0.02129448764026165
18744038976237,0.7457938194274902,-9.849745750427246,0.44532153010368347,-0.015438503585755825,-0.0625525563955307,0.02555338479578495
18744040213412,0.7649474740028381,-9.877279281616211,0.44173023104667664,-0.02022976242005825,-0.0561642125248909,0.0228915736079216
18744041450600,0.7589619159698486,-9.872490882873535,0.4034229815006256,-0.01783413253724575,-0.0564303919672966,0.02076212503015995
18744042687750,0.7134721279144287,-9.928754806518555,0.424970805644989,-0.01996358297765255,-0.0577612966299057,0.02076212503015995
18744043924937,0.7649474740028381,-9.904812812805176,0.42377370595932007,-0.0204959437251091,-0.052437674254179,0.0191650390625
18744045162112,0.6643909811973572,-9.917980194091797,0.3842693865299225,-0.02129448764026165,-0.0585598424077034,0.0204959437251091
18744046399300,0.7613561749458313,-9.90361499786377,0.424970805644989,-0.02129448764026165,-0.0556318499147892,0.01996358297765255
18744047636475,0.729034423828125,-9.895236015319824,0.4118027091026306,-0.0252872034907341,-0.0543009415268898,0.0181003138422966
18744048873650,0.6835445761680603,-9.911994934082031,0.40222588181495667,-0.02315775491297245,-0.0497758649289608,0.0138414166867733
18744050110837,0.7003040313720703,-9.897629737854004,0.38067808747291565,-0.02422248013317585,-0.0532362200319767,0.0157046839594841
18744051348012,0.6991068720817566,-9.884461402893066,0.3794809579849243,-0.0263519287109375,-0.0553656667470932,0.01703559048473835
18744052585187,0.6787561774253845,-9.86889934539795,0.39863458275794983,-0.0282151959836483,-0.0598907470703125,0.02262539230287075
18744053822350,0.7146692276000977,-9.86889934539795,0.3711012601852417,-0.0244886614382267,-0.0561642125248909,0.0271504707634449
18744055059525,0.7170634269714355,-9.859322547912598,0.4189853072166443,-0.0215606689453125,-0.0574951171875,0.0268842913210392
18744056296712,0.7038953304290771,-9.8784761428833,0.4141969084739685,-0.02076212503015995,-0.0556318499147892,0.02022976242005825
18744057533887,0.689530074596405,-9.880870819091797,0.3902548849582672,-0.0295461006462574,-0.0569627545773983,0.02129448764026165
18744058771050,0.6943184733390808,-9.872490882873535,0.40462008118629456,-0.02661811001598835,-0.0596245639026165,0.0204959437251091
18744060008237,0.6955155730247498,-9.883264541625977,0.3902548849582672,-0.02502102218568325,-0.0577612966299057,0.0234239362180233
18744061245412,0.7266402244567871,-9.892841339111328,0.3974374830722809,-0.0271504707634449,-0.0585598424077034,0.01597086526453495
18744062482600,0.689530074596405,-9.870096206665039,0.3794809579849243,-0.0263519287109375,-0.0561642125248909,0.0210283063352108
18744063719775,0.707486629486084,-9.865307807922363,0.36152446269989014,-0.02661811001598835,-0.052437674254179,0.02422248013317585
18744064956937,0.6943184733390808,-9.850942611694336,0.3758896589279175,-0.0263519287109375,-0.0593583844602108,0.0210283063352108
18744066194125,0.707486629486084,-9.888052940368652,0.38067808747291565,-0.02741665206849575,-0.0585598424077034,0.02502102218568325
18744067431300,0.6943184733390808,-9.850942611694336,0.41060560941696167,-0.02369011752307415,-0.0588260218501091,0.02422248013317585
18744068668462,0.6955155730247498,-9.848548889160156,0.37229835987091064,-0.0292799212038517,-0.0582936592400074,0.0191650390625
18744069905662,0.6811503767967224,-9.853337287902832,0.39624038338661194,-0.0300784632563591,-0.0556318499147892,0.01996358297765255
18744071142825,0.669179379940033,-9.836577415466309,0.35913026332855225,-0.02794901467859745,-0.0569627545773983,0.01703559048473835
18744072380012,0.689530074596405,-9.84495735168457,0.3519476652145386,-0.02848137728869915,-0.0604231096804142,0.0244886614382267
18744073617187,0.6488286852836609,-9.81263542175293,0.38905778527259827,-0.02555338479578495,-0.062286376953125,0.02262539230287075
18744074854350,0.6655880808830261,-9.818621635437012,0.36750996112823486,-0.02182685025036335,-0.0556318499147892,0.0196974016726017
18744076091525,0.6536170840263367,-9.822212219238281,0.3711012601852417,-0.02901373989880085,-0.0558980293571949,0.0196974016726017
18744077328712,0.6991068720817566,-9.829395294189453,0.36750996112823486,-0.03087700717151165,-0.0548333041369915,0.01650322787463665
18744078565887,0.6799532771110535,-9.849745750427246,0.3878606855869293,-0.02848137728869915,-0.0569627545773983,0.02182685025036335
18744079803075,0.7122750282287598,-9.84495735168457,0.3363853394985199,-0.02848137728869915,-0.0535023994743824,0.0186326764523983
18744081040237,0.6739677786827087,-9.84376049041748,0.3471592366695404,-0.02502102218568325,-0.0540347620844841,0.02129448764026165
18744082277400,0.6655880808830261,-9.849745750427246,0.40940847992897034,-0.02608574740588665,-0.0540347620844841,0.01783413253724575
18744083514587,0.6356605291366577,-9.797073364257812,0.4082113802433014,-0.0300784632563591,-0.0553656667470932,0.01703559048473835
18744084751762,0.6440402865409851,-9.874884605407715,0.4034229815006256,-0.0319417305290699,-0.0543009415268898,0.01996358297765255
18744085988950,0.646434485912323,-9.883264541625977,0.38546648621559143,-0.0282151959836483,-0.0497758649289608,0.0186326764523983
18744087226125,0.6979097723960876,-9.84495735168457,0.34835633635520935,-0.02901373989880085,-0.0489773228764534,0.02022976242005825
18744088463300,0.6811503767967224,-9.806650161743164,0.35913026332855225,-0.0268842913210392,-0.0508405901491642,0.0223592109978199
18744089700475,0.6500257849693298,-9.847352027893066,0.3734954595565796,-0.02502102218568325,-0.0487111397087574,0.02502102218568325
18744090937662,0.6715735793113708,-9.84376049041748,0.4010287821292877,-0.0263519287109375,-0.0495096817612648,0.0186326764523983
18744092174812,0.6548141837120056,-9.825803756713867,0.35075056552886963,-0.0252872034907341,-0.0505744069814682,0.0162370465695858
18744093412000,0.6512228846549988,-9.84615421295166,0.3124433159828186,-0.02129448764026165,-0.0447184219956398,0.01650322787463665
18744094649187,0.6919242739677429,-9.850942611694336,0.33279404044151306,-0.0263519287109375,-0.0465816929936409,0.01783413253724575
18744095886350,0.6500257849693298,-9.834183692932129,0.3711012601852417,-0.03034464456140995,-0.0521714948117733,0.0162370465695858
18744097123550,0.6607996821403503,-9.84495735168457,0.3818751871585846,-0.02555338479578495,-0.0489773228764534,0.0181003138422966
18744098360700,0.6560112833976746,-9.864110946655273,0.3555389642715454,-0.02981228195130825,-0.0465816929936409,0.0173017717897892
18744099597900,0.6727706789970398,-9.767146110534668,0.3734954595565796,-0.03034464456140995,-0.0465816929936409,0.0191650390625
18744100835062,0.6560112833976746,-9.836577415466309,0.39863458275794983,-0.02422248013317585,-0.0495096817612648,0.02182685025036335
18744102072250,0.6619967818260193,-9.855731010437012,0.3124433159828186,-0.023956298828125,-0.0457831472158432,0.0215606689453125
18744103309425,0.6488286852836609,-9.835380554199219,0.3387795388698578,-0.0252872034907341,-0.0433875173330307,0.01996358297765255
18744104546600,0.6189011335372925,-9.825803756713867,0.3471592366695404,-0.0220930315554142,-0.0484449602663517,0.01756795309484005
18744105783787,0.6524199843406677,-9.794679641723633,0.31124621629714966,-0.0220930315554142,-0.0391286201775074,0.01703559048473835
18744107020950,0.6560112833976746,-9.794679641723633,0.3519476652145386,-0.02555338479578495,-0.0346035435795784,0.01889885775744915
18744108258137,0.6548141837120056,-9.791088104248047,0.3315969407558441,-0.0263519287109375,-0.0388624407351017,0.01836649514734745
18744109495312,0.6488286852836609,-9.852140426635742,0.32680854201316833,-0.0247548408806324,-0.0417904332280159,0.02262539230287075
18744110732487,0.6308721303939819,-9.80904483795166,0.3519476652145386,-0.0223592109978199,-0.0359344482421875,0.0186326764523983
18744111969662,0.6416460871696472,-9.793481826782227,0.363918662071228,-0.0204959437251091,-0.0375315360724926,0.01650322787463665
18744113206837,0.645237386226654,-9.787496566772461,0.28969842195510864,-0.01943122036755085,-0.0393948033452034,0.0196974016726017
18744114444012,0.6416460871696472,-9.768342971801758,0.32680854201316833,-0.01650322787463665,-0.0409918874502182,0.0210283063352108
18744115681200,0.6751648783683777,-9.77552604675293,0.4010287821292877,-0.02262539230287075,-0.0356682650744915,0.02022976242005825
18744116918350,0.6476315855979919,-9.80904483795166,0.363918662071228,-0.02262539230287075,-0.033272635191679,0.014373779296875
18744118155550,0.6572083830833435,-9.774328231811523,0.34835633635520935,-0.02369011752307415,-0.0292799212038517,0.0191650390625
18744119392700,0.6332663297653198,-9.739612579345703,0.3292027413845062,-0.0204959437251091,-0.0388624407351017,0.0157046839594841
18744120629900,0.6524199843406677,-9.767146110534668,0.33758243918418884,-0.01783413253724575,-0.0346035435795784,0.01597086526453495
18744121867075,0.6260837316513062,-9.764751434326172,0.3495534360408783,-0.02022976242005825,-0.0276828333735466,0.0138414166867733
18744123104250,0.6428431868553162,-9.767146110534668,0.3495534360408783,-0.0258195661008358,-0.0282151959836483,0.0196974016726017
18744124341425,0.6380547285079956,-9.803058624267578,0.3148375153541565,-0.01650322787463665,-0.02981228195130825,0.01703559048473835
18744125578600,0.6500257849693298,-9.761160850524902,0.31124621629714966,-0.014906140975654125,-0.02901373989880085,0.014373779296875
18744126815762,0.6440402865409851,-9.767146110534668,0.35075056552886963,-0.0157046839594841,-0.02502102218568325,0.0162370465695858
18744128052962,0.629675030708313,-9.782708168029785,0.36152446269989014,-0.0138414166867733,-0.02661811001598835,0.0191650390625
18744129290137,0.6141127347946167,-9.793481826782227,0.32680854201316833,-0.0138414166867733,-0.0258195661008358,0.0196974016726017
18744130527300,0.6404489874839783,-9.832986831665039,0.3315969407558441,-0.0173017717897892,-0.02076212503015995,0.0167694091796875
18744131764487,0.628477931022644,-9.801861763000488,0.3232172429561615,-0.015172322280704975,-0.0258195661008358,0.0167694091796875
18744133001675,0.6488286852836609,-9.789891242980957,0.30047231912612915,-0.0138414166867733,-0.0234239362180233,0.0157046839594841
18744134238837,0.6141127347946167,-9.771934509277344,0.3818751871585846,-0.012510511092841625,-0.01836649514734745,0.01357523538172245
18744135476025,0.6775590777397156,-9.77672290802002,0.3447650372982025,-0.012776692397892475,-0.0181003138422966,0.01463996060192585
18744136713187,0.6811503767967224,-9.81024169921875,0.3387795388698578,-0.0090501569211483,-0.01783413253724575,0.015438503585755825
18744137950375,0.6500257849693298,-9.799468040466309,0.3627215623855591,-0.00958251953125,-0.013042873702943325,0.010647243820130825
18744139187550,0.6703764796257019,-9.793481826782227,0.38067808747291565,-0.015438503585755825,-0.01171196810901165,0.010647243820130825
18744140424737,0.6392518877983093,-9.737218856811523,0.3232172429561615,-0.005855984054505825,-0.0138414166867733,0.01650322787463665
18744141661912,0.6428431868553162,-9.763554573059082,0.30047231912612915,-0.005057440605014563,-0.01357523538172245,0.0191650390625
18744142899087,0.6009446382522583,-9.761160850524902,0.35913026332855225,-0.008517795242369175,-0.013042873702943325,0.01889885775744915
18744144136262,0.6260837316513062,-9.774328231811523,0.3208230435848236,-0.00931633822619915,-0.0119781494140625,0.01597086526453495
18744145373425,0.6488286852836609,-9.780314445495605,0.36750996112823486,-0.008251613937318325,-0.01224433071911335,0.01410759799182415
18744146610612,0.6141127347946167,-9.789891242980957,0.2944868206977844,-0.00692070834338665,-0.0119781494140625,0.014373779296875
18744147847787,0.6105214357376099,-9.770737648010254,0.2932897210121155,-0.010114881210029125,-0.010114881210029125,0.01597086526453495
18744149084962,0.6332663297653198,-9.797073364257812,0.3256114423274994,-0.005057440605014563,-0.005589802749454975,0.01650322787463665
18744150322150,0.6248866319656372,-9.841365814208984,0.3519476652145386,-0.00692070834338665,-0.006122165359556675,0.01650322787463665
18744151559312,0.6631938815116882,-9.815030097961426,0.38546648621559143,-0.00931633822619915,-0.0071868896484375,0.0162370465695858
18744152796487,0.669179379940033,-9.803058624267578,0.3100491166114807,-0.007453070487827063,-0.0042588976211845875,0.00692070834338665
18744154033675,0.6093243360519409,-9.798270225524902,0.3076549172401428,-0.0026618109550327063,-0.005589802749454975,0.010913425125181675
18744155270850,0.6572083830833435,-9.795876502990723,0.28969842195510864,-0.0066545275039970875,-0.0037265352439135313,0.01756795309484005
18744156508025,0.6380547285079956,-9.80904483795166,0.3208230435848236,-0.0042588976211845875,0.0010647244052961469,0.0119781494140625
18744157745212,0.6045359373092651,-9.774328231811523,0.2908955216407776,-0.003460354171693325,-0.0013309054775163531,0.006122165359556675
18744158982387,0.6224924325942993,-9.805453300476074,0.33997663855552673,-0.003460354171693325,-0.00452507846057415,0.010913425125181675
18744160219562,0.6236895322799683,-9.806650161743164,0.363918662071228,0.0018632676219567657,-0.004791259765625,0.01783413253724575
18744161456737,0.6584054827690125,-9.81024169921875,0.333991140127182,0.0015970865497365594,-0.0007985432748682797,0.01650322787463665
18744162693912,0.6189011335372925,-9.830592155456543,0.32680854201316833,-0.0002661811013240367,0.0026618109550327063,0.01224433071911335
18744163931087,0.6476315855979919,-9.801861763000488,0.31364041566848755,-0.0007985432748682797,0.0026618109550327063,0.01783413253724575
18744165168275,0.6368576288223267,-9.806650161743164,0.28730419278144836,0.0,0.00452507846057415,0.0138414166867733
18744166405425,0.6320692300796509,-9.847352027893066,0.2861070930957794,0.0013309054775163531,0.0039927163161337376,0.010114881210029125
18744167642612,0.6428431868553162,-9.81143856048584,0.35913026332855225,0.0015970865497365594,0.0077192517928779125,0.0114457868039608
18744168879800,0.6775590777397156,-9.81024169921875,0.31364041566848755,0.006122165359556675,0.0021294488105922937,0.01783413253724575
18744170116975,0.6380547285079956,-9.813833236694336,0.33518823981285095,0.0042588976211845875,0.00692070834338665,0.01224433071911335
18744171354137,0.6751648783683777,-9.829395294189453,0.3363853394985199,0.0010647244052961469,0.008517795242369175,0.0119781494140625
18744172591325,0.6488286852836609,-9.821015357971191,0.32680854201316833,0.0037265352439135313,0.005855984054505825,0.014906140975654125
18744173828487,0.6009446382522583,-9.84615421295166,0.365115761756897,0.006122165359556675,0.005057440605014563,0.01410759799182415
18744175065700,0.606930136680603,-9.791088104248047,0.31842881441116333,0.0077192517928779125,0.0063883461989462376,0.01117960549890995
18744176302850,0.6141127347946167,-9.827000617980957,0.3411737382411957,0.0037265352439135313,0.0066545275039970875,0.0114457868039608
18744177540037,0.667982280254364,-9.806650161743164,0.30286651849746704,0.0039927163161337376,0.0114457868039608,0.010647243820130825
18744178777212,0.6751648783683777,-9.806650161743164,0.3447650372982025,0.0066545275039970875,0.01224433071911335,0.0090501569211483
18744180014400,0.6548141837120056,-9.797073364257812,0.35673606395721436,0.005855984054505825,0.010114881210029125,0.0071868896484375
18744181251575,0.6943184733390808,-9.841365814208984,0.3411737382411957,0.0029279920272529125,0.01703559048473835,0.013309055007994175
18744182488750,0.6572083830833435,-9.84376049041748,0.30526071786880493,0.0042588976211845875,0.0167694091796875,0.012510511092841625
18744183725925,0.6727706789970398,-9.835380554199219,0.35434186458587646,0.0021294488105922937,0.015438503585755825,0.00984870083630085
18744184963100,0.6548141837120056,-9.824606895446777,0.3172317147254944,0.0015970865497365594,0.01410759799182415,0.003460354171693325
18744186200287,0.646434485912323,-9.854534149169922,0.3280056416988373,0.005057440605014563,0.01410759799182415,0.00984870083630085
18744187437450,0.6572083830833435,-9.856928825378418,0.31603461503982544,0.0090501569211483,0.01410759799182415,0.008251613937318325
18744188674625,0.6572083830833435,-9.865307807922363,0.31962594389915466,0.00692070834338665,0.0186326764523983,0.005855984054505825
18744189911787,0.6655880808830261,-9.825803756713867,0.3734954595565796,0.0023956298828125,0.0167694091796875,0.010647243820130825
18744191148975,0.7242460250854492,-9.825803756713867,0.33279404044151306,0.007453070487827063,0.01171196810901165,0.00931633822619915
18744192386150,0.6308721303939819,-9.862914085388184,0.34356793761253357,0.0063883461989462376,0.01597086526453495,0.00958251953125
18744193623337,0.6955155730247498,-9.84495735168457,0.3232172429561615,0.0042588976211845875,0.01597086526453495,0.012776692397892475
18744194860500,0.669179379940033,-9.90241813659668,0.36990416049957275,0.0015970865497365594,0.01756795309484005,0.010647243820130825
18744196097712,0.6775590777397156,-9.84615421295166,0.33758243918418884,0.007453070487827063,0.01357523538172245,0.01224433071911335
18744197334875,0.6631938815116882,-9.858125686645508,0.3232172429561615,0.006122165359556675,0.01597086526453495,0.005855984054505825
18744198572050,0.6991068720817566,-9.858125686645508,0.3208230435848236,0.0071868896484375,0.0191650390625,0.0029279920272529125
18744199809212,0.6799532771110535,-9.882067680358887,0.30047231912612915,0.0053236219100654125,0.01783413253724575,0.0015970865497365594
18744201046400,0.6799532771110535,-9.840168952941895,0.363918662071228,0.00931633822619915,0.01703559048473835,0.0039927163161337376
18744202283562,0.6763619780540466,-9.890447616577148,0.3495534360408783,0.0053236219100654125,0.0204959437251091,0.0063883461989462376
18744203520750,0.7266402244567871,-9.888052940368652,0.32680854201316833,0.007453070487827063,0.0234239362180233,0.007453070487827063
18744204757925,0.6751648783683777,-9.873687744140625,0.2693476974964142,0.0071868896484375,0.02315775491297245,0.0015970865497365594
18744205995125,0.707486629486084,-9.84376049041748,0.31364041566848755,0.0037265352439135313,0.01889885775744915,0.00452507846057415
18744207232287,0.6931213736534119,-9.858125686645508,0.3471592366695404,0.007453070487827063,0.01889885775744915,0.003460354171693325
18744208469450,0.6799532771110535,-9.890447616577148,0.3280056416988373,0.006122165359556675,0.0167694091796875,0.0042588976211845875
18744209706612,0.6943184733390808,-9.894038200378418,0.2849099934101105,0.0053236219100654125,0.02022976242005825,0.0077192517928779125
18744210943825,0.7242460250854492,-9.883264541625977,0.31364041566848755,0.0063883461989462376,0.0268842913210392,0.0077192517928779125
18744212180987,0.6991068720817566,-9.8784761428833,0.34835633635520935,0.006122165359556675,0.02076212503015995,0.0037265352439135313
18744213418162,0.730231523513794,-9.896432876586914,0.363918662071228,0.0018632676219567657,0.02129448764026165,0.0023956298828125
18744214655362,0.7050924301147461,-9.861717224121094,0.34835633635520935,0.0042588976211845875,0.0234239362180233,0.004791259765625
18744215892512,0.7134721279144287,-9.892841339111328,0.33039984107017517,0.00452507846057415,0.01783413253724575,0.0042588976211845875
18744217129712,0.7015011310577393,-9.906009674072266,0.3411737382411957,0.003460354171693325,0.0234239362180233,0.0029279920272529125
18744218366875,0.6739677786827087,-9.895236015319824,0.3292027413845062,0.005855984054505825,0.0234239362180233,0.0021294488105922937
18744219604075,0.7182605266571045,-9.897629737854004,0.3447650372982025,0.00452507846057415,0.01836649514734745,0.0037265352439135313
18744220841225,0.7003040313720703,-9.907206535339355,0.2932897210121155,0.005057440605014563,0.01650322787463665,0.008251613937318325
18744222078400,0.6991068720817566,-9.847352027893066,0.30047231912612915,-0.0023956298828125,0.0215606689453125,0.005855984054505825
18744223315600,0.7254431247711182,-9.877279281616211,0.3256114423274994,-0.005589802749454975,0.0263519287109375,0.003460354171693325
18744224552750,0.729034423828125,-9.888052940368652,0.333991140127182,0.005855984054505825,0.0234239362180233,0.0013309054775163531
18744225789925,0.7338228225708008,-9.891644477844238,0.34596213698387146,0.006122165359556675,0.0191650390625,0.0037265352439135313
18744227027125,0.7254431247711182,-9.90241813659668,0.31842881441116333,-0.0005323622026480734,0.0196974016726017,0.0021294488105922937
18744228264300,0.7457938194274902,-9.890447616577148,0.3411737382411957,-0.003460354171693325,0.0228915736079216,0.0029279920272529125
18744229501462,0.7661445736885071,-9.894038200378418,0.3315969407558441,0.0,0.0220930315554142,0.0031941730994731188
18744230738637,0.7182605266571045,-9.890447616577148,0.3734954595565796,-0.0002661811013240367,0.01650322787463665,-0.0007985432748682797
18744231975825,0.7206547260284424,-9.90241813659668,0.31962594389915466,0.0021294488105922937,0.01597086526453495,0.00452507846057415
18744233213000,0.7314286231994629,-9.90361499786377,0.3124433159828186,0.0013309054775163531,0.02022976242005825,0.0053236219100654125
18744234450175,0.7481880187988281,-9.880870819091797,0.3519476652145386,0.0053236219100654125,0.02369011752307415,0.0037265352439135313
18744235687362,0.7314286231994629,-9.885659217834473,0.3471592366695404,-0.003460354171693325,0.0220930315554142,0.0039927163161337376
18744236924525,0.6871358752250671,-9.888052940368652,0.33758243918418884,-0.0013309054775163531,0.0204959437251091,0.0066545275039970875
18744238161712,0.7146692276000977,-9.856928825378418,0.2753331959247589,-0.0013309054775163531,0.02262539230287075,0.005589802749454975
18744239398887,0.7338228225708008,-9.877279281616211,0.33758243918418884,-0.0023956298828125,0.01996358297765255,-0.0002661811013240367
18744240636050,0.7218518257141113,-9.921571731567383,0.3100491166114807,-0.0002661811013240367,0.01650322787463665,0.0002661811013240367
18744241873225,0.7601590752601624,-9.86770248413086,0.32680854201316833,-0.0039927163161337376,0.0223592109978199,0.0007985432748682797
18744243110412,0.7038953304290771,-9.9000244140625,0.3148375153541565,0.0023956298828125,0.01889885775744915,0.0007985432748682797
18744244347587,0.7529764175415039,-9.897629737854004,0.33279404044151306,0.0018632676219567657,0.0204959437251091,0.0039927163161337376
18744245584787,0.7122750282287598,-9.9000244140625,0.3124433159828186,-0.0018632676219567657,0.0210283063352108,0.005589802749454975
18744246821962,0.7745242714881897,-9.871294021606445,0.3495534360408783,0.0005323622026480734,0.0196974016726017,0.0021294488105922937
18744248059112,0.7338228225708008,-9.859322547912598,0.304063618183136,-0.0037265352439135313,0.01943122036755085,-0.0015970865497365594
18744249296300,0.7386112213134766,-9.917980194091797,0.304063618183136,-0.0066545275039970875,0.01836649514734745,-0.0010647244052961469
18744250533475,0.7469909191131592,-9.910798072814941,0.3208230435848236,-0.005855984054505825,0.01597086526453495,0.0002661811013240367
18744251770650,0.7206547260284424,-9.888052940368652,0.3124433159828186,-0.0015970865497365594,0.01650322787463665,0.0042588976211845875
18744253007837,0.751779317855835,-9.873687744140625,0.304063618183136,-0.0053236219100654125,0.0162370465695858,0.0029279920272529125
18744254245000,0.729034423828125,-9.909601211547852,0.3447650372982025,-0.0071868896484375,0.015438503585755825,0.005057440605014563
18744255482187,0.730231523513794,-9.914389610290527,0.2932897210121155,-0.006122165359556675,0.015438503585755825,0.0007985432748682797
18744256719350,0.7493851184844971,-9.914389610290527,0.32202014327049255,-0.003460354171693325,0.012776692397892475,-0.0010647244052961469
18744257956550,0.7254431247711182,-9.916783332824707,0.36750996112823486,-0.0071868896484375,0.01224433071911335,0.0029279920272529125
18744259193712,0.706289529800415,-9.865307807922363,0.3016694188117981,-0.004791259765625,0.01224433071911335,0.004791259765625
18744260430887,0.7015011310577393,-9.877279281616211,0.2885012924671173,-0.007985432632267475,0.01410759799182415,0.0039927163161337376
18744261668075,0.7122750282287598,-9.860519409179688,0.33518823981285095,-0.005855984054505825,0.01224433071911335,0.0037265352439135313
18744262905250,0.7386112213134766,-9.880870819091797,0.31842881441116333,-0.00452507846057415,0.0114457868039608,0.004791259765625
18744264142425,0.7553706169128418,-9.90361499786377,0.3256114423274994,-0.0023956298828125,0.007985432632267475,0.006122165359556675
18744265379600,0.7876923680305481,-9.880870819091797,0.3256114423274994,-0.007985432632267475,0.00931633822619915,0.0026618109550327063
18744266616775,0.6979097723960876,-9.891644477844238,0.30885201692581177,-0.010381062515079975,0.010647243820130825,0.0010647244052961469
18744267853950,0.7098808288574219,-9.898826599121094,0.30885201692581177,-0.010381062515079975,0.00958251953125,0.0021294488105922937
18744269091125,0.767341673374176,-9.855731010437012,0.3064578175544739,-0.005589802749454975,0.008783976547420025,0.005589802749454975
18744270328312,0.7445967197418213,-9.870096206665039,0.29209262132644653,-0.007985432632267475,0.0138414166867733,0.003460354171693325
18744271565500,0.7098808288574219,-9.884461402893066,0.31364041566848755,-0.00984870083630085,0.0077192517928779125,0.0005323622026480734
18744272802675,0.7146692276000977,-9.907206535339355,0.28131869435310364,-0.01171196810901165,0.006122165359556675,0.0029279920272529125
18744274039837,0.7445967197418213,-9.859322547912598,0.3232172429561615,-0.0119781494140625,0.00984870083630085,0.0002661811013240367
18744275277025,0.7122750282287598,-9.86770248413086,0.34356793761253357,-0.0077192517928779125,0.005057440605014563,0.007985432632267475
18744276514200,0.7350199222564697,-9.874884605407715,0.3387795388698578,-0.008783976547420025,0.0066545275039970875,0.006122165359556675
18744277751362,0.6991068720817566,-9.84495735168457,0.31364041566848755,-0.013309055007994175,0.010647243820130825,0.0013309054775163531
18744278988537,0.729034423828125,-9.87967300415039,0.2908955216407776,-0.015172322280704975,0.0119781494140625,0.005057440605014563
18744280225737,0.7218518257141113,-9.872490882873535,0.31603461503982544,-0.01224433071911335,0.0002661811013240367,0.0015970865497365594
18744281462900,0.7422025203704834,-9.896432876586914,0.3292027413845062,-0.012776692397892475,0.004791259765625,0.0013309054775163531
18744282700087,0.7266402244567871,-9.841365814208984,0.3076549172401428,-0.010114881210029125,0.00452507846057415,0.005855984054505825
18744283937250,0.7098808288574219,-9.884461402893066,0.3232172429561615,-0.01224433071911335,0.0015970865497365594,0.006122165359556675
18744285174437,0.7050924301147461,-9.896432876586914,0.32441434264183044,-0.0157046839594841,0.0021294488105922937,0.008517795242369175
18744286411612,0.6967126727104187,-9.872490882873535,0.31364041566848755,-0.014906140975654125,0.0018632676219567657,0.005057440605014563
18744287648775,0.7230489253997803,-9.847352027893066,0.304063618183136,-0.013309055007994175,0.0018632676219567657,0.00452507846057415
18744288885962,0.7326257228851318,-9.840168952941895,0.2585738003253937,-0.015172322280704975,0.0005323622026480734,0.004791259765625
18744290123137,0.7194576263427734,-9.847352027893066,0.32202014327049255,-0.014373779296875,0.0005323622026480734,0.007453070487827063
18744291360300,0.7326257228851318,-9.856928825378418,0.33997663855552673,-0.0157046839594841,0.0013309054775163531,0.005855984054505825
18744292597500,0.7110779285430908,-9.84376049041748,0.3064578175544739,-0.015438503585755825,0.0071868896484375,0.005589802749454975
18744293834662,0.7158663272857666,-9.847352027893066,0.3280056416988373,-0.0167694091796875,0.0023956298828125,0.008517795242369175
18744295071862,0.7146692276000977,-9.876082420349121,0.29807811975479126,-0.015172322280704975,0.0,0.003460354171693325
18744296309012,0.7565677165985107,-9.871294021606445,0.3148375153541565,-0.013042873702943325,-0.0013309054775163531,0.0037265352439135313
18744297546225,0.7721300721168518,-9.864110946655273,0.3232172429561615,-0.0167694091796875,0.0021294488105922937,0.0071868896484375
18744298783387,0.7350199222564697,-9.880870819091797,0.2992752194404602,-0.02022976242005825,-0.00452507846057415,0.00984870083630085
18744300020562,0.7410054206848145,-9.870096206665039,0.3100491166114807,-0.0196974016726017,-0.0023956298828125,0.0090501569211483
18744301257725,0.7230489253997803,-9.864110946655273,0.3148375153541565,-0.01703559048473835,0.0013309054775163531,0.0090501569211483
18744302494912,0.7038953304290771,-9.890447616577148,0.2825157940387726,-0.0157046839594841,-0.0002661811013240367,0.01117960549890995
18744303732100,0.7146692276000977,-9.884461402893066,0.28131869435310364,-0.0119781494140625,-0.0015970865497365594,0.007985432632267475
18744304969287,0.7146692276000977,-9.86650562286377,0.2777273952960968,-0.010913425125181675,-0.005057440605014563,0.0119781494140625
18744306206450,0.7553706169128418,-9.877279281616211,0.28969842195510864,-0.012776692397892475,-0.0029279920272529125,0.005855984054505825
18744307443612,0.7314286231994629,-9.862914085388184,0.2885012924671173,-0.013309055007994175,-0.0007985432748682797,0.01224433071911335
18744308680812,0.729034423828125,-9.852140426635742,0.2621650993824005,-0.014906140975654125,-0.003460354171693325,0.010647243820130825
18744309917962,0.6931213736534119,-9.896432876586914,0.26815059781074524,-0.01703559048473835,-0.00958251953125,0.0119781494140625
18744311155162,0.7098808288574219,-9.885659217834473,0.2753331959247589,-0.0167694091796875,-0.00931633822619915,0.015438503585755825
18744312392350,0.7110779285430908,-9.86650562286377,0.3124433159828186,-0.01410759799182415,-0.0002661811013240367,0.005057440605014563
18744313629500,0.7122750282287598,-9.849745750427246,0.28730419278144836,-0.0157046839594841,-0.003460354171693325,0.00692070834338665
18744314866687,0.7314286231994629,-9.831789016723633,0.2753331959247589,-0.01224433071911335,-0.0042588976211845875,0.010913425125181675
18744316103862,0.6943184733390808,-9.835380554199219,0.2861070930957794,-0.01410759799182415,-0.0042588976211845875,0.008517795242369175
18744317341037,0.727837324142456,-9.825803756713867,0.27892449498176575,-0.01463996060192585,-0.003460354171693325,0.010647243820130825
18744318578212,0.7254431247711182,-9.84495735168457,0.2944868206977844,-0.0167694091796875,-0.0002661811013240367,0.015438503585755825
18744319815400,0.7445967197418213,-9.835380554199219,0.30047231912612915,-0.012776692397892475,-0.0063883461989462376,0.010647243820130825
18744321052562,0.7110779285430908,-9.86889934539795,0.304063618183136,-0.0114457868039608,-0.004791259765625,0.012776692397892475
18744322289750,0.690727174282074,-9.859322547912598,0.304063618183136,-0.014373779296875,-0.0037265352439135313,0.012776692397892475
18744323526925,0.7422025203704834,-9.819818496704102,0.32202014327049255,-0.01171196810901165,-0.003460354171693325,0.01117960549890995
18744324764100,0.6835445761680603,-9.829395294189453,0.30047231912612915,-0.00958251953125,-0.0053236219100654125,0.0138414166867733
18744326001287,0.7110779285430908,-9.84256362915039,0.29568392038345337,-0.00958251953125,-0.0053236219100654125,0.00931633822619915
18744327238450,0.7098808288574219,-9.834183692932129,0.2908955216407776,-0.014906140975654125,-0.004791259765625,0.008251613937318325
18744328475637,0.6931213736534119,-9.838972091674805,0.31842881441116333,-0.01996358297765255,-0.0042588976211845875,0.00958251953125
18744329712812,0.6943184733390808,-9.84256362915039,0.2777273952960968,-0.010913425125181675,-0.00452507846057415,0.0119781494140625
18744330949987,0.6943184733390808,-9.841365814208984,0.2992752194404602,-0.01171196810901165,-0.00931633822619915,0.0114457868039608
18744332187162,0.6919242739677429,-9.856928825378418,0.27054479718208313,-0.015172322280704975,-0.0037265352439135313,0.0173017717897892
18744333424337,0.7146692276000977,-9.831789016723633,0.2621650993824005,-0.014906140975654125,-0.007453070487827063,0.01943122036755085
18744334661500,0.6739677786827087,-9.84256362915039,0.2849099934101105,-0.01463996060192585,-0.0042588976211845875,0.01357523538172245
18744335898712,0.7194576263427734,-9.818621635437012,0.27413609623908997,-0.0063883461989462376,-0.008783976547420025,0.012776692397892475
18744337135887,0.7350199222564697,-9.848548889160156,0.2777273952960968,-0.008783976547420025,-0.0053236219100654125,0.01171196810901165
18744338373050,0.7134721279144287,-9.840168952941895,0.2849099934101105,-0.01357523538172245,-0.008517795242369175,0.01943122036755085
18744339610225,0.6775590777397156,-9.886856079101562,0.2777273952960968,-0.013309055007994175,-0.007985432632267475,0.0167694091796875
18744340847400,0.6943184733390808,-9.818621635437012,0.3232172429561615,-0.014373779296875,-0.008517795242369175,0.012510511092841625
18744342084575,0.6847416758537292,-9.86889934539795,0.29807811975479126,-0.012776692397892475,-0.0063883461989462376,0.012510511092841625
18744343321750,0.6763619780540466,-9.880870819091797,0.31842881441116333,-0.0114457868039608,-0.0077192517928779125,0.01410759799182415
18744344558950,0.6979097723960876,-9.861717224121094,0.31962594389915466,-0.010381062515079975,-0.00692070834338665,0.01703559048473835
18744345796112,0.6811503767967224,-9.889249801635742,0.30526071786880493,-0.0071868896484375,-0.008783976547420025,0.0186326764523983
18744347033287,0.6775590777397156,-9.885659217834473,0.2621650993824005,-0.010913425125181675,-0.0015970865497365594,0.01224433071911335
18744348270450,0.7003040313720703,-9.864110946655273,0.2585738003253937,-0.00984870083630085,-0.003460354171693325,0.00984870083630085
18744349507662,0.7015011310577393,-9.84495735168457,0.27054479718208313,-0.01171196810901165,-0.007985432632267475,0.01650322787463665
18744350744825,0.6703764796257019,-9.822212219238281,0.2801215946674347,-0.01410759799182415,-0.0042588976211845875,0.015438503585755825
18744351982012,0.6847416758537292,-9.871294021606445,0.26096799969673157,-0.0114457868039608,-0.004791259765625,0.015172322280704975
18744353219175,0.7242460250854492,-9.873687744140625,0.30047231912612915,-0.012776692397892475,-0.0071868896484375,0.0196974016726017
18744354456362,0.689530074596405,-9.858125686645508,0.31603461503982544,-0.01357523538172245,-0.00692070834338665,0.01463996060192585
18744355693525,0.7242460250854492,-9.817423820495605,0.3363853394985199,-0.0114457868039608,-0.0013309054775163531,0.008783976547420025
18744356930712,0.690727174282074,-9.854534149169922,0.2597709000110626,-0.014906140975654125,-0.0071868896484375,0.01410759799182415
18744358167900,0.6763619780540466,-9.848548889160156,0.32441434264183044,-0.01597086526453495,-0.013042873702943325,0.0119781494140625
18744359405075,0.6811503767967224,-9.850942611694336,0.3280056416988373,-0.01463996060192585,-0.015172322280704975,0.0119781494140625
18744360642250,0.6715735793113708,-9.850942611694336,0.31364041566848755,-0.0114457868039608,-0.004791259765625,0.015438503585755825
18744361879412,0.7206547260284424,-9.827000617980957,0.2825157940387726,-0.01224433071911335,-0.00452507846057415,0.01410759799182415
18744363116612,0.707486629486084,-9.862914085388184,0.29807811975479126,-0.00931633822619915,-0.007985432632267475,0.01410759799182415
18744364353787,0.6931213736534119,-9.858125686645508,0.30885201692581177,-0.01117960549890995,-0.0077192517928779125,0.0138414166867733
18744365590950,0.7038953304290771,-9.853337287902832,0.2825157940387726,-0.010647243820130825,-0.01171196810901165,0.015172322280704975
18744366828137,0.6811503767967224,-9.827000617980957,0.2932897210121155,-0.00931633822619915,-0.0066545275039970875,0.0157046839594841
18744368065312,0.690727174282074,-9.856928825378418,0.27892449498176575,-0.007985432632267475,-0.0005323622026480734,0.0173017717897892
18744369302475,0.6775590777397156,-9.825803756713867,0.2968810200691223,-0.00984870083630085,-0.008251613937318325,0.0114457868039608
18744370539662,0.7158663272857666,-9.81263542175293,0.2861070930957794,-0.0053236219100654125,-0.0119781494140625,0.01171196810901165
18744371776850,0.6320692300796509,-9.793481826782227,0.3172317147254944,-0.0114457868039608,-0.0021294488105922937,0.01836649514734745
18744373014012,0.6009446382522583,-9.823410034179688,0.3124433159828186,-0.0114457868039608,-0.003460354171693325,0.0196974016726017
18744374251212,0.6380547285079956,-9.819818496704102,0.27892449498176575,-0.010647243820130825,-0.0029279920272529125,0.0167694091796875
18744375488375,0.7038953304290771,-9.877279281616211,0.272938996553421,-0.007985432632267475,-0.0039927163161337376,0.01463996060192585
18744376725550,0.6428431868553162,-9.830592155456543,0.2454056739807129,-0.0077192517928779125,-0.007453070487827063,0.014373779296875
18744377962712,0.6548141837120056,-9.807847023010254,0.30526071786880493,-0.010381062515079975,-0.0039927163161337376,0.0119781494140625
18744379199912,0.6955155730247498,-9.821015357971191,0.2944868206977844,-0.00958251953125,-0.004791259765625,0.01224433071911335
18744380437087,0.6775590777397156,-9.824606895446777,0.3016694188117981,-0.00452507846057415,-0.0066545275039970875,0.014373779296875
18744381674275,0.667982280254364,-9.865307807922363,0.2944868206977844,-0.007453070487827063,-0.0005323622026480734,0.01836649514734745
18744382911450,0.6488286852836609,-9.806650161743164,0.28131869435310364,-0.00692070834338665,-0.0005323622026480734,0.0181003138422966
18744384148612,0.6596025824546814,-9.798270225524902,0.3076549172401428,-0.005855984054505825,-0.008783976547420025,0.0157046839594841
18744385385800,0.6416460871696472,-9.807847023010254,0.2908955216407776,-0.006122165359556675,-0.0031941730994731188,0.013042873702943325
18744386622987,0.6703764796257019,-9.815030097961426,0.34356793761253357,-0.007453070487827063,0.0018632676219567657,0.0173017717897892
18744387860150,0.6524199843406677,-9.850942611694336,0.26575639843940735,-0.00452507846057415,-0.0002661811013240367,0.01889885775744915
18744389097337,0.6667851805686951,-9.818621635437012,0.2513911724090576,-0.007985432632267475,-0.0039927163161337376,0.0181003138422966
18744390334525,0.669179379940033,-9.824606895446777,0.30526071786880493,-0.008517795242369175,-0.003460354171693325,0.014906140975654125
18744391571687,0.6763619780540466,-9.800664901733398,0.3447650372982025,-0.0021294488105922937,-0.0015970865497365594,0.0191650390625
18744392808862,0.6775590777397156,-9.825803756713867,0.35075056552886963,-0.0077192517928779125,-0.0026618109550327063,0.01357523538172245
18744394046037,0.6596025824546814,-9.829395294189453,0.3172317147254944,-0.008783976547420025,-0.0018632676219567657,0.01650322787463665
18744395283225,0.6584054827690125,-9.865307807922363,0.2944868206977844,-0.005589802749454975,-0.0023956298828125,0.0157046839594841
18744396520387,0.6943184733390808,-9.81263542175293,0.2932897210121155,-0.0071868896484375,-0.005589802749454975,0.01463996060192585
18744397757562,0.6703764796257019,-9.874884605407715,0.2944868206977844,-0.006122165359556675,0.0002661811013240367,0.01650322787463665
18744398994750,0.6320692300796509,-9.859322547912598,0.3124433159828186,-0.0039927163161337376,0.0,0.01756795309484005
18744400231925,0.6871358752250671,-9.84495735168457,0.31842881441116333,-0.0031941730994731188,-0.0023956298828125,0.01463996060192585
18744401469112,0.6584054827690125,-9.840168952941895,0.3363853394985199,0.0021294488105922937,-0.0031941730994731188,0.015172322280704975
18744402706287,0.6979097723960876,-9.780314445495605,0.3064578175544739,-0.0037265352439135313,-0.0015970865497365594,0.014373779296875
18744403943450,0.6643909811973572,-9.789891242980957,0.33997663855552673,-0.0002661811013240367,0.0010647244052961469,0.014373779296875
18744405180637,0.6416460871696472,-9.870096206665039,0.3124433159828186,-0.0010647244052961469,0.0007985432748682797,0.014906140975654125
18744406417812,0.6823474764823914,-9.824606895446777,0.3280056416988373,-0.0013309054775163531,0.0,0.015172322280704975
18744407654987,0.6584054827690125,-9.780314445495605,0.28730419278144836,-0.0013309054775163531,-0.0005323622026480734,0.0186326764523983
18744408892175,0.6619967818260193,-9.827000617980957,0.304063618183136,0.0021294488105922937,-0.004791259765625,0.0191650390625
18744410129337,0.6979097723960876,-9.804256439208984,0.31364041566848755,0.003460354171693325,0.0023956298828125,0.013309055007994175
18744411366525,0.6787561774253845,-9.800664901733398,0.31842881441116333,0.0005323622026480734,0.00452507846057415,0.012510511092841625
18744412603700,0.6871358752250671,-9.801861763000488,0.30047231912612915,-0.0007985432748682797,-0.0007985432748682797,0.01171196810901165
18744413840875,0.6440402865409851,-9.837775230407715,0.30047231912612915,-0.0007985432748682797,-0.0007985432748682797,0.015438503585755825
18744415078075,0.6643909811973572,-9.795876502990723,0.2932897210121155,0.006122165359556675,-0.0007985432748682797,0.01703559048473835
18744416315237,0.6572083830833435,-9.849745750427246,0.32202014327049255,0.0077192517928779125,0.0005323622026480734,0.013309055007994175
18744417552412,0.7038953304290771,-9.819818496704102,0.3016694188117981,0.00452507846057415,0.0010647244052961469,0.0114457868039608
18744418789587,0.6739677786827087,-9.81143856048584,0.2944868206977844,0.0029279920272529125,0.0013309054775163531,0.00958251953125
18744420026787,0.6572083830833435,-9.807847023010254,0.31603461503982544,0.006122165359556675,0.0026618109550327063,0.01463996060192585
18744421263950,0.7015011310577393,-9.86770248413086,0.33758243918418884,0.0037265352439135313,0.0023956298828125,0.01171196810901165
18744422501125,0.6619967818260193,-9.831789016723633,0.28730419278144836,0.0042588976211845875,-0.0018632676219567657,0.008251613937318325
18744423738312,0.6775590777397156,-9.830592155456543,0.2908955216407776,0.0039927163161337376,0.0031941730994731188,0.012776692397892475
18744424975462,0.6931213736534119,-9.834183692932129,0.3411737382411957,0.0053236219100654125,0.0026618109550327063,0.013042873702943325
18744426212662,0.6799532771110535,-9.819818496704102,0.29807811975479126,0.005057440605014563,0.0015970865497365594,0.01117960549890995
18744427449825,0.7015011310577393,-9.854534149169922,0.34596213698387146,0.01224433071911335,-0.0005323622026480734,0.010913425125181675
