timestamp_ns,accel_x,accel_y,accel_z,gyro_x,gyro_y,gyro_z
2350342243912,1.0007762908935547,-9.48343276977539,2.5510218143463135,-0.012776692397892475,-0.010381062515079975,0.008783976547420025
2350343481112,1.0115501880645752,-9.458293914794922,2.562993049621582,-0.01117960549890995,-0.00958251953125,0.010647243820130825
2350344718287,1.01753568649292,-9.497797966003418,2.5570075511932373,-0.01224433071911335,-0.0114457868039608,0.01410759799182415
2350345955475,1.0067617893218994,-9.4822359085083,2.5725698471069336,-0.010913425125181675,-0.00984870083630085,0.0077192517928779125
2350347192662,0.9696516990661621,-9.475052833557129,2.5486276149749756,-0.010913425125181675,-0.0090501569211483,0.005057440605014563
2350348429850,1.0043675899505615,-9.469067573547363,2.539050817489624,-0.00958251953125,-0.015172322280704975,0.005589802749454975
2350349667037,1.0283095836639404,-9.45111083984375,2.5510218143463135,-0.010381062515079975,-0.012510511092841625,0.0053236219100654125
2350350904212,1.0127472877502441,-9.475052833557129,2.6001031398773193,-0.0023956298828125,-0.007985432632267475,0.00984870083630085
2350352141412,0.9995791912078857,-9.457097053527832,2.562993049621582,-0.0039927163161337376,-0.00958251953125,0.0039927163161337376
2350353378587,0.9840168952941895,-9.457097053527832,2.5079262256622314,-0.0053236219100654125,-0.01410759799182415,0.008517795242369175
2350354615775,0.9576807022094727,-9.442731857299805,2.5258827209472656,-0.003460354171693325,-0.015438503585755825,0.00931633822619915
2350355852975,1.0462661981582642,-9.463082313537598,2.5546133518218994,-0.005855984054505825,-0.0119781494140625,0.007985432632267475
2350357090137,1.013944387435913,-9.50498104095459,2.522291421890259,-0.005589802749454975,-0.010647243820130825,0.005057440605014563
2350358327337,0.9756371974945068,-9.48343276977539,2.513911724090576,-0.0053236219100654125,-0.01171196810901165,0.005057440605014563
2350359564512,0.9636662006378174,-9.500192642211914,2.5258827209472656,-0.0031941730994731188,-0.0119781494140625,0.008251613937318325
2350360801687,1.0043675899505615,-9.491812705993652,2.5043349266052246,-0.0037265352439135313,-0.013042873702943325,0.0063883461989462376
2350362038887,0.973242998123169,-9.443928718566895,2.52109432220459,0.0,-0.01703559048473835,0.0071868896484375
2350363276075,0.9840168952941895,-9.460687637329102,2.559401750564575,0.003460354171693325,-0.012510511092841625,0.0077192517928779125
2350364513237,0.9792284965515137,-9.452308654785156,2.5725698471069336,0.0018632676219567657,-0.01357523538172245,0.00452507846057415
2350365750437,0.9876081943511963,-9.47265911102295,2.522291421890259,0.0015970865497365594,-0.01357523538172245,0.005589802749454975
2350366987625,1.0271124839782715,-9.439140319824219,2.5582046508789062,0.010913425125181675,-0.012510511092841625,0.005057440605014563
2350368224812,0.9744400978088379,-9.44752025604248,2.5234885215759277,0.005589802749454975,-0.014906140975654125,0.005057440605014563
2350369462000,0.9792284965515137,-9.440337181091309,2.5570075511932373,0.005589802749454975,-0.0167694091796875,0.0037265352439135313
2350370699187,1.0235211849212646,-9.386467933654785,2.5510218143463135,0.010647243820130825,-0.015438503585755825,0.0018632676219567657
2350371936375,0.9828197956085205,-9.440337181091309,2.5450363159179688,0.00958251953125,-0.014906140975654125,-0.0005323622026480734
2350373173562,0.9888052940368652,-9.440337181091309,2.541445016860962,0.0066545275039970875,-0.0167694091796875,0.0010647244052961469
2350374410737,0.9433155059814453,-9.418789863586426,2.535459518432617,0.0114457868039608,-0.015172322280704975,0.0026618109550327063
2350375647925,0.9923965930938721,-9.433155059814453,2.562993049621582,0.013042873702943325,-0.0119781494140625,0.005057440605014563
2350376885100,1.0007762908935547,-9.437943458557129,2.5462334156036377,0.007453070487827063,-0.005589802749454975,-0.0037265352439135313
2350378122300,1.0007762908935547,-9.418789863586426,2.519897222518921,0.0138414166867733,-0.0167694091796875,-0.0007985432748682797
2350379359462,1.0055646896362305,-9.429563522338867,2.535459518432617,0.012510511092841625,-0.01703559048473835,0.0039927163161337376
2350380596687,0.9923965930938721,-9.47265911102295,2.5462334156036377,0.01463996060192585,-0.01650322787463665,-0.0005323622026480734
2350381833862,0.9959878921508789,-9.477447509765625,2.5534160137176514,0.01171196810901165,-0.01836649514734745,-0.005057440605014563
2350383071037,1.0127472877502441,-9.443928718566895,2.5558104515075684,0.013042873702943325,-0.01943122036755085,-0.0031941730994731188
2350384308200,0.9888052940368652,-9.496601104736328,2.559401750564575,0.0196974016726017,-0.0220930315554142,0.0002661811013240367
2350385545412,1.015141487121582,-9.48343276977539,2.5342624187469482,0.0204959437251091,-0.02129448764026165,0.0007985432748682797
2350386782575,0.9720458984375,-9.50737476348877,2.5258827209472656,0.0210283063352108,-0.015172322280704975,0.0
2350388019762,0.9911994934082031,-9.498995780944824,2.5498247146606445,0.01943122036755085,-0.01703559048473835,-0.005589802749454975
2350389256975,1.0019733905792236,-9.509769439697266,2.5306711196899414,0.0162370465695858,-0.0223592109978199,-0.0037265352439135313
2350390494175,1.0211269855499268,-9.53849983215332,2.5510218143463135,0.01756795309484005,-0.02315775491297245,-0.0005323622026480734
2350391731325,1.0031704902648926,-9.496601104736328,2.52109432220459,0.0167694091796875,-0.0234239362180233,-0.0002661811013240367
2350392968500,1.0187327861785889,-9.455899238586426,2.540247917175293,0.015172322280704975,-0.0306108258664608,-0.0031941730994731188
2350394205700,1.0354923009872437,-9.509769439697266,2.5977089405059814,0.01597086526453495,-0.0271504707634449,0.0026618109550327063
2350395442887,0.9888052940368652,-9.50737476348877,2.589329242706299,0.0186326764523983,-0.0234239362180233,0.0023956298828125
2350396680075,0.993593692779541,-9.515754699707031,2.5725698471069336,0.02182685025036335,-0.02369011752307415,0.0015970865497365594
2350397917262,1.0307037830352783,-9.556456565856934,2.5330653190612793,0.02315775491297245,-0.02129448764026165,-0.0015970865497365594
2350399154450,0.9995791912078857,-9.526528358459473,2.522291421890259,0.0173017717897892,-0.0181003138422966,0.0
2350400391612,1.0127472877502441,-9.512163162231445,2.495955228805542,0.0162370465695858,-0.02315775491297245,0.0023956298828125
2350401628825,1.0067617893218994,-9.50737476348877,2.541445016860962,0.01756795309484005,-0.0234239362180233,0.0015970865497365594
2350402866000,1.0019733905792236,-9.498995780944824,2.5522189140319824,0.01597086526453495,-0.02874755859375,0.0005323622026480734
2350404103200,1.013944387435913,-9.527726173400879,2.5282769203186035,0.01650322787463665,-0.0263519287109375,-0.0021294488105922937
2350405340362,1.0079588890075684,-9.481039047241211,2.5246856212615967,0.015172322280704975,-0.02555338479578495,0.004791259765625
2350406577550,0.993593692779541,-9.473855972290039,2.539050817489624,0.01703559048473835,-0.0258195661008358,0.0010647244052961469
2350407814737,0.9373299479484558,-9.512163162231445,2.5498247146606445,0.0196974016726017,-0.02315775491297245,-0.0023956298828125
2350409051925,0.9349357485771179,-9.500192642211914,2.541445016860962,0.01756795309484005,-0.0292799212038517,0.0031941730994731188
2350410289125,0.9373299479484558,-9.527726173400879,2.5510218143463135,0.0157046839594841,-0.02422248013317585,0.0015970865497365594
2350411526300,0.9900023937225342,-9.50617790222168,2.5689785480499268,0.01943122036755085,-0.0300784632563591,0.0063883461989462376
2350412763475,0.9457097053527832,-9.528923034667969,2.5797524452209473,0.0181003138422966,-0.03034464456140995,0.0029279920272529125
2350414000662,0.9097966551780701,-9.534908294677734,2.5582046508789062,0.0162370465695858,-0.0271504707634449,0.0002661811013240367
2350415237850,0.9516952037811279,-9.521739959716797,2.5498247146606445,0.01756795309484005,-0.02848137728869915,0.003460354171693325
2350416475025,0.9624691009521484,-9.509769439697266,2.5103204250335693,0.015172322280704975,-0.02555338479578495,0.004791259765625
2350417712237,0.9720458984375,-9.508572578430176,2.5127146244049072,0.0215606689453125,-0.0252872034907341,0.003460354171693325
2350418949412,0.9612720012664795,-9.53730297088623,2.56538724899292,0.0210283063352108,-0.02369011752307415,0.0005323622026480734
2350420186587,1.0055646896362305,-9.50617790222168,2.518700122833252,0.02182685025036335,-0.02129448764026165,0.0007985432748682797
2350421423762,0.950498104095459,-9.53969669342041,2.5115175247192383,0.01463996060192585,-0.02369011752307415,0.0
2350422660962,0.9888052940368652,-9.563638687133789,2.5474305152893066,0.01224433071911335,-0.03034464456140995,0.0053236219100654125
2350423898137,0.9852139949798584,-9.528923034667969,2.541445016860962,0.01703559048473835,-0.023956298828125,0.008251613937318325
2350425135337,0.9744400978088379,-9.521739959716797,2.5091233253479004,0.01410759799182415,-0.0228915736079216,0.0031941730994731188
2350426372512,1.0115501880645752,-9.510966300964355,2.535459518432617,0.012776692397892475,-0.02262539230287075,0.0018632676219567657
2350427609687,0.9852139949798584,-9.544485092163086,2.535459518432617,0.00984870083630085,-0.0196974016726017,0.005057440605014563
2350428846900,0.9612720012664795,-9.515754699707031,2.5558104515075684,0.012776692397892475,-0.01996358297765255,0.0026618109550327063
2350430084087,0.9516952037811279,-9.522937774658203,2.5689785480499268,0.014906140975654125,-0.0244886614382267,0.0037265352439135313
2350431321225,0.970848798751831,-9.4822359085083,2.560598850250244,0.01650322787463665,-0.0258195661008358,0.0029279920272529125
2350432558462,0.9624691009521484,-9.514557838439941,2.585737943649292,0.014373779296875,-0.023956298828125,0.00452507846057415
2350433795650,0.9768342971801758,-9.502586364746094,2.5953147411346436,0.0138414166867733,-0.02022976242005825,0.0031941730994731188
2350435032812,0.9516952037811279,-9.5037841796875,2.561795949935913,0.012776692397892475,-0.0204959437251091,0.0026618109550327063
2350436270012,0.9840168952941895,-9.50737476348877,2.5318682193756104,0.0119781494140625,-0.0215606689453125,0.0005323622026480734
2350437507175,0.9433155059814453,-9.50737476348877,2.567781448364258,0.0167694091796875,-0.02182685025036335,0.005855984054505825
2350438744362,0.9540894031524658,-9.460687637329102,2.582146644592285,0.01783413253724575,-0.023956298828125,0.005057440605014563
2350439981562,0.9612720012664795,-9.494207382202148,2.56538724899292,0.0138414166867733,-0.02129448764026165,0.0010647244052961469
2350441218737,0.9636662006378174,-9.47265911102295,2.535459518432617,0.014906140975654125,-0.0186326764523983,0.0042588976211845875
2350442455925,1.0079588890075684,-9.460687637329102,2.540247917175293,0.012510511092841625,-0.01996358297765255,0.0007985432748682797
2350443693112,1.015141487121582,-9.437943458557129,2.564190149307251,0.0186326764523983,-0.0252872034907341,-0.0010647244052961469
2350444930287,1.0271124839782715,-9.443928718566895,2.5522189140319824,0.01756795309484005,-0.0220930315554142,0.0021294488105922937
2350446167487,0.9911994934082031,-9.441534042358398,2.564190149307251,0.02129448764026165,-0.0173017717897892,0.0007985432748682797
2350447404650,0.973242998123169,-9.412803649902344,2.5582046508789062,0.0157046839594841,-0.02129448764026165,0.0015970865497365594
2350448641850,0.9995791912078857,-9.433155059814453,2.559401750564575,0.014906140975654125,-0.02076212503015995,0.00692070834338665
2350449879037,0.99479079246521,-9.458293914794922,2.5438392162323,0.0119781494140625,-0.01650322787463665,0.007453070487827063
2350451116212,1.0283095836639404,-9.429563522338867,2.5953147411346436,0.01783413253724575,-0.0204959437251091,0.0037265352439135313
2350452353412,1.0019733905792236,-9.44752025604248,2.5953147411346436,0.01783413253724575,-0.014373779296875,0.003460354171693325
2350453590600,1.0295066833496094,-9.460687637329102,2.540247917175293,0.01836649514734745,-0.010381062515079975,0.00452507846057415
2350454827787,0.9900023937225342,-9.465476036071777,2.584540843963623,0.0181003138422966,-0.00958251953125,0.0063883461989462376
2350456064962,0.9636662006378174,-9.442731857299805,2.560598850250244,0.0173017717897892,-0.01224433071911335,0.005589802749454975
2350457302137,1.0127472877502441,-9.452308654785156,2.582146644592285,0.01703559048473835,-0.01756795309484005,0.005855984054505825
2350458539325,0.9971849918365479,-9.48462963104248,2.566584348678589,0.0181003138422966,-0.01889885775744915,0.00452507846057415
2350459776512,1.0378865003585815,-9.458293914794922,2.589329242706299,0.0228915736079216,-0.01943122036755085,0.0023956298828125
2350461013712,1.0271124839782715,-9.457097053527832,2.5941176414489746,0.023956298828125,-0.01889885775744915,0.0021294488105922937
2350462250875,1.0091559886932373,-9.47265911102295,2.589329242706299,0.02182685025036335,-0.0173017717897892,0.0018632676219567657
2350463488087,1.0366894006729126,-9.430760383605957,2.630030632019043,0.0215606689453125,-0.0204959437251091,0.0063883461989462376
2350464725275,1.0426748991012573,-9.445125579833984,2.583343744277954,0.02022976242005825,-0.0191650390625,0.00958251953125
2350465962450,0.9995791912078857,-9.47146224975586,2.5737669467926025,0.0204959437251091,-0.02129448764026165,0.008251613937318325
2350467199637,0.9900023937225342,-9.48343276977539,2.56538724899292,0.0223592109978199,-0.02422248013317585,0.0077192517928779125
2350468436812,1.0055646896362305,-9.479841232299805,2.5689785480499268,0.0215606689453125,-0.02502102218568325,0.010114881210029125
2350469673987,0.9744400978088379,-9.479841232299805,2.5785553455352783,0.0258195661008358,-0.0215606689453125,0.004791259765625
2350470911162,0.9828197956085205,-9.434351921081543,2.5713727474212646,0.02555338479578495,-0.02182685025036335,0.0039927163161337376
2350472148375,0.9768342971801758,-9.430760383605957,2.5761611461639404,0.0220930315554142,-0.02182685025036335,0.007985432632267475
2350473385537,0.9373299479484558,-9.435548782348633,2.6013002395629883,0.0228915736079216,-0.0191650390625,0.004791259765625
2350474622750,1.0330979824066162,-9.477447509765625,2.5761611461639404,0.0268842913210392,-0.02129448764026165,0.00931633822619915
2350475859937,0.9840168952941895,-9.44991397857666,2.562993049621582,0.02608574740588665,-0.02369011752307415,0.00984870083630085
2350477097087,0.9588778018951416,-9.500192642211914,2.5737669467926025,0.02741665206849575,-0.02369011752307415,0.0031941730994731188
2350478334287,0.9516952037811279,-9.445125579833984,2.5306711196899414,0.0268842913210392,-0.0181003138422966,0.0053236219100654125
2350479571500,1.0019733905792236,-9.489418983459473,2.535459518432617,0.0276828333735466,-0.0204959437251091,0.010647243820130825
2350480808662,0.9888052940368652,-9.496601104736328,2.56538724899292,0.02661811001598835,-0.0210283063352108,0.010114881210029125
2350482045862,0.9923965930938721,-9.502586364746094,2.584540843963623,0.0258195661008358,-0.0204959437251091,0.01171196810901165
2350483283050,0.993593692779541,-9.476250648498535,2.560598850250244,0.02874755859375,-0.0210283063352108,0.00984870083630085
2350484520237,0.9840168952941895,-9.512163162231445,2.5498247146606445,0.0263519287109375,-0.015172322280704975,0.008783976547420025
2350485757400,0.9792284965515137,-9.528923034667969,2.5689785480499268,0.0271504707634449,-0.0191650390625,0.0090501569211483
2350486994587,0.9636662006378174,-9.476250648498535,2.586935043334961,0.02901373989880085,-0.02129448764026165,0.01224433071911335
2350488231775,0.99479079246521,-9.50737476348877,2.5761611461639404,0.0282151959836483,-0.01836649514734745,0.01224433071911335
2350489468962,0.9792284965515137,-9.532514572143555,2.61087703704834,0.02741665206849575,-0.0157046839594841,0.0063883461989462376
2350490706150,0.9481039047241211,-9.521739959716797,2.6168625354766846,0.0306108258664608,-0.01357523538172245,0.01357523538172245
2350491943325,0.912190854549408,-9.548076629638672,2.612074136734009,0.0268842913210392,-0.0167694091796875,0.013309055007994175
2350493180525,0.9085995554924011,-9.513360977172852,2.6024973392486572,0.0282151959836483,-0.01783413253724575,0.00692070834338665
2350494417687,0.9648633003234863,-9.515754699707031,2.6180596351623535,0.0327402763068676,-0.0162370465695858,0.007453070487827063
2350495654875,0.9385270476341248,-9.548076629638672,2.6228480339050293,0.0327402763068676,-0.023956298828125,0.00958251953125
2350496892100,0.9289502501487732,-9.520543098449707,2.612074136734009,0.0348697230219841,-0.0162370465695858,0.0114457868039608
2350498129262,0.9133879542350769,-9.544485092163086,2.628833532333374,0.0314093679189682,-0.00931633822619915,0.01171196810901165
2350499366462,0.889445960521698,-9.531316757202148,2.6001031398773193,0.0319417305290699,-0.013309055007994175,0.00958251953125
2350500603637,0.9097966551780701,-9.521739959716797,2.6001031398773193,0.02874755859375,-0.01117960549890995,0.0114457868039608
2350501840812,0.9265560507774353,-9.568427085876465,2.5761611461639404,0.0306108258664608,-0.014373779296875,0.0090501569211483
2350503078012,0.9145850539207458,-9.545681953430176,2.607285737991333,0.02848137728869915,-0.010913425125181675,0.0053236219100654125
2350504315187,0.9217676520347595,-9.473855972290039,2.582146644592285,0.0295461006462574,-0.00692070834338665,0.0114457868039608
2350505552387,0.9445126056671143,-9.476250648498535,2.580949544906616,0.0319417305290699,-0.00931633822619915,0.01117960549890995
2350506789550,0.973242998123169,-9.491812705993652,2.6013002395629883,0.0343373604118824,-0.0063883461989462376,0.010381062515079975
2350508026750,0.9756371974945068,-9.476250648498535,2.6168625354766846,0.0348697230219841,-0.0042588976211845875,0.0077192517928779125
2350509263937,0.9528923034667969,-9.47265911102295,2.63362193107605,0.0338049978017807,0.0007985432748682797,0.00958251953125
2350510501125,0.9588778018951416,-9.495404243469238,2.6192567348480225,0.0351359061896801,-0.0023956298828125,0.00958251953125
2350511738312,0.9313444495201111,-9.442731857299805,2.671929121017456,0.0364668108522892,-0.0037265352439135313,0.0071868896484375
2350512975487,0.9409212470054626,-9.455899238586426,2.7293899059295654,0.0385962575674057,-0.0013309054775163531,0.012510511092841625
2350514212662,0.9145850539207458,-9.460687637329102,2.6815059185028076,0.0377977155148983,-0.0005323622026480734,0.006122165359556675
2350515449862,0.9421183466911316,-9.437943458557129,2.675520420074463,0.0415242500603199,-0.0005323622026480734,0.008783976547420025
2350516687037,0.9229647517204285,-9.45111083984375,2.6803088188171387,0.038330078125,0.0039927163161337376,0.0063883461989462376
2350517924212,0.9253589510917664,-9.422380447387695,2.692279815673828,0.033538818359375,0.006122165359556675,0.00692070834338665
2350519161400,0.9277531504631042,-9.452308654785156,2.6611552238464355,0.0401933453977108,0.0026618109550327063,0.0071868896484375
2350520398600,0.9062053561210632,-9.428366661071777,2.6647465229034424,0.038330078125,0.005855984054505825,0.0077192517928779125
2350521635775,0.910993754863739,-9.411606788635254,2.6216509342193604,0.0385962575674057,0.00692070834338665,0.008783976547420025
2350522872962,0.9421183466911316,-9.433155059814453,2.647987127304077,0.0396609827876091,0.0066545275039970875,0.008517795242369175
2350524110162,0.9648633003234863,-9.431957244873047,2.6180596351623535,0.0372653529047966,0.00452507846057415,0.012776692397892475
2350525347337,0.9588778018951416,-9.469067573547363,2.6156654357910156,0.0388624407351017,0.00931633822619915,0.012776692397892475
2350526584537,0.9205705523490906,-9.496601104736328,2.6563668251037598,0.0369991734623909,0.00984870083630085,0.008783976547420025
2350527821712,0.9253589510917664,-9.518149375915527,2.6420016288757324,0.0444522425532341,0.007453070487827063,0.012776692397892475
2350529058900,0.9397241473197937,-9.5037841796875,2.609679937362671,0.0393948033452034,0.010381062515079975,0.013309055007994175
2350530296100,0.933738648891449,-9.5624418258667,2.5917234420776367,0.0415242500603199,0.0138414166867733,0.01357523538172245
2350531533287,0.9181763529777527,-9.530119895935059,2.6204538345336914,0.0423227921128273,0.014373779296875,0.012776692397892475
2350532770450,0.889445960521698,-9.53730297088623,2.6455929279327393,0.038330078125,0.010647243820130825,0.0167694091796875
2350534007637,0.8978256583213806,-9.566033363342285,2.6455929279327393,0.0415242500603199,0.01117960549890995,0.0157046839594841
2350535244825,0.9002198576927185,-9.567230224609375,2.6850972175598145,0.0452507846057415,0.013309055007994175,0.0186326764523983
2350536482012,0.8678981065750122,-9.59835433959961,2.698265314102173,0.0449846051633358,0.0186326764523983,0.02022976242005825
2350537719212,0.8547300100326538,-9.532514572143555,2.6839001178741455,0.0420566126704216,0.01597086526453495,0.01756795309484005
2350538956387,0.8523358106613159,-9.514557838439941,2.7102363109588623,0.042855154722929,0.0181003138422966,0.0220930315554142
2350540193562,0.8188169598579407,-9.560047149658203,2.7090392112731934,0.0409918874502182,0.0234239362180233,0.02315775491297245
2350541430762,0.8750807046890259,-9.519346237182617,2.6611552238464355,0.0460493303835392,0.02661811001598835,0.02608574740588665
2350542667950,0.8834604620933533,-9.488221168518066,2.73537540435791,0.0455169677734375,0.02848137728869915,0.02502102218568325
2350543905137,0.8858546614646912,-9.463082313537598,2.692279815673828,0.0465816929936409,0.0244886614382267,0.02741665206849575
2350545142300,0.8834604620933533,-9.452308654785156,2.699462413787842,0.0460493303835392,0.0234239362180233,0.0276828333735466
2350546379500,0.8858546614646912,-9.443928718566895,2.675520420074463,0.0436537005007267,0.02741665206849575,0.0322079136967659
2350547616675,0.851138710975647,-9.466673851013184,2.7066450119018555,0.0492435023188591,0.0319417305290699,0.0306108258664608
2350548853887,0.910993754863739,-9.399636268615723,2.671929121017456,0.0457831472158432,0.0359344482421875,0.0263519287109375
2350550091050,0.8702923059463501,-9.443928718566895,2.6862943172454834,0.0497758649289608,0.02981228195130825,0.03034464456140995
2350551328237,0.9193734526634216,-9.461885452270508,2.6815059185028076,0.0500420443713665,0.0338049978017807,0.0282151959836483
2350552565412,0.8810662031173706,-9.487024307250977,2.6635494232177734,0.0537685826420784,0.0359344482421875,0.0268842913210392
2350553802612,0.8822633624076843,-9.528923034667969,2.6443958282470703,0.0529700368642807,0.038330078125,0.02794901467859745
2350555039825,0.9540894031524658,-9.557653427124023,2.668337821960449,0.0508405901491642,0.0409918874502182,0.0268842913210392
2350556276975,0.9038111567497253,-9.524134635925293,2.7030537128448486,0.0519053116440773,0.0348697230219841,0.0327402763068676
2350557514175,0.9145850539207458,-9.57321548461914,2.691082715988159,0.0492435023188591,0.0359344482421875,0.03034464456140995
2350558751362,0.8966285586357117,-9.603142738342285,2.6874914169311523,0.0500420443713665,0.0404595248401165,0.0252872034907341
2350559988537,0.8487445116043091,-9.610325813293457,2.7114334106445312,0.0511067695915699,0.0465816929936409,0.0268842913210392
2350561225725,0.8379706144332886,-9.616311073303223,2.7102363109588623,0.0500420443713665,0.0455169677734375,0.02901373989880085
2350562462912,0.8463503122329712,-9.645041465759277,2.6850972175598145,0.0425889752805233,0.0420566126704216,0.0263519287109375
2350563700100,0.8140285611152649,-9.654618263244629,2.7305870056152344,0.0452507846057415,0.0441860631108284,0.02741665206849575
2350564937287,0.8271967172622681,-9.692925453186035,2.6647465229034424,0.0407257080078125,0.0463155098259449,0.02422248013317585
2350566174475,0.8475474119186401,-9.676166534423828,2.655169725418091,0.0399271659553051,0.047646414488554,0.0234239362180233
2350567411637,0.8451532125473022,-9.659406661987305,2.6623523235321045,0.0393948033452034,0.0495096817612648,0.02076212503015995
2350568648850,0.8583213090896606,-9.678560256958008,2.7030537128448486,0.0354020856320858,0.0484449602663517,0.0186326764523983
2350569886037,0.8738836050033569,-9.6618013381958,2.675520420074463,0.0330064557492733,0.0503082275390625,0.0186326764523983
2350571123212,0.8846575617790222,-9.677363395690918,2.674323320388794,0.0348697230219841,0.052437674254179,0.0204959437251091
2350572360400,0.8966285586357117,-9.676166534423828,2.6431987285614014,0.0343373604118824,0.0503082275390625,0.01703559048473835
2350573597587,0.9050082564353943,-9.659406661987305,2.6635494232177734,0.0306108258664608,0.0556318499147892,0.007453070487827063
2350574834762,0.9660604000091553,-9.589975357055664,2.650381326675415,0.0327402763068676,0.0588260218501091,0.00984870083630085
2350576071962,0.9744400978088379,-9.585186958312988,2.6850972175598145,0.02848137728869915,0.0580274797976017,0.015438503585755825
2350577309150,0.9792284965515137,-9.579200744628906,2.6431987285614014,0.02848137728869915,0.0574951171875,0.01117960549890995
2350578546312,0.9756371974945068,-9.568427085876465,2.7078421115875244,0.033272635191679,0.0577612966299057,0.01117960549890995
2350579783500,1.0067617893218994,-9.534908294677734,2.6874914169311523,0.02502102218568325,0.0561642125248909,0.013042873702943325
2350581020687,1.072602391242981,-9.524134635925293,2.7246015071868896,0.023956298828125,0.0548333041369915,0.0063883461989462376
2350582257875,1.0654197931289673,-9.508572578430176,2.734178304672241,0.0316755510866642,0.0505744069814682,0.0037265352439135313
2350583495075,1.047463297843933,-9.526528358459473,2.673126220703125,0.0322079136967659,0.0537685826420784,0.0026618109550327063
2350584732250,1.0450690984725952,-9.521739959716797,2.7102363109588623,0.02848137728869915,0.0561642125248909,0.0015970865497365594
2350585969437,1.0666168928146362,-9.475052833557129,2.7521347999572754,0.02555338479578495,0.052703857421875,0.0015970865497365594
2350587206625,1.1121066808700562,-9.4822359085083,2.737769603729248,0.0282151959836483,0.0473802350461483,0.0002661811013240367
2350588443800,1.070208191871643,-9.488221168518066,2.7509377002716064,0.0295461006462574,0.0441860631108284,0.0007985432748682797
2350589681000,1.0905588865280151,-9.488221168518066,2.7317841053009033,0.0306108258664608,0.042855154722929,-0.0002661811013240367
2350590918175,1.1061211824417114,-9.491812705993652,2.7102363109588623,0.02741665206849575,0.0457831472158432,-0.0031941730994731188
2350592155362,1.0869675874710083,-9.494207382202148,2.698265314102173,0.0268842913210392,0.0436537005007267,-0.0029279920272529125
2350593392562,1.0618284940719604,-9.513360977172852,2.7293899059295654,0.0268842913210392,0.0393948033452034,-0.00452507846057415
2350594629737,1.094150185585022,-9.536105155944824,2.7497406005859375,0.0268842913210392,0.0404595248401165,-0.0023956298828125
2350595866900,1.1312602758407593,-9.527726173400879,2.6874914169311523,0.02848137728869915,0.0369991734623909,0.0010647244052961469
2350597104125,1.1001356840133667,-9.481039047241211,2.7090392112731934,0.02848137728869915,0.0367329902946949,0.0018632676219567657
2350598341287,1.0965443849563599,-9.50737476348877,2.675520420074463,0.0228915736079216,0.0343373604118824,0.0021294488105922937
2350599578462,1.138442873954773,-9.50737476348877,2.692279815673828,0.0292799212038517,0.0300784632563591,0.0015970865497365594
2350600815675,1.115697979927063,-9.568427085876465,2.695871114730835,0.0314093679189682,0.03034464456140995,0.0018632676219567657
2350602052850,1.0690110921859741,-9.513360977172852,2.717418909072876,0.0316755510866642,0.02661811001598835,0.00452507846057415
2350603290050,1.07379949092865,-9.544485092163086,2.6647465229034424,0.0340711809694767,0.023956298828125,0.0021294488105922937
2350604527212,1.1348515748977661,-9.53849983215332,2.721010208129883,0.0356682650744915,0.02315775491297245,0.0026618109550327063
2350605764400,1.0558429956436157,-9.518149375915527,2.7126305103302,0.0311431884765625,0.0215606689453125,-0.0007985432748682797
2350607001600,1.0893617868423462,-9.498995780944824,2.693476915359497,0.0311431884765625,0.0215606689453125,-0.0010647244052961469
2350608238775,1.0749965906143188,-9.513360977172852,2.699462413787842,0.0276828333735466,0.01836649514734745,0.0015970865497365594
2350609475962,1.0749965906143188,-9.514557838439941,2.717418909072876,0.0338049978017807,0.01597086526453495,0.0
2350610713150,1.091755986213684,-9.527726173400879,2.693476915359497,0.0327402763068676,0.013042873702943325,-0.0042588976211845875
2350611950325,1.0833762884140015,-9.4822359085083,2.7030537128448486,0.0271504707634449,0.012510511092841625,0.0002661811013240367
2350613187525,1.0749965906143188,-9.519346237182617,2.716221809387207,0.02874755859375,0.0063883461989462376,0.0018632676219567657
2350614424700,1.0905588865280151,-9.4822359085083,2.740163803100586,0.0311431884765625,0.0026618109550327063,0.004791259765625
2350615661887,1.1097124814987183,-9.513360977172852,2.699462413787842,0.0263519287109375,0.0023956298828125,-0.0010647244052961469
2350616899075,1.0833762884140015,-9.473855972290039,2.692279815673828,0.0244886614382267,0.0042588976211845875,0.0015970865497365594
2350618136250,1.0869675874710083,-9.50737476348877,2.699462413787842,0.02741665206849575,0.0039927163161337376,-0.0015970865497365594
2350619373450,1.0797849893569946,-9.519346237182617,2.6827030181884766,0.0295461006462574,0.0013309054775163531,-0.008783976547420025
2350620610625,1.0749965906143188,-9.519346237182617,2.675520420074463,0.0268842913210392,0.0002661811013240367,-0.0007985432748682797
2350621847825,1.0534487962722778,-9.5624418258667,2.675520420074463,0.0210283063352108,-0.0031941730994731188,-0.0021294488105922937
2350623085000,1.070208191871643,-9.587580680847168,2.694674015045166,0.02874755859375,-0.006122165359556675,-0.0042588976211845875
2350624322175,1.094150185585022,-9.563638687133789,2.652775526046753,0.02794901467859745,-0.0071868896484375,-0.0031941730994731188
2350625559375,1.0187327861785889,-9.609128952026367,2.692279815673828,0.0228915736079216,-0.006122165359556675,-0.0029279920272529125
2350626796575,1.0570400953292847,-9.583989143371582,2.674323320388794,0.02369011752307415,-0.007985432632267475,-0.0042588976211845875
2350628033725,1.0678139925003052,-9.613917350769043,2.6611552238464355,0.02182685025036335,-0.0138414166867733,0.0
2350629270937,1.0319008827209473,-9.654618263244629,2.6396074295043945,0.023956298828125,-0.0167694091796875,0.0053236219100654125
2350630508112,0.9995791912078857,-9.660603523254395,2.6791117191314697,0.02262539230287075,-0.0138414166867733,0.0026618109550327063
2350631745300,0.9911994934082031,-9.618705749511719,2.674323320388794,0.01889885775744915,-0.010913425125181675,0.0005323622026480734
2350632982475,1.0115501880645752,-9.642647743225098,2.676717519760132,0.0173017717897892,-0.0162370465695858,0.0026618109550327063
2350634219662,1.0247182846069336,-9.63187313079834,2.6431987285614014,0.02076212503015995,-0.02022976242005825,0.0039927163161337376
2350635456862,1.0319008827209473,-9.59596061706543,2.6635494232177734,0.02076212503015995,-0.01889885775744915,-0.0010647244052961469
2350636694050,1.0307037830352783,-9.585186958312988,2.674323320388794,0.0186326764523983,-0.01889885775744915,-0.0026618109550327063
2350637931225,1.0438719987869263,-9.585186958312988,2.7126305103302,0.01996358297765255,-0.02129448764026165,0.00452507846057415
2350639168412,1.05105459690094,-9.578003883361816,2.7078421115875244,0.013309055007994175,-0.0252872034907341,0.0071868896484375
2350640405612,0.9588778018951416,-9.605537414550781,2.695871114730835,0.010381062515079975,-0.02502102218568325,0.00692070834338665
2350641642787,0.9983820915222168,-9.59835433959961,2.6587610244750977,0.014906140975654125,-0.02502102218568325,0.0029279920272529125
2350642879962,0.9959878921508789,-9.603142738342285,2.693476915359497,0.0090501569211483,-0.0210283063352108,0.0021294488105922937
2350644117162,1.0307037830352783,-9.605537414550781,2.6671407222747803,0.0071868896484375,-0.0263519287109375,0.0031941730994731188
2350645354350,1.0031704902648926,-9.581595420837402,2.7102363109588623,0.0063883461989462376,-0.0327402763068676,-0.0021294488105922937
2350646591537,0.9696516990661621,-9.555258750915527,2.715024709701538,0.0066545275039970875,-0.0330064557492733,0.0010647244052961469
2350647828712,0.9672574996948242,-9.582792282104492,2.652775526046753,0.004791259765625,-0.03034464456140995,0.0071868896484375
2350649065900,0.9588778018951416,-9.57441234588623,2.6611552238464355,0.0010647244052961469,-0.0276828333735466,0.005057440605014563
2350650303087,1.0091559886932373,-9.576807022094727,2.675520420074463,0.0037265352439135313,-0.0271504707634449,0.0042588976211845875
2350651540275,0.9588778018951416,-9.563638687133789,2.6408045291900635,0.0023956298828125,-0.03034464456140995,0.0018632676219567657
2350652777450,0.970848798751831,-9.575610160827637,2.670732021331787,-0.0015970865497365594,-0.033272635191679,0.0010647244052961469
2350654014637,1.0211269855499268,-9.615114212036133,2.6431987285614014,-0.0023956298828125,-0.0324740931391716,-0.0007985432748682797
2350655251837,1.0307037830352783,-9.581595420837402,2.6360161304473877,-0.0037265352439135313,-0.0271504707634449,0.0
2350656489012,1.0426748991012573,-9.59715747833252,2.628833532333374,-0.0010647244052961469,-0.0327402763068676,0.0031941730994731188
2350657726187,0.9840168952941895,-9.59715747833252,2.649184226989746,-0.0015970865497365594,-0.0316755510866642,-0.0023956298828125
2350658963375,0.9959878921508789,-9.623494148254395,2.6408045291900635,-0.0042588976211845875,-0.0343373604118824,0.0039927163161337376
2350660200562,0.9864110946655273,-9.604340553283691,2.646790027618408,-0.006122165359556675,-0.033538818359375,0.0031941730994731188
2350661437762,0.9528923034667969,-9.57441234588623,2.609679937362671,-0.008251613937318325,-0.0351359061896801,0.0005323622026480734
2350662674925,0.9469068050384521,-9.609128952026367,2.626439332962036,-0.010381062515079975,-0.0356682650744915,0.0013309054775163531
2350663912112,0.9995791912078857,-9.592369079589844,2.649184226989746,-0.0077192517928779125,-0.0340711809694767,0.0039927163161337376
2350665149312,0.9397241473197937,-9.582792282104492,2.6898856163024902,-0.0071868896484375,-0.0364668108522892,0.0023956298828125
2350666386500,0.9528923034667969,-9.57321548461914,2.651578426361084,-0.0066545275039970875,-0.0396609827876091,0.0010647244052961469
2350667623700,0.9852139949798584,-9.59476375579834,2.6647465229034424,-0.0114457868039608,-0.0340711809694767,-0.0002661811013240367
2350668860862,0.9756371974945068,-9.567230224609375,2.651578426361084,-0.013042873702943325,-0.0362006276845932,-0.0005323622026480734
2350670098062,0.9648633003234863,-9.603142738342285,2.6348190307617188,-0.0119781494140625,-0.0385962575674057,0.0010647244052961469
2350671335225,0.9588778018951416,-9.5624418258667,2.669534921646118,-0.013309055007994175,-0.0340711809694767,-0.0002661811013240367
2350672572437,0.9804255962371826,-9.552865028381348,2.631227731704712,-0.01996358297765255,-0.0338049978017807,-0.003460354171693325
2350673809625,0.9636662006378174,-9.57441234588623,2.63362193107605,-0.0138414166867733,-0.0316755510866642,-0.0039927163161337376
2350675046812,1.013944387435913,-9.558850288391113,2.5989060401916504,-0.01224433071911335,-0.0399271659553051,0.0018632676219567657
2350676283975,1.0199298858642578,-9.518149375915527,2.612074136734009,-0.01756795309484005,-0.0404595248401165,-0.005589802749454975
2350677521175,1.0235211849212646,-9.509769439697266,2.653972625732422,-0.01889885775744915,-0.0377977155148983,-0.0031941730994731188
2350678758350,0.9074024558067322,-9.522937774658203,2.63362193107605,-0.01597086526453495,-0.0388624407351017,0.003460354171693325
2350679995537,0.9792284965515137,-9.475052833557129,2.630030632019043,-0.0191650390625,-0.0401933453977108,0.0029279920272529125
2350681232725,0.9888052940368652,-9.48462963104248,2.628833532333374,-0.0186326764523983,-0.038330078125,-0.0029279920272529125
2350682469912,0.9588778018951416,-9.473855972290039,2.6599581241607666,-0.014906140975654125,-0.0377977155148983,0.0015970865497365594
2350683707112,0.9660604000091553,-9.44991397857666,2.6348190307617188,-0.01889885775744915,-0.0388624407351017,0.0026618109550327063
2350684944287,0.93254154920578,-9.479841232299805,2.653972625732422,-0.0157046839594841,-0.0455169677734375,0.0071868896484375
2350686181475,0.9385270476341248,-9.4822359085083,2.6192567348480225,-0.012510511092841625,-0.0415242500603199,0.0021294488105922937
2350687418637,0.9516952037811279,-9.501389503479004,2.630030632019043,-0.0181003138422966,-0.0346035435795784,0.004791259765625
2350688655825,0.950498104095459,-9.459490776062012,2.625242233276367,-0.015438503585755825,-0.0404595248401165,0.007453070487827063
2350689893050,0.9145850539207458,-9.48343276977539,2.6216509342193604,-0.0114457868039608,-0.0412580706179142,0.0039927163161337376
2350691130212,0.8834604620933533,-9.44752025604248,2.6132712364196777,-0.013042873702943325,-0.038330078125,0.0066545275039970875
2350692367400,0.9014169573783875,-9.488221168518066,2.6396074295043945,-0.01783413253724575,-0.038063894957304,0.0071868896484375
2350693604575,0.8738836050033569,-9.47265911102295,2.6216509342193604,-0.012510511092841625,-0.0401933453977108,0.0090501569211483
2350694841775,0.8906430602073669,-9.5408935546875,2.564190149307251,-0.00958251953125,-0.0364668108522892,0.00692070834338665
2350696078962,0.9050082564353943,-9.542091369628906,2.606088638305664,-0.007453070487827063,-0.0407257080078125,0.008251613937318325
2350697316137,0.910993754863739,-9.566033363342285,2.5905263423919678,-0.007453070487827063,-0.0441860631108284,0.005057440605014563
2350698553325,0.9301473498344421,-9.508572578430176,2.5450363159179688,-0.0119781494140625,-0.0324740931391716,0.00931633822619915
2350699790500,0.9313444495201111,-9.566033363342285,2.5474305152893066,-0.013309055007994175,-0.0372653529047966,0.008783976547420025
2350701027712,0.9289502501487732,-9.558850288391113,2.5582046508789062,-0.015438503585755825,-0.0375315360724926,0.010647243820130825
2350702264900,0.9469068050384521,-9.544485092163086,2.539050817489624,-0.01410759799182415,-0.0316755510866642,0.012776692397892475
2350703502062,0.9385270476341248,-9.59476375579834,2.5450363159179688,-0.014373779296875,-0.02741665206849575,0.0114457868039608
2350704739237,0.9241618514060974,-9.545681953430176,2.5330653190612793,-0.01357523538172245,-0.033272635191679,0.01650322787463665
2350705976437,0.93254154920578,-9.591172218322754,2.567781448364258,-0.013042873702943325,-0.0372653529047966,0.012510511092841625
2350707213612,0.8930372595787048,-9.570821762084961,2.607285737991333,-0.01171196810901165,-0.03087700717151165,0.010114881210029125
2350708450787,0.9050082564353943,-9.516951560974121,2.6001031398773193,-0.012510511092841625,-0.0295461006462574,0.010381062515079975
2350709688000,0.8798691034317017,-9.57321548461914,2.5689785480499268,-0.01756795309484005,-0.0338049978017807,0.01171196810901165
2350710925187,0.9289502501487732,-9.545681953430176,2.561795949935913,-0.01650322787463665,-0.0346035435795784,0.0138414166867733
2350712162362,0.9217676520347595,-9.532514572143555,2.61087703704834,-0.01703559048473835,-0.0346035435795784,0.01650322787463665
2350713399550,0.9241618514060974,-9.551668167114258,2.5558104515075684,-0.01836649514734745,-0.0314093679189682,0.01410759799182415
2350714636762,0.9385270476341248,-9.530119895935059,2.631227731704712,-0.0223592109978199,-0.02981228195130825,0.007985432632267475
2350715873925,0.9469068050384521,-9.479841232299805,2.5929205417633057,-0.02129448764026165,-0.0295461006462574,0.00984870083630085
2350717111112,0.9397241473197937,-9.532514572143555,2.6144683361053467,-0.02076212503015995,-0.0356682650744915,0.01224433071911335
2350718348300,0.93254154920578,-9.542091369628906,2.6168625354766846,-0.0191650390625,-0.0324740931391716,0.010913425125181675
2350719585475,0.9457097053527832,-9.516951560974121,2.6013002395629883,-0.02369011752307415,-0.0268842913210392,0.010647243820130825
2350720822687,0.8858546614646912,-9.500192642211914,2.6420016288757324,-0.0181003138422966,-0.0322079136967659,0.010381062515079975
2350722059850,0.9349357485771179,-9.490615844726562,2.5989060401916504,-0.01597086526453495,-0.0314093679189682,0.012510511092841625
2350723297025,0.933738648891449,-9.50737476348877,2.586935043334961,-0.02182685025036335,-0.0322079136967659,0.012776692397892475
2350724534225,0.9074024558067322,-9.551668167114258,2.61087703704834,-0.0223592109978199,-0.0306108258664608,0.01410759799182415
2350725771412,0.8906430602073669,-9.493009567260742,2.6360161304473877,-0.01703559048473835,-0.0276828333735466,0.010647243820130825
2350727008587,0.910993754863739,-9.53969669342041,2.603694438934326,-0.02129448764026165,-0.02874755859375,0.0114457868039608
2350728245787,0.9002198576927185,-9.508572578430176,2.609679937362671,-0.0191650390625,-0.0295461006462574,0.01224433071911335
2350729482975,0.9277531504631042,-9.508572578430176,2.5689785480499268,-0.01756795309484005,-0.03087700717151165,0.008517795242369175
2350730720137,0.9481039047241211,-9.515754699707031,2.6180596351623535,-0.01996358297765255,-0.0268842913210392,0.008251613937318325
2350731957350,0.9397241473197937,-9.528923034667969,2.6384103298187256,-0.01783413253724575,-0.02741665206849575,0.008517795242369175
2350733194537,0.8786720037460327,-9.495404243469238,2.6168625354766846,-0.02129448764026165,-0.0311431884765625,0.010381062515079975
2350734431700,0.9026140570640564,-9.512163162231445,2.61087703704834,-0.015438503585755825,-0.0311431884765625,0.010381062515079975
2350735668887,0.9421183466911316,-9.57441234588623,2.608482837677002,-0.0196974016726017,-0.0271504707634449,0.013309055007994175
2350736906075,0.9038111567497253,-9.495404243469238,2.653972625732422,-0.02315775491297245,-0.0276828333735466,0.01597086526453495
2350738143262,0.8942343592643738,-9.513360977172852,2.652775526046753,-0.0210283063352108,-0.02076212503015995,0.007985432632267475
2350739380462,0.9097966551780701,-9.48343276977539,2.625242233276367,-0.01783413253724575,-0.02076212503015995,0.01357523538172245
2350740617650,0.8427590131759644,-9.465476036071777,2.6431987285614014,-0.0196974016726017,-0.0271504707634449,0.01650322787463665
2350741854837,0.8966285586357117,-9.466673851013184,2.6192567348480225,-0.01650322787463665,-0.01597086526453495,0.013042873702943325
2350743092012,0.8571242094039917,-9.495404243469238,2.6228480339050293,-0.0157046839594841,-0.0228915736079216,0.01943122036755085
2350744329187,0.8858546614646912,-9.467870712280273,2.6144683361053467,-0.02262539230287075,-0.0220930315554142,0.01703559048473835
2350745566387,0.8343793153762817,-9.481039047241211,2.6204538345336914,-0.02182685025036335,-0.0204959437251091,0.01117960549890995
2350746803575,0.8810662031173706,-9.48343276977539,2.627636432647705,-0.008517795242369175,-0.013309055007994175,0.0157046839594841
2350748040762,0.8439561128616333,-9.490615844726562,2.606088638305664,-0.013309055007994175,-0.0181003138422966,0.0196974016726017
2350749277925,0.8559271097183228,-9.48343276977539,2.6144683361053467,-0.0191650390625,-0.0157046839594841,0.01410759799182415
2350750515137,0.8224083185195923,-9.44752025604248,2.589329242706299,-0.0173017717897892,-0.0138414166867733,0.01463996060192585
2350751752300,0.8068459630012512,-9.47265911102295,2.580949544906616,-0.0191650390625,-0.0090501569211483,0.0162370465695858
2350752989500,0.8224083185195923,-9.470264434814453,2.6001031398773193,-0.013042873702943325,-0.010913425125181675,0.01117960549890995
2350754226675,0.8535329103469849,-9.475052833557129,2.6168625354766846,-0.0119781494140625,-0.0114457868039608,0.0119781494140625
2350755463862,0.8798691034317017,-9.464279174804688,2.5977089405059814,-0.0119781494140625,-0.006122165359556675,0.014906140975654125
2350756701050,0.8547300100326538,-9.431957244873047,2.564190149307251,-0.0157046839594841,-0.007453070487827063,0.010114881210029125
2350757938237,0.8738836050033569,-9.47146224975586,2.542642116546631,-0.015438503585755825,-0.0063883461989462376,0.010114881210029125
2350759175412,0.8343793153762817,-9.467870712280273,2.564190149307251,-0.01224433071911335,-0.0018632676219567657,0.0157046839594841
2350760412600,0.871489405632019,-9.441534042358398,2.5570075511932373,-0.0138414166867733,0.0,0.0138414166867733
2350761649800,0.8343793153762817,-9.476250648498535,2.584540843963623,-0.0119781494140625,-0.0015970865497365594,0.01650322787463665
2350762886987,0.8391677141189575,-9.454702377319336,2.5701756477355957,-0.00692070834338665,-0.0013309054775163531,0.015172322280704975
2350764124175,0.8690952062606812,-9.418789863586426,2.6132712364196777,-0.0114457868039608,0.008251613937318325,0.010647243820130825
2350765361350,0.8343793153762817,-9.425971984863281,2.5570075511932373,-0.010647243820130825,0.0071868896484375,0.0090501569211483
2350766598525,0.8678981065750122,-9.446322441101074,2.6240451335906982,-0.00931633822619915,0.003460354171693325,0.01357523538172245
2350767835712,0.8463503122329712,-9.399636268615723,2.6228480339050293,-0.0077192517928779125,0.0063883461989462376,0.01783413253724575
2350769072912,0.8475474119186401,-9.435548782348633,2.583343744277954,-0.00958251953125,0.008783976547420025,0.010114881210029125
2350770310087,0.8451532125473022,-9.440337181091309,2.630030632019043,-0.01171196810901165,0.00984870083630085,0.014373779296875
2350771547275,0.8224083185195923,-9.439140319824219,2.583343744277954,-0.0042588976211845875,0.012776692397892475,0.01756795309484005
2350772784475,0.8164227604866028,-9.410409927368164,2.6013002395629883,-0.0037265352439135313,0.008251613937318325,0.014373779296875
2350774021650,0.8248025178909302,-9.465476036071777,2.5725698471069336,0.0,0.01410759799182415,0.015438503585755825
2350775258837,0.8702923059463501,-9.48462963104248,2.5953147411346436,-0.0005323622026480734,0.01463996060192585,0.0186326764523983
2350776496012,0.8451532125473022,-9.495404243469238,2.586935043334961,-0.00452507846057415,0.014906140975654125,0.015438503585755825
2350777733212,0.8942343592643738,-9.487024307250977,2.58813214302063,0.0005323622026480734,0.0114457868039608,0.01224433071911335
2350778970387,0.9253589510917664,-9.498995780944824,2.5582046508789062,0.0010647244052961469,0.02129448764026165,0.010647243820130825
2350780207562,0.9385270476341248,-9.501389503479004,2.5701756477355957,-0.0007985432748682797,0.0186326764523983,0.01224433071911335
2350781444750,0.9217676520347595,-9.554061889648438,2.584540843963623,0.0,0.0196974016726017,0.01943122036755085
2350782681950,0.9385270476341248,-9.530119895935059,2.5773582458496094,-0.0010647244052961469,0.0173017717897892,0.01836649514734745
2350783919137,0.9241618514060974,-9.510966300964355,2.6024973392486572,-0.0031941730994731188,0.014373779296875,0.0173017717897892
2350785156337,0.9816226959228516,-9.544485092163086,2.542642116546631,-0.005057440605014563,0.01889885775744915,0.0138414166867733
2350786393500,0.9301473498344421,-9.497797966003418,2.6216509342193604,-0.003460354171693325,0.023956298828125,0.01756795309484005
2350787630700,0.9612720012664795,-9.519346237182617,2.604891538619995,-0.0026618109550327063,0.02874755859375,0.0173017717897892
2350788867887,0.9301473498344421,-9.50498104095459,2.564190149307251,0.0015970865497365594,0.02555338479578495,0.014906140975654125
2350790105037,0.9277531504631042,-9.495404243469238,2.6024973392486572,0.0002661811013240367,0.02182685025036335,0.010381062515079975
2350791342262,0.970848798751831,-9.526528358459473,2.6228480339050293,-0.0002661811013240367,0.0247548408806324,0.014373779296875
2350792579450,0.9648633003234863,-9.497797966003418,2.58813214302063,-0.0039927163161337376,0.0234239362180233,0.01463996060192585
2350793816625,0.9672574996948242,-9.453505516052246,2.6013002395629883,-0.0018632676219567657,0.02022976242005825,0.01357523538172245
2350795053800,0.9576807022094727,-9.452308654785156,2.612074136734009,-0.0015970865497365594,0.0220930315554142,0.01224433071911335
2350796290975,0.93254154920578,-9.455899238586426,2.631227731704712,-0.004791259765625,0.02422248013317585,0.0090501569211483
2350797528187,0.9313444495201111,-9.455899238586426,2.6132712364196777,0.0002661811013240367,0.0234239362180233,0.007985432632267475
2350798765375,0.9469068050384521,-9.473855972290039,2.6024973392486572,-0.0013309054775163531,0.0234239362180233,0.0063883461989462376
2350800002550,0.9624691009521484,-9.44871711730957,2.6348190307617188,0.0029279920272529125,0.02182685025036335,0.013042873702943325
2350801239737,0.9636662006378174,-9.489418983459473,2.5905263423919678,0.0042588976211845875,0.01889885775744915,0.010647243820130825
2350802476912,0.9792284965515137,-9.508572578430176,2.6240451335906982,0.0029279920272529125,0.0258195661008358,0.008251613937318325
2350803714100,0.933738648891449,-9.493009567260742,2.585737943649292,-0.00692070834338665,0.0215606689453125,0.008783976547420025
2350804951287,0.9265560507774353,-9.496601104736328,2.564190149307251,-0.0031941730994731188,0.01650322787463665,0.008783976547420025
2350806188475,0.8870517611503601,-9.489418983459473,2.6671407222747803,-0.0010647244052961469,0.02022976242005825,0.01171196810901165
2350807425687,0.9145850539207458,-9.5408935546875,2.6156654357910156,-0.0042588976211845875,0.02502102218568325,0.010114881210029125
2350808662875,0.9002198576927185,-9.532514572143555,2.5546133518218994,-0.0037265352439135313,0.02129448764026165,0.0071868896484375
2350809900050,0.888248860836029,-9.533711433410645,2.6144683361053467,-0.003460354171693325,0.0234239362180233,0.01117960549890995
2350811137237,0.8990227580070496,-9.531316757202148,2.566584348678589,-0.0029279920272529125,0.0223592109978199,0.0114457868039608
2350812374412,0.8559271097183228,-9.512163162231445,2.567781448364258,-0.0029279920272529125,0.02022976242005825,0.013042873702943325
2350813611600,0.9038111567497253,-9.536105155944824,2.5773582458496094,-0.0023956298828125,0.02129448764026165,0.014373779296875
2350814848787,0.93254154920578,-9.516951560974121,2.612074136734009,-0.0002661811013240367,0.0258195661008358,0.014906140975654125
2350816085962,0.8966285586357117,-9.53849983215332,2.612074136734009,0.0039927163161337376,0.023956298828125,0.0090501569211483
2350817323162,0.9157821536064148,-9.518149375915527,2.608482837677002,-0.0005323622026480734,0.0223592109978199,0.0119781494140625
2350818560337,0.8655039072036743,-9.477447509765625,2.5917234420776367,-0.004791259765625,0.0234239362180233,0.012776692397892475
2350819797512,0.849941611289978,-9.515754699707031,2.5917234420776367,-0.005057440605014563,0.02422248013317585,0.010913425125181675
2350821034725,0.8523358106613159,-9.502586364746094,2.6001031398773193,-0.0015970865497365594,0.02848137728869915,0.01117960549890995
2350822271900,0.8966285586357117,-9.470264434814453,2.5785553455352783,-0.00692070834338665,0.03087700717151165,0.014373779296875
2350823509075,0.8690952062606812,-9.459490776062012,2.607285737991333,-0.0053236219100654125,0.03087700717151165,0.015172322280704975
2350824746262,0.889445960521698,-9.454702377319336,2.6180596351623535,-0.0015970865497365594,0.0306108258664608,0.015438503585755825
2350825983462,0.8918401598930359,-9.470264434814453,2.6599581241607666,-0.0015970865497365594,0.0311431884765625,0.0196974016726017
2350827220662,0.9038111567497253,-9.493009567260742,2.606088638305664,0.0007985432748682797,0.0316755510866642,0.01410759799182415
2350828457837,0.8738836050033569,-9.488221168518066,2.586935043334961,-0.0002661811013240367,0.0354020856320858,0.01410759799182415
2350829695012,0.9074024558067322,-9.479841232299805,2.586935043334961,-0.0023956298828125,0.0340711809694767,0.01703559048473835
2350830932200,0.9576807022094727,-9.496601104736328,2.6216509342193604,0.0018632676219567657,0.0367329902946949,0.015438503585755825
2350832169362,0.9229647517204285,-9.501389503479004,2.5941176414489746,-0.0029279920272529125,0.0372653529047966,0.0138414166867733
2350833406562,0.9169792532920837,-9.508572578430176,2.5941176414489746,-0.01171196810901165,0.0362006276845932,0.012776692397892475
2350834643762,0.8942343592643738,-9.521739959716797,2.589329242706299,-0.0031941730994731188,0.0306108258664608,0.0173017717897892
2350835880962,0.9349357485771179,-9.527726173400879,2.627636432647705,0.005057440605014563,0.02848137728869915,0.01756795309484005
2350837118125,0.9445126056671143,-9.551668167114258,2.6348190307617188,0.0037265352439135313,0.033272635191679,0.01410759799182415
2350838355312,0.9217676520347595,-9.520543098449707,2.630030632019043,-0.0005323622026480734,0.0393948033452034,0.01357523538172245
2350839592500,0.9349357485771179,-9.558850288391113,2.6420016288757324,0.0010647244052961469,0.038330078125,0.015172322280704975
2350840829700,0.9313444495201111,-9.519346237182617,2.6228480339050293,-0.0007985432748682797,0.0372653529047966,0.015438503585755825
2350842066875,0.8954314589500427,-9.543288230895996,2.608482837677002,0.0010647244052961469,0.0359344482421875,0.00931633822619915
2350843304062,0.9169792532920837,-9.530119895935059,2.627636432647705,-0.0013309054775163531,0.0401933453977108,0.0138414166867733
2350844541237,0.9074024558067322,-9.551668167114258,2.6623523235321045,-0.0026618109550327063,0.0449846051633358,0.01410759799182415
2350845778437,0.9277531504631042,-9.5408935546875,2.632424831390381,0.0,0.0377977155148983,0.01410759799182415
2350847015625,0.9349357485771179,-9.580398559570312,2.585737943649292,-0.0002661811013240367,0.0393948033452034,0.01650322787463665
2350848252812,0.9193734526634216,-9.575610160827637,2.586935043334961,0.0013309054775163531,0.0399271659553051,0.01756795309484005
2350849490000,0.9576807022094727,-9.563638687133789,2.628833532333374,0.0029279920272529125,0.0412580706179142,0.013309055007994175
2350850727187,0.9588778018951416,-9.568427085876465,2.607285737991333,-0.0023956298828125,0.0391286201775074,0.00958251953125
2350851964362,0.9816226959228516,-9.563638687133789,2.585737943649292,-0.0029279920272529125,0.0359344482421875,0.01224433071911335
2350853201550,0.9828197956085205,-9.56124496459961,2.5953147411346436,0.0039927163161337376,0.0404595248401165,0.0119781494140625
2350854438725,0.9229647517204285,-9.57321548461914,2.6431987285614014,-0.0018632676219567657,0.0391286201775074,0.0157046839594841
2350855675925,0.9397241473197937,-9.549273490905762,2.626439332962036,-0.00692070834338665,0.0364668108522892,0.012510511092841625
2350856913125,0.9289502501487732,-9.526528358459473,2.567781448364258,-0.0026618109550327063,0.0340711809694767,0.0119781494140625
2350858150300,0.9696516990661621,-9.57441234588623,2.604891538619995,0.0,0.038063894957304,0.00984870083630085
2350859387500,0.9780313968658447,-9.563638687133789,2.603694438934326,-0.008251613937318325,0.043121337890625,0.0053236219100654125
2350860624662,0.9552865028381348,-9.53969669342041,2.625242233276367,-0.008517795242369175,0.0375315360724926,0.01357523538172245
2350861861862,0.9720458984375,-9.528923034667969,2.6228480339050293,-0.005855984054505825,0.0385962575674057,0.012510511092841625
2350863099050,1.0019733905792236,-9.550470352172852,2.612074136734009,-0.006122165359556675,0.0417904332280159,0.005855984054505825
2350864336250,1.0043675899505615,-9.558850288391113,2.652775526046753,-0.0042588976211845875,0.0369991734623909,0.0029279920272529125
2350865573425,1.016338586807251,-9.524134635925293,2.627636432647705,0.0,0.0343373604118824,0.005855984054505825
2350866810600,1.0079588890075684,-9.5624418258667,2.603694438934326,-0.004791259765625,0.0354020856320858,0.007985432632267475
2350868047800,1.0534487962722778,-9.53969669342041,2.603694438934326,-0.0077192517928779125,0.0362006276845932,0.0077192517928779125
2350869284975,1.0342952013015747,-9.512163162231445,2.607285737991333,-0.0037265352439135313,0.0351359061896801,0.0071868896484375
2350870522162,1.015141487121582,-9.564835548400879,2.651578426361084,-0.006122165359556675,0.0311431884765625,0.0066545275039970875
2350871759337,1.0115501880645752,-9.526528358459473,2.6396074295043945,-0.0042588976211845875,0.03087700717151165,0.005589802749454975
2350872996537,1.0414777994155884,-9.491812705993652,2.608482837677002,-0.0071868896484375,0.0322079136967659,0.006122165359556675
2350874233725,1.0007762908935547,-9.533711433410645,2.632424831390381,-0.00452507846057415,0.02741665206849575,-0.0018632676219567657
2350875470925,1.0295066833496094,-9.53730297088623,2.646790027618408,-0.005589802749454975,0.02422248013317585,-0.004791259765625
2350876708100,1.0462661981582642,-9.551668167114258,2.6168625354766846,-0.010913425125181675,0.0247548408806324,-0.0023956298828125
2350877945287,1.0390836000442505,-9.550470352172852,2.630030632019043,-0.010647243820130825,0.02502102218568325,0.0023956298828125
2350879182462,1.0295066833496094,-9.532514572143555,2.63362193107605,-0.0090501569211483,0.0234239362180233,0.0005323622026480734
2350880419637,1.0019733905792236,-9.50498104095459,2.6156654357910156,-0.0053236219100654125,0.0215606689453125,0.0013309054775163531
2350881656837,0.9864110946655273,-9.5408935546875,2.6455929279327393,-0.0063883461989462376,0.0196974016726017,-0.0005323622026480734
2350882894050,0.9911994934082031,-9.555258750915527,2.5701756477355957,-0.008517795242369175,0.02022976242005825,0.0005323622026480734
2350884131225,1.0259153842926025,-9.544485092163086,2.6192567348480225,-0.007985432632267475,0.0191650390625,-0.0026618109550327063
2350885368425,1.0019733905792236,-9.544485092163086,2.6168625354766846,-0.00958251953125,0.01410759799182415,-0.0023956298828125
2350886605587,1.0426748991012573,-9.542091369628906,2.584540843963623,-0.0077192517928779125,0.01650322787463665,-0.0042588976211845875
2350887842775,0.9852139949798584,-9.549273490905762,2.608482837677002,-0.010647243820130825,0.014373779296875,-0.005057440605014563
2350889079937,1.015141487121582,-9.569623947143555,2.6240451335906982,-0.0119781494140625,0.012510511092841625,0.0
2350890317162,1.0522516965866089,-9.557653427124023,2.6180596351623535,-0.01463996060192585,0.0138414166867733,-0.0005323622026480734
2350891554337,1.0618284940719604,-9.5408935546875,2.5989060401916504,-0.010647243820130825,0.0114457868039608,-0.0039927163161337376
2350892791500,1.048660397529602,-9.525331497192383,2.559401750564575,-0.013042873702943325,0.0063883461989462376,-0.0071868896484375
2350894028712,1.070208191871643,-9.575610160827637,2.586935043334961,-0.014373779296875,0.005855984054505825,-0.0066545275039970875
2350895265900,1.0690110921859741,-9.556456565856934,2.561795949935913,-0.012776692397892475,0.007985432632267475,-0.0071868896484375
2350896503062,1.0618284940719604,-9.525331497192383,2.5929205417633057,-0.013309055007994175,0.008783976547420025,-0.00692070834338665
2350897740275,1.0378865003585815,-9.555258750915527,2.5905263423919678,-0.014373779296875,0.0071868896484375,-0.0077192517928779125
2350898977437,1.0366894006729126,-9.521739959716797,2.5941176414489746,-0.010114881210029125,0.003460354171693325,-0.005855984054505825
2350900214625,1.0642226934432983,-9.526528358459473,2.5953147411346436,-0.0063883461989462376,0.0002661811013240367,-0.00692070834338665
2350901451825,1.0366894006729126,-9.518149375915527,2.6144683361053467,-0.0119781494140625,0.007985432632267475,-0.010114881210029125
2350902689012,1.0271124839782715,-9.533711433410645,2.6168625354766846,-0.00931633822619915,0.005589802749454975,-0.010381062515079975
2350903926200,1.0295066833496094,-9.510966300964355,2.566584348678589,-0.010381062515079975,-0.0023956298828125,-0.01117960549890995
2350905163375,1.016338586807251,-9.53969669342041,2.647987127304077,-0.012510511092841625,-0.0026618109550327063,-0.0077192517928779125
2350906400562,1.0378865003585815,-9.516951560974121,2.6372132301330566,-0.00984870083630085,-0.0053236219100654125,-0.0090501569211483
2350907637750,1.0462661981582642,-9.530119895935059,2.58813214302063,-0.00958251953125,-0.006122165359556675,-0.014373779296875
2350908874950,1.0055646896362305,-9.48462963104248,2.631227731704712,-0.008783976547420025,-0.0090501569211483,-0.01357523538172245
2350910112137,0.9911994934082031,-9.514557838439941,2.5713727474212646,-0.00931633822619915,-0.008517795242369175,-0.013042873702943325
2350911349300,0.9684545993804932,-9.53969669342041,2.5689785480499268,-0.0026618109550327063,-0.0119781494140625,-0.014373779296875
2350912586512,0.99479079246521,-9.514557838439941,2.626439332962036,-0.0013309054775163531,-0.00984870083630085,-0.01410759799182415
2350913823700,0.9995791912078857,-9.475052833557129,2.6216509342193604,-0.00452507846057415,-0.0077192517928779125,-0.014906140975654125
2350915060862,1.0007762908935547,-9.452308654785156,2.585737943649292,-0.0026618109550327063,-0.007453070487827063,-0.01756795309484005
2350916298075,0.9756371974945068,-9.479841232299805,2.564190149307251,0.0010647244052961469,-0.0138414166867733,-0.015438503585755825
2350917535237,0.9289502501487732,-9.513360977172852,2.5917234420776367,-0.0042588976211845875,-0.015438503585755825,-0.01783413253724575
2350918772425,0.9792284965515137,-9.509769439697266,2.5917234420776367,-0.0037265352439135313,-0.0114457868039608,-0.0220930315554142
2350920009600,0.9744400978088379,-9.496601104736328,2.5522189140319824,-0.00452507846057415,-0.0173017717897892,-0.02076212503015995
2350921246812,0.9744400978088379,-9.526528358459473,2.5546133518218994,-0.0007985432748682797,-0.0173017717897892,-0.02129448764026165
2350922483987,0.9409212470054626,-9.50737476348877,2.5701756477355957,-0.0002661811013240367,-0.01889885775744915,-0.02369011752307415
2350923721175,0.9816226959228516,-9.489418983459473,2.5725698471069336,-0.0037265352439135313,-0.0228915736079216,-0.0244886614382267
2350924958362,0.9756371974945068,-9.498995780944824,2.5725698471069336,0.0026618109550327063,-0.02076212503015995,-0.0210283063352108
2350926195550,0.9720458984375,-9.44871711730957,2.607285737991333,0.0026618109550327063,-0.0167694091796875,-0.023956298828125
2350927432725,0.9564836025238037,-9.521739959716797,2.5761611461639404,0.0002661811013240367,-0.01463996060192585,-0.0196974016726017
2350928669937,0.9600749015808105,-9.493009567260742,2.586935043334961,0.0023956298828125,-0.0181003138422966,-0.02422248013317585
2350929907100,0.9648633003234863,-9.520543098449707,2.6192567348480225,0.0007985432748682797,-0.02182685025036335,-0.02422248013317585
2350931144287,0.94930100440979,-9.476250648498535,2.5797524452209473,0.0,-0.015438503585755825,-0.01783413253724575
2350932381475,0.9636662006378174,-9.50498104095459,2.5941176414489746,0.0013309054775163531,-0.0157046839594841,-0.01650322787463665
2350933618662,0.9983820915222168,-9.534908294677734,2.5905263423919678,0.0029279920272529125,-0.0210283063352108,-0.01650322787463665
2350934855850,0.970848798751831,-9.519346237182617,2.61087703704834,-0.0002661811013240367,-0.014906140975654125,-0.015172322280704975
2350936093037,0.9528923034667969,-9.557653427124023,2.6575639247894287,-0.005589802749454975,-0.0173017717897892,-0.01756795309484005
2350937330225,0.9888052940368652,-9.566033363342285,2.652775526046753,-0.0042588976211845875,-0.0204959437251091,-0.013042873702943325
2350938567412,0.9576807022094727,-9.544485092163086,2.627636432647705,-0.0039927163161337376,-0.008251613937318325,-0.0162370465695858
2350939804612,0.9469068050384521,-9.552865028381348,2.627636432647705,-0.0015970865497365594,-0.0157046839594841,-0.012776692397892475
2350941041800,0.9840168952941895,-9.570821762084961,2.652775526046753,0.0042588976211845875,-0.01703559048473835,-0.013309055007994175
2350942278975,0.9756371974945068,-9.53969669342041,2.63362193107605,-0.0071868896484375,-0.01650322787463665,-0.01357523538172245
2350943516175,0.9145850539207458,-9.581595420837402,2.677914619445801,-0.005057440605014563,-0.013309055007994175,-0.01117960549890995
2350944753350,0.9301473498344421,-9.566033363342285,2.6815059185028076,-0.0026618109550327063,-0.0114457868039608,-0.013309055007994175
2350945990537,0.912190854549408,-9.5037841796875,2.673126220703125,-0.0002661811013240367,-0.01171196810901165,-0.01117960549890995
2350947227700,0.9289502501487732,-9.542091369628906,2.6396074295043945,-0.0023956298828125,-0.013042873702943325,-0.007985432632267475
2350948464887,0.8978256583213806,-9.555258750915527,2.6623523235321045,-0.0063883461989462376,-0.01463996060192585,-0.005057440605014563
2350949702087,0.9193734526634216,-9.542091369628906,2.6898856163024902,-0.0015970865497365594,-0.01783413253724575,-0.0077192517928779125
2350950939275,0.8834604620933533,-9.513360977172852,2.668337821960449,0.0015970865497365594,-0.0138414166867733,-0.0077192517928779125
2350952176450,0.871489405632019,-9.501389503479004,2.7114334106445312,-0.0021294488105922937,-0.013042873702943325,-0.0066545275039970875
2350953413637,0.8655039072036743,-9.5037841796875,2.7054479122161865,0.0,-0.013309055007994175,-0.007453070487827063
2350954650825,0.851138710975647,-9.493009567260742,2.651578426361084,0.0013309054775163531,-0.012776692397892475,-0.007985432632267475
2350955888012,0.8667010068893433,-9.487024307250977,2.6216509342193604,-0.0018632676219567657,-0.013042873702943325,-0.008251613937318325
2350957125200,0.8463503122329712,-9.44752025604248,2.630030632019043,-0.003460354171693325,-0.00692070834338665,-0.00931633822619915
2350958362400,0.8583213090896606,-9.460687637329102,2.652775526046753,0.005589802749454975,-0.0090501569211483,-0.0071868896484375
2350959599575,0.8092401623725891,-9.446322441101074,2.655169725418091,0.004791259765625,-0.00984870083630085,-0.0042588976211845875
2350960836762,0.8810662031173706,-9.452308654785156,2.608482837677002,0.0039927163161337376,-0.0071868896484375,-0.0042588976211845875
2350962073950,0.8140285611152649,-9.476250648498535,2.5713727474212646,0.01171196810901165,-0.007453070487827063,-0.007985432632267475
2350963311125,0.829590916633606,-9.47146224975586,2.6013002395629883,0.00984870083630085,-0.0005323622026480734,-0.003460354171693325
2350964548312,0.8535329103469849,-9.469067573547363,2.5570075511932373,0.0063883461989462376,-0.003460354171693325,-0.0010647244052961469
2350965785475,0.8786720037460327,-9.481039047241211,2.5989060401916504,0.008517795242369175,-0.0037265352439135313,-0.003460354171693325
2350967022687,0.8678981065750122,-9.48343276977539,2.522291421890259,0.01410759799182415,0.0023956298828125,0.0002661811013240367
2350968259887,0.8367735147476196,-9.48343276977539,2.5246856212615967,0.013042873702943325,0.0053236219100654125,0.0
2350969497075,0.8678981065750122,-9.516951560974121,2.5773582458496094,0.0119781494140625,0.0026618109550327063,-0.00452507846057415
2350970734225,0.8690952062606812,-9.488221168518066,2.560598850250244,0.015438503585755825,0.0005323622026480734,-0.005057440605014563
2350971971437,0.871489405632019,-9.545681953430176,2.5498247146606445,0.010647243820130825,0.005057440605014563,-0.007453070487827063
2350973208637,0.8978256583213806,-9.53849983215332,2.5438392162323,0.01410759799182415,0.0053236219100654125,-0.0029279920272529125
2350974445812,0.8391677141189575,-9.510966300964355,2.58813214302063,0.0186326764523983,0.0090501569211483,-0.0018632676219567657
2350975683000,0.8547300100326538,-9.542091369628906,2.6156654357910156,0.013042873702943325,0.008517795242369175,-0.0010647244052961469
2350976920175,0.8822633624076843,-9.518149375915527,2.632424831390381,0.0167694091796875,0.01650322787463665,-0.00452507846057415
2350978157375,0.8966285586357117,-9.531316757202148,2.6144683361053467,0.0210283063352108,0.01783413253724575,-0.006122165359556675
2350979394550,0.8846575617790222,-9.50498104095459,2.607285737991333,0.0181003138422966,0.01117960549890995,-0.010913425125181675
2350980631750,0.871489405632019,-9.512163162231445,2.6204538345336914,0.02076212503015995,0.0138414166867733,-0.003460354171693325
2350981868937,0.8774749040603638,-9.496601104736328,2.5977089405059814,0.01783413253724575,0.015438503585755825,-0.0029279920272529125
2350983106100,0.8846575617790222,-9.454702377319336,2.589329242706299,0.01703559048473835,0.015438503585755825,-0.0039927163161337376
2350984343287,0.9588778018951416,-9.47146224975586,2.6443958282470703,0.0210283063352108,0.014906140975654125,-0.0039927163161337376
2350985580487,0.8774749040603638,-9.476250648498535,2.652775526046753,0.0191650390625,0.01943122036755085,-0.0013309054775163531
2350986817675,0.8667010068893433,-9.510966300964355,2.63362193107605,0.0186326764523983,0.0196974016726017,-0.0039927163161337376
2350988054862,0.910993754863739,-9.443928718566895,2.5965118408203125,0.02076212503015995,0.02022976242005825,-0.0037265352439135313
2350989292037,0.9301473498344421,-9.442731857299805,2.6216509342193604,0.02022976242005825,0.0191650390625,-0.0029279920272529125
2350990529225,0.9433155059814453,-9.457097053527832,2.6132712364196777,0.015438503585755825,0.0228915736079216,-0.006122165359556675
2350991766425,0.9516952037811279,-9.457097053527832,2.609679937362671,0.015172322280704975,0.02076212503015995,-0.010647243820130825
2350993003587,0.910993754863739,-9.48343276977539,2.61087703704834,0.0210283063352108,0.0191650390625,-0.0063883461989462376
2350994240787,0.9373299479484558,-9.44752025604248,2.603694438934326,0.02022976242005825,0.02182685025036335,-0.010913425125181675
2350995477987,0.9469068050384521,-9.489418983459473,2.651578426361084,0.01996358297765255,0.02182685025036335,-0.00984870083630085
2350996715162,0.9852139949798584,-9.460687637329102,2.5989060401916504,0.02315775491297245,0.02182685025036335,-0.0090501569211483
2350997952362,0.9876081943511963,-9.478644371032715,2.583343744277954,0.0186326764523983,0.02422248013317585,-0.013309055007994175
2350999189550,0.9959878921508789,-9.457097053527832,2.564190149307251,0.0191650390625,0.0223592109978199,-0.015172322280704975
2351000426725,1.0414777994155884,-9.457097053527832,2.580949544906616,0.0263519287109375,0.02076212503015995,-0.012776692397892475
2351001663912,1.0462661981582642,-9.496601104736328,2.651578426361084,0.0228915736079216,0.0252872034907341,-0.01410759799182415
2351002901075,1.0594342947006226,-9.459490776062012,2.5917234420776367,0.0228915736079216,0.0223592109978199,-0.01410759799182415
2351004138287,1.0462661981582642,-9.439140319824219,2.5965118408203125,0.02262539230287075,0.0191650390625,-0.0220930315554142
2351005375487,1.091755986213684,-9.50737476348877,2.6024973392486572,0.02555338479578495,0.01996358297765255,-0.02422248013317585
2351006612662,1.0235211849212646,-9.494207382202148,2.5941176414489746,0.02661811001598835,0.02076212503015995,-0.01783413253724575
2351007849825,1.0187327861785889,-9.440337181091309,2.6132712364196777,0.0268842913210392,0.0167694091796875,-0.0173017717897892
2351009087025,1.0690110921859741,-9.435548782348633,2.655169725418091,0.0322079136967659,0.012776692397892475,-0.02502102218568325
2351010324225,1.0378865003585815,-9.446322441101074,2.668337821960449,0.0300784632563591,0.01597086526453495,-0.0271504707634449
2351011561412,1.0522516965866089,-9.431957244873047,2.646790027618408,0.0359344482421875,0.015172322280704975,-0.02502102218568325
2351012798587,1.0618284940719604,-9.453505516052246,2.695871114730835,0.0354020856320858,0.008251613937318325,-0.02369011752307415
2351014035775,1.0797849893569946,-9.441534042358398,2.625242233276367,0.0359344482421875,0.008517795242369175,-0.0223592109978199
2351015272962,1.0330979824066162,-9.41519832611084,2.6372132301330566,0.0356682650744915,0.005589802749454975,-0.02369011752307415
2351016510137,1.0797849893569946,-9.434351921081543,2.671929121017456,0.0348697230219841,0.003460354171693325,-0.0268842913210392
2351017747337,1.0414777994155884,-9.409213066101074,2.6360161304473877,0.0399271659553051,0.0063883461989462376,-0.0268842913210392
2351018984525,1.0450690984725952,-9.418789863586426,2.6443958282470703,0.0404595248401165,0.003460354171693325,-0.0295461006462574
2351020221725,1.0797849893569946,-9.410409927368164,2.6192567348480225,0.0433875173330307,0.0042588976211845875,-0.0300784632563591
2351021458900,1.0366894006729126,-9.388861656188965,2.612074136734009,0.0455169677734375,0.0026618109550327063,-0.0268842913210392
2351022696075,1.0450690984725952,-9.455899238586426,2.651578426361084,0.0484449602663517,-0.004791259765625,-0.02182685025036335
2351023933275,1.0307037830352783,-9.388861656188965,2.6587610244750977,0.0471140518784523,-0.0018632676219567657,-0.02608574740588665
2351025170450,1.0821791887283325,-9.388861656188965,2.6443958282470703,0.0489773228764534,0.0010647244052961469,-0.03034464456140995
2351026407637,1.1013327836990356,-9.387664794921875,2.6372132301330566,0.0500420443713665,-0.0031941730994731188,-0.0263519287109375
2351027644837,1.1073182821273804,-9.38048267364502,2.674323320388794,0.0521714948117733,-0.0066545275039970875,-0.0292799212038517
2351028882000,1.0821791887283325,-9.439140319824219,2.670732021331787,0.0537685826420784,-0.0039927163161337376,-0.0306108258664608
2351030119212,1.0821791887283325,-9.446322441101074,2.691082715988159,0.0516391322016716,-0.0013309054775163531,-0.02794901467859745
2351031356387,1.0283095836639404,-9.461885452270508,2.675520420074463,0.0529700368642807,-0.005589802749454975,-0.0258195661008358
2351032593562,1.0570400953292847,-9.490615844726562,2.695871114730835,0.052703857421875,-0.013042873702943325,-0.0263519287109375
2351033830750,1.1025298833847046,-9.525331497192383,2.671929121017456,0.0556318499147892,-0.008517795242369175,-0.02848137728869915
2351035067950,1.048660397529602,-9.519346237182617,2.650381326675415,0.0484449602663517,-0.00958251953125,-0.02794901467859745
2351036305125,1.0127472877502441,-9.543288230895996,2.6443958282470703,0.0436537005007267,-0.013309055007994175,-0.033272635191679
2351037542325,0.9768342971801758,-9.558850288391113,2.6623523235321045,0.04791259765625,-0.010647243820130825,-0.0340711809694767
2351038779500,0.9768342971801758,-9.548076629638672,2.697068214416504,0.0495096817612648,-0.015172322280704975,-0.02848137728869915
2351040016675,0.9002198576927185,-9.589975357055664,2.7090392112731934,0.0519053116440773,-0.0228915736079216,-0.02901373989880085
2351041253862,0.9313444495201111,-9.591172218322754,2.671929121017456,0.0505744069814682,-0.0223592109978199,-0.0319417305290699
2351042491062,0.8858546614646912,-9.646238327026367,2.718616008758545,0.0441860631108284,-0.0181003138422966,-0.0324740931391716
2351043728237,0.871489405632019,-9.643844604492188,2.694674015045166,0.0463155098259449,-0.014906140975654125,-0.0322079136967659
2351044965425,0.8571242094039917,-9.59715747833252,2.7006595134735107,0.0465816929936409,-0.0181003138422966,-0.0316755510866642
2351046202625,0.8655039072036743,-9.616311073303223,2.675520420074463,0.0436537005007267,-0.02182685025036335,-0.0327402763068676
2351047439812,0.8954314589500427,-9.607931137084961,2.676717519760132,0.0393948033452034,-0.02422248013317585,-0.033538818359375
2351048677000,0.8655039072036743,-9.611522674560547,2.6635494232177734,0.0407257080078125,-0.0167694091796875,-0.0385962575674057
2351049914187,0.8786720037460327,-9.641449928283691,2.6599581241607666,0.0396609827876091,-0.01597086526453495,-0.0351359061896801
2351051151362,0.8870517611503601,-9.627084732055664,2.7090392112731934,0.0364668108522892,-0.01889885775744915,-0.038063894957304
2351052388550,0.8990227580070496,-9.616311073303223,2.6886885166168213,0.0393948033452034,-0.015172322280704975,-0.0369991734623909
2351053625750,0.8607155084609985,-9.588777542114258,2.675520420074463,0.0385962575674057,-0.01836649514734745,-0.0417904332280159
2351054862937,0.8786720037460327,-9.618705749511719,2.7257986068725586,0.0324740931391716,-0.0157046839594841,-0.0436537005007267
2351056100125,0.8702923059463501,-9.59715747833252,2.694674015045166,0.0327402763068676,-0.015172322280704975,-0.0391286201775074
2351057337300,0.8690952062606812,-9.59596061706543,2.713827610015869,0.0324740931391716,-0.01650322787463665,-0.0393948033452034
2351058574475,0.8930372595787048,-9.615114212036133,2.7042508125305176,0.0343373604118824,-0.01889885775744915,-0.0388624407351017
2351059811675,0.93254154920578,-9.616311073303223,2.718616008758545,0.03087700717151165,-0.0167694091796875,-0.0452507846057415
2351061048862,0.9313444495201111,-9.587580680847168,2.713827610015869,0.0282151959836483,-0.014373779296875,-0.0481787770986557
2351062286037,0.9481039047241211,-9.564835548400879,2.691082715988159,0.0348697230219841,-0.0090501569211483,-0.0489773228764534
2351063523237,0.9457097053527832,-9.530119895935059,2.699462413787842,0.0282151959836483,-0.0114457868039608,-0.0396609827876091
2351064760425,0.9624691009521484,-9.5037841796875,2.6862943172454834,0.02502102218568325,-0.01171196810901165,-0.0393948033452034
2351065997600,0.9516952037811279,-9.57321548461914,2.675520420074463,0.0276828333735466,-0.0138414166867733,-0.0420566126704216
2351067234775,0.9840168952941895,-9.522937774658203,2.7269957065582275,0.02661811001598835,-0.013309055007994175,-0.0420566126704216
2351068471987,0.9612720012664795,-9.50617790222168,2.6803088188171387,0.02901373989880085,-0.0114457868039608,-0.0367329902946949
2351069709150,0.9313444495201111,-9.526528358459473,2.6803088188171387,0.02794901467859745,-0.010114881210029125,-0.0340711809694767
2351070946350,0.9097966551780701,-9.53730297088623,2.6850972175598145,0.0306108258664608,-0.01171196810901165,-0.0359344482421875
2351072183525,0.93254154920578,-9.53730297088623,2.698265314102173,0.02981228195130825,-0.0173017717897892,-0.038330078125
2351073420725,0.9588778018951416,-9.513360977172852,2.677914619445801,0.02502102218568325,-0.013309055007994175,-0.033538818359375
2351074657912,0.9313444495201111,-9.5624418258667,2.7222073078155518,0.02981228195130825,-0.01357523538172245,-0.03034464456140995
2351075895087,0.9253589510917664,-9.533711433410645,2.699462413787842,0.0282151959836483,-0.012776692397892475,-0.0362006276845932
2351077132300,0.9373299479484558,-9.53969669342041,2.6599581241607666,0.02874755859375,-0.0138414166867733,-0.0409918874502182
2351078369475,0.9612720012664795,-9.53849983215332,2.7006595134735107,0.0234239362180233,-0.014906140975654125,-0.042855154722929
2351079606650,0.933738648891449,-9.520543098449707,2.671929121017456,0.0196974016726017,-0.01703559048473835,-0.0375315360724926
2351080843850,0.94930100440979,-9.549273490905762,2.675520420074463,0.02422248013317585,-0.01410759799182415,-0.0367329902946949
2351082081025,0.9457097053527832,-9.57201862335205,2.7042508125305176,0.0220930315554142,-0.0162370465695858,-0.0375315360724926
2351083318212,0.9959878921508789,-9.534908294677734,2.756923198699951,0.0220930315554142,-0.014373779296875,-0.0393948033452034
2351084555400,0.9624691009521484,-9.532514572143555,2.6862943172454834,0.0228915736079216,-0.010913425125181675,-0.0441860631108284
2351085792575,0.9852139949798584,-9.53969669342041,2.675520420074463,0.0223592109978199,-0.00931633822619915,-0.0423227921128273
2351087029775,0.9552865028381348,-9.592369079589844,2.692279815673828,0.02076212503015995,-0.01463996060192585,-0.0425889752805233
2351088266937,0.9864110946655273,-9.578003883361816,2.7246015071868896,0.0196974016726017,-0.013042873702943325,-0.0489773228764534
2351089504150,0.9624691009521484,-9.552865028381348,2.694674015045166,0.01463996060192585,-0.01171196810901165,-0.0492435023188591
2351090741337,0.9433155059814453,-9.552865028381348,2.7126305103302,0.00958251953125,-0.01410759799182415,-0.0452507846057415
2351091978512,0.9660604000091553,-9.528923034667969,2.7042508125305176,0.008251613937318325,-0.01703559048473835,-0.0473802350461483
2351093215700,0.9600749015808105,-9.582792282104492,2.7090392112731934,0.010647243820130825,-0.01171196810901165,-0.0484449602663517
2351094452887,0.9181763529777527,-9.554061889648438,2.697068214416504,0.010647243820130825,-0.008783976547420025,-0.0471140518784523
2351095690075,0.9433155059814453,-9.530119895935059,2.6803088188171387,0.01117960549890995,-0.015172322280704975,-0.0548333041369915
2351096927262,0.9540894031524658,-9.576807022094727,2.6408045291900635,0.013309055007994175,-0.0119781494140625,-0.0548333041369915
2351098164437,0.9397241473197937,-9.593565940856934,2.691082715988159,0.010647243820130825,-0.010381062515079975,-0.0566965714097023
2351099401650,0.9756371974945068,-9.606734275817871,2.7222073078155518,0.010647243820130825,-0.01463996060192585,-0.0577612966299057
2351100638812,0.94930100440979,-9.587580680847168,2.7018566131591797,0.00984870083630085,-0.0119781494140625,-0.062020193785429
2351101876012,0.9313444495201111,-9.604340553283691,2.674323320388794,0.006122165359556675,-0.01171196810901165,-0.0577612966299057
2351103113212,0.9373299479484558,-9.59596061706543,2.6623523235321045,0.004791259765625,-0.010647243820130825,-0.0596245639026165
2351104350387,0.9445126056671143,-9.591172218322754,2.692279815673828,0.005589802749454975,-0.0114457868039608,-0.0628187358379364
2351105587587,0.9888052940368652,-9.622296333312988,2.7078421115875244,0.0053236219100654125,-0.0053236219100654125,-0.0662790909409523
2351106824787,0.950498104095459,-9.649829864501953,2.6671407222747803,0.0077192517928779125,-0.004791259765625,-0.0604231096804142
2351108061950,1.0031704902648926,-9.576807022094727,2.655169725418091,0.0029279920272529125,-0.010913425125181675,-0.0601569265127182
2351109299125,1.0271124839782715,-9.585186958312988,2.676717519760132,0.0007985432748682797,-0.00958251953125,-0.0612216517329216
2351110536312,1.016338586807251,-9.57321548461914,2.6443958282470703,0.0007985432748682797,-0.012776692397892475,-0.0636172816157341
2351111773487,1.0187327861785889,-9.568427085876465,2.7317841053009033,-0.0005323622026480734,-0.00958251953125,-0.0612216517329216
2351113010712,1.0809820890426636,-9.497797966003418,2.715024709701538,-0.0013309054775163531,-0.0042588976211845875,-0.0609554722905159
2351114247875,1.0749965906143188,-9.502586364746094,2.713827610015869,-0.004791259765625,-0.0026618109550327063,-0.0638834610581398
2351115485062,1.0271124839782715,-9.502586364746094,2.7700912952423096,-0.00692070834338665,-0.007985432632267475,-0.0657467320561409
2351116722250,1.0330979824066162,-9.439140319824219,2.762908697128296,-0.015438503585755825,-0.0066545275039970875,-0.0660129114985466
2351117959437,1.0307037830352783,-9.4822359085083,2.7712883949279785,-0.0119781494140625,-0.0013309054775163531,-0.0612216517329216
2351119196650,1.0199298858642578,-9.425971984863281,2.806004524230957,-0.004791259765625,-0.008251613937318325,-0.0604231096804142
2351120433800,1.013944387435913,-9.38048267364502,2.783259391784668,-0.006122165359556675,-0.007453070487827063,-0.0577612966299057
2351121670987,0.9971849918365479,-9.372102737426758,2.785653591156006,-0.0029279920272529125,-0.00452507846057415,-0.0596245639026165
2351122908187,0.9564836025238037,-9.334992408752441,2.785653591156006,-0.0005323622026480734,-0.005589802749454975,-0.0598907470703125
2351124145362,0.9804255962371826,-9.339780807495117,2.8000190258026123,-0.0063883461989462376,-0.00452507846057415,-0.0588260218501091
2351125382562,0.9684545993804932,-9.334992408752441,2.8119900226593018,-0.008251613937318325,-0.005057440605014563,-0.0558980293571949
2351126619750,0.9672574996948242,-9.301473617553711,2.7904419898986816,-0.0077192517928779125,0.0,-0.0537685826420784
2351127856925,0.9552865028381348,-9.367314338684082,2.7772738933563232,-0.0063883461989462376,-0.0015970865497365594,-0.052703857421875
2351129094112,0.9528923034667969,-9.404424667358398,2.78086519241333,-0.005855984054505825,-0.0026618109550327063,-0.0481787770986557
2351130331312,0.94930100440979,-9.379284858703613,2.8131871223449707,-0.0002661811013240367,0.0021294488105922937,-0.0473802350461483
2351131568500,0.9576807022094727,-9.391256332397461,2.782062292098999,-0.0023956298828125,0.0013309054775163531,-0.0492435023188591
2351132805700,0.933738648891449,-9.375694274902344,2.807201623916626,-0.0029279920272529125,0.0010647244052961469,-0.0465816929936409
2351134042875,0.9540894031524658,-9.367314338684082,2.80241322517395,-0.0005323622026480734,0.0039927163161337376,-0.0489773228764534
2351135280050,0.9241618514060974,-9.387664794921875,2.785653591156006,-0.0031941730994731188,0.00931633822619915,-0.0425889752805233
2351136517237,0.9385270476341248,-9.340977668762207,2.7126305103302,0.0002661811013240367,0.012510511092841625,-0.038330078125
2351137754412,0.9097966551780701,-9.277531623840332,2.7102363109588623,0.005589802749454975,0.008251613937318325,-0.0407257080078125
2351138991612,0.9157821536064148,-9.303868293762207,2.7006595134735107,0.006122165359556675,0.010913425125181675,-0.0354020856320858
2351140228812,0.9552865028381348,-9.334992408752441,2.7449522018432617,0.008251613937318325,0.01463996060192585,-0.0276828333735466
2351141465987,0.970848798751831,-9.284714698791504,2.7269957065582275,0.00984870083630085,0.0186326764523983,-0.02981228195130825
2351142703162,0.9564836025238037,-9.334992408752441,2.785653591156006,0.012510511092841625,0.01703559048473835,-0.02794901467859745
2351143940350,0.9445126056671143,-9.29309368133545,2.7497406005859375,0.01650322787463665,0.02555338479578495,-0.0282151959836483
2351145177537,0.9756371974945068,-9.366117477416992,2.762908697128296,0.0186326764523983,0.02555338479578495,-0.0263519287109375
2351146414737,0.9911994934082031,-9.279926300048828,2.804807424545288,0.0215606689453125,0.0234239362180233,-0.0210283063352108
2351147651925,0.9385270476341248,-9.26675796508789,2.742558002471924,0.0228915736079216,0.02794901467859745,-0.01783413253724575
2351148889125,0.9469068050384521,-9.272743225097656,2.809595823287964,0.0228915736079216,0.0300784632563591,-0.0186326764523983
2351150126287,0.9852139949798584,-9.327810287475586,2.80241322517395,0.0258195661008358,0.0319417305290699,-0.0223592109978199
2351151363487,0.9265560507774353,-9.271546363830566,2.829946517944336,0.03034464456140995,0.0385962575674057,-0.01597086526453495
2351152600675,0.9241618514060974,-9.273940086364746,2.8598740100860596,0.0359344482421875,0.0354020856320858,-0.012776692397892475
2351153837862,0.9672574996948242,-9.283516883850098,2.8622682094573975,0.0377977155148983,0.038330078125,-0.0114457868039608
2351155075037,0.9876081943511963,-9.271546363830566,2.8586769104003906,0.0425889752805233,0.0396609827876091,-0.0157046839594841
2351156312225,0.9756371974945068,-9.252392768859863,2.87064790725708,0.042855154722929,0.0415242500603199,-0.010913425125181675
2351157549412,0.9780313968658447,-9.282320022583008,2.9221231937408447,0.0407257080078125,0.0455169677734375,-0.0063883461989462376
2351158786600,0.9588778018951416,-9.35654067993164,2.917334794998169,0.0436537005007267,0.0497758649289608,-0.007453070487827063
2351160023775,0.9995791912078857,-9.337387084960938,2.869450807571411,0.0503082275390625,0.0545671246945858,-0.00958251953125
2351161260975,1.0606313943862915,-9.367314338684082,2.846705913543701,0.0535023994743824,0.0548333041369915,-0.01117960549890995
2351162498150,1.0558429956436157,-9.374496459960938,2.9077579975128174,0.052437674254179,0.052437674254179,-0.007985432632267475
2351163735350,1.0666168928146362,-9.422380447387695,2.9065608978271484,0.0489773228764534,0.0574951171875,-0.0071868896484375
2351164972525,1.0366894006729126,-9.481039047241211,2.8586769104003906,0.0543009415268898,0.0596245639026165,-0.0026618109550327063
2351166209712,1.016338586807251,-9.552865028381348,2.912546396255493,0.0545671246945858,0.0604231096804142,-0.0021294488105922937
2351167446912,1.015141487121582,-9.568427085876465,2.8670566082000732,0.0548333041369915,0.0598907470703125,-0.004791259765625
2351168684100,1.0354923009872437,-9.657012939453125,2.8167784214019775,0.052437674254179,0.0638834610581398,-0.0002661811013240367
2351169921287,1.0319008827209473,-9.746795654296875,2.855085611343384,0.0508405901491642,0.0724012553691864,0.0042588976211845875
2351171158487,1.0462661981582642,-9.782708168029785,2.869450807571411,0.0519053116440773,0.0697394460439682,0.0039927163161337376
2351172395662,1.0127472877502441,-9.898826599121094,2.8179755210876465,0.0513729527592659,0.0731998011469841,0.008517795242369175
2351173632837,1.0570400953292847,-9.929951667785645,2.8131871223449707,0.0495096817612648,0.0705379918217659,0.0077192517928779125
2351174870037,1.0390836000442505,-10.017339706420898,2.7952303886413574,0.0487111397087574,0.0734659805893898,0.01224433071911335
2351176107225,1.0594342947006226,-10.091560363769531,2.7928361892700195,0.0436537005007267,0.0779910609126091,0.0173017717897892
2351177344387,1.0749965906143188,-10.156203269958496,2.829946517944336,0.0457831472158432,0.080919049680233,0.01996358297765255
2351178581587,1.1264718770980835,-10.204087257385254,2.8143842220306396,0.0409918874502182,0.081451416015625,0.0300784632563591
2351179818775,1.1085153818130493,-10.26154899597168,2.806004524230957,0.033272635191679,0.0835808664560318,0.0311431884765625
2351181055950,1.1276689767837524,-10.247183799743652,2.8431146144866943,0.0311431884765625,0.0779910609126091,0.0343373604118824
2351182293150,1.136048674583435,-10.307038307189941,2.875436305999756,0.02555338479578495,0.0841132253408432,0.0338049978017807
2351183530350,1.1516109704971313,-10.301053047180176,2.8886044025421143,0.01943122036755085,0.0926310196518898,0.0439198799431324
2351184767525,1.1791443824768066,-10.267534255981445,2.919728994369507,0.00984870083630085,0.0928971990942955,0.0489773228764534
2351186004700,1.1420341730117798,-10.278307914733887,2.9472622871398926,0.007453070487827063,0.0947604700922966,0.0484449602663517
2351187241887,1.1408370733261108,-10.251972198486328,2.9664158821105957,0.005589802749454975,0.095292828977108,0.0561642125248909
2351188479087,1.1097124814987183,-10.223241806030273,2.979583978652954,-0.0037265352439135313,0.0931633859872818,0.0593583844602108
2351189716287,1.173158884048462,-10.195708274841309,3.0202853679656982,-0.00931633822619915,0.0944942906498909,0.0641496405005455
2351190953437,1.1743559837341309,-10.181343078613281,3.0166940689086914,-0.01410759799182415,0.1016811802983284,0.06707763671875
2351192190662,1.1971008777618408,-10.182539939880371,2.9915549755096436,-0.0186326764523983,0.1040768101811409,0.0638834610581398
2351193427825,1.1851298809051514,-10.183736801147461,2.979583978652954,-0.02848137728869915,0.1019473597407341,0.0724012553691864
2351194665050,1.2078747749328613,-10.182539939880371,2.981978178024292,-0.0319417305290699,0.1046091690659523,0.0817175954580307
2351195902212,1.235408067703247,-10.194510459899902,2.9448680877685547,-0.0385962575674057,0.104875348508358,0.0822499617934227
2351197139387,1.2210428714752197,-10.222043991088867,2.898181200027466,-0.0465816929936409,0.1038106232881546,0.0801205113530159
2351198376575,1.2797008752822876,-10.180145263671875,2.9029695987701416,-0.0532362200319767,0.1109975129365921,0.0819837749004364
2351199613750,1.2617442607879639,-10.190919876098633,2.896984100341797,-0.0601569265127182,0.1133931428194046,0.0851779505610466
2351200850962,1.2952631711959839,-10.247183799743652,2.846705913543701,-0.0702718123793602,0.1141916885972023,0.0878397598862648
2351202088137,1.3072341680526733,-10.292673110961914,2.8383262157440186,-0.0753292515873909,0.1155225932598114,0.0907677561044693
2351203325325,1.292868971824646,-10.23880386352539,2.852691411972046,-0.0795881450176239,0.1099327951669693,0.095292828977108
2351204562512,1.3527239561080933,-10.242395401000977,2.8634653091430664,-0.0891706645488739,0.119781494140625,0.0926310196518898
2351205799712,1.3215993642807007,-10.243592262268066,2.8383262157440186,-0.0979546457529068,0.1184505894780159,0.0878397598862648
2351207036912,1.3658920526504517,-10.226832389831543,2.8586769104003906,-0.1075371652841568,0.1168534979224205,0.0881059393286705
2351208274087,1.3419500589370728,-10.18493366241455,2.8419175148010254,-0.1136593297123909,0.1195153146982193,0.090501569211483
2351209511250,1.3718775510787964,-10.11669921875,2.918531894683838,-0.1200476735830307,0.1152564138174057,0.0942281037569046
2351210748450,1.3503297567367554,-10.11430549621582,2.920926094055176,-0.1248389333486557,0.1152564138174057,0.0920986607670784
2351211985637,1.3539210557937622,-10.068815231323242,2.8862102031707764,-0.1306949108839035,0.1112636998295784,0.0976884588599205
2351213222825,1.3682862520217896,-10.040084838867188,2.911349296569824,-0.1306949108839035,0.110198974609375,0.0982208251953125
2351214460037,1.3563152551651,-10.007762908935547,2.8802247047424316,-0.1413421630859375,0.1104651540517807,0.1003502756357193
2351215697212,1.3766659498214722,-10.044873237609863,2.868253707885742,-0.152255579829216,0.1046091690659523,0.0992855504155159
2351216934375,1.3431471586227417,-10.010157585144043,2.918531894683838,-0.1554497629404068,0.1038106232881546,0.1011488139629364
2351218171575,1.359906554222107,-9.995792388916016,2.8886044025421143,-0.1589101105928421,0.0979546457529068,0.1056738942861557
2351219408750,1.3922282457351685,-9.983820915222168,2.8347349166870117,-0.1660970002412796,0.1008826345205307,0.1107313334941864
2351220645962,1.3742717504501343,-9.911994934082031,2.7928361892700195,-0.1719529926776886,0.1035444438457489,0.1086018830537796
2351221883137,1.3886369466781616,-9.998186111450195,2.759317398071289,-0.1754133403301239,0.1038106232881546,0.1112636998295784
2351223120325,1.3754688501358032,-9.952696800231934,2.699462413787842,-0.1780751496553421,0.095292828977108,0.1115298792719841
2351224357525,1.338358759880066,-9.973047256469727,2.6815059185028076,-0.1786075085401535,0.0902353897690773,0.114457868039608
2351225594700,1.3611036539077759,-10.017339706420898,2.652775526046753,-0.1908518373966217,0.0926310196518898,0.1147240549325943
2351226831887,1.358709454536438,-10.016142845153809,2.61087703704834,-0.1991034597158432,0.0883721262216568,0.1131269633769989
2351228069075,1.382651448249817,-10.013749122619629,2.5438392162323,-0.2052256166934967,0.0854441300034523,0.1187167689204216
2351229306262,1.338358759880066,-10.049661636352539,2.4863784313201904,-0.2124125063419342,0.0819837749004364,0.119781494140625
2351230543437,1.3515268564224243,-10.018537521362305,2.4420857429504395,-0.2150743305683136,0.07666015625,0.1267022043466568
2351231780625,1.335964560508728,-10.008960723876953,2.4468741416931152,-0.2211964875459671,0.0798543319106102,0.1243065744638443
2351233017800,1.2832921743392944,-10.001777648925781,2.431311845779419,-0.2275848388671875,0.0734659805893898,0.1261698454618454
2351234255012,1.2832921743392944,-9.983820915222168,2.426523447036743,-0.2379658967256546,0.071336530148983,0.1290978342294693
2351235492200,1.2509703636169434,-9.952696800231934,2.3942017555236816,-0.2411600649356842,0.0684085413813591,0.1381479948759079
2351236729387,1.256955862045288,-9.927556991577148,2.3786394596099854,-0.2456851452589035,0.0601569265127182,0.1394788920879364
2351237966562,1.2449848651885986,-9.923966407775879,2.404975652694702,-0.2531382143497467,0.057228934019804,0.1386803537607193
2351239203750,1.238999366760254,-9.852140426635742,2.3750481605529785,-0.261389821767807,0.0516391322016716,0.1416083425283432
2351240440937,1.2030863761901855,-9.770737648010254,2.3762452602386475,-0.263519287109375,0.0425889752805233,0.1482628732919693
2351241678137,1.2066776752471924,-9.707290649414062,2.3582887649536133,-0.2699076235294342,0.0412580706179142,0.1469319611787796
2351242915312,1.1899182796478271,-9.601945877075195,2.3798365592956543,-0.2723032534122467,0.0404595248401165,0.1495937705039978
2351244152500,1.2497732639312744,-9.446322441101074,2.388216257095337,-0.2752312421798706,0.0343373604118824,0.1495937705039978
2351245389675,1.2258312702178955,-9.398438453674316,2.319981575012207,-0.2789577841758728,0.0319417305290699,0.1490614116191864
2351246626862,1.2270283699035645,-9.314641952514648,2.341529369354248,-0.2773607075214386,0.02661811001598835,0.147464320063591
2351247864062,1.2078747749328613,-9.222464561462402,2.360682964324951,-0.2752312421798706,0.0263519287109375,0.1477305144071579
2351249101237,1.2557587623596191,-9.137471199035645,2.322375774383545,-0.2794901430606842,0.02129448764026165,0.1471981406211853
2351250338437,1.2653355598449707,-9.082404136657715,2.276885747909546,-0.2728356122970581,0.013042873702943325,0.1445363312959671
2351251575625,1.259350061416626,-8.989029884338379,2.251746654510498,-0.2659149169921875,0.008783976547420025,0.1479966938495636
2351252812787,1.2042834758758545,-8.89685344696045,2.2804770469665527,-0.266181081533432,0.0071868896484375,0.1453348845243454
2351254050000,1.215057373046875,-8.857349395751953,2.2601263523101807,-0.263519287109375,-0.0018632676219567657,0.1466657817363739
2351255287175,1.1899182796478271,-8.754398345947266,2.27209734916687,-0.2600589394569397,-0.0042588976211845875,0.1453348845243454
2351256524375,1.136048674583435,-8.652645111083984,2.2206220626831055,-0.2579294741153717,-0.0039927163161337376,0.1354861706495285
2351257761550,1.139639973640442,-8.701725959777832,2.229001760482788,-0.2573971152305603,-0.010381062515079975,0.1285654753446579
2351258998737,1.1061211824417114,-8.645462036132812,2.1966800689697266,-0.253936767578125,-0.0191650390625,0.1256374716758728
2351260235925,1.0989385843276978,-8.598775863647461,2.251746654510498,-0.2438218891620636,-0.01756795309484005,0.1219109445810318
2351261473125,1.0869675874710083,-8.513781547546387,2.274491548538208,-0.2345055490732193,-0.0186326764523983,0.1160549595952034
2351262710300,1.0785878896713257,-8.491036415100098,2.2625205516815186,-0.2278510183095932,-0.02848137728869915,0.1136593297123909
2351263947487,1.0055646896362305,-8.450334548950195,2.2194249629974365,-0.2254553884267807,-0.0346035435795784,0.1080695241689682
2351265184675,1.0223240852355957,-8.434772491455078,2.2397756576538086,-0.2124125063419342,-0.0362006276845932,0.104875348508358
2351266421850,0.9852139949798584,-8.432378768920898,2.2888567447662354,-0.20123291015625,-0.0399271659553051,0.095292828977108
2351267659050,1.0019733905792236,-8.398859977722168,2.251746654510498,-0.1937798410654068,-0.0436537005007267,0.0873074010014534
2351268896225,1.0414777994155884,-8.377311706542969,2.2194249629974365,-0.1900532990694046,-0.0452507846057415,0.0833146795630455
2351270133450,0.9971849918365479,-8.331822395324707,2.206256866455078,-0.1831325888633728,-0.0489773228764534,0.0790557861328125
2351271370625,1.0091559886932373,-8.35456657409668,2.1799206733703613,-0.176211878657341,-0.0532362200319767,0.0686747208237648
2351272607787,1.049857497215271,-8.315062522888184,2.230198860168457,-0.1613057404756546,-0.0580274797976017,0.066545270383358
2351273844987,1.0247182846069336,-8.35097599029541,2.2373814582824707,-0.1533203125,-0.0564303919672966,0.0617540143430233
2351275082162,1.072602391242981,-8.334216117858887,2.2026655673980713,-0.147464320063591,-0.0577612966299057,0.0574951171875
2351276319362,1.0330979824066162,-8.38808536529541,2.2146365642547607,-0.1394788920879364,-0.062020193785429,0.0489773228764534
2351277556550,1.05105459690094,-8.402450561523438,2.2421698570251465,-0.1298963725566864,-0.06707763671875,0.043121337890625
2351278793750,1.0462661981582642,-8.471882820129395,2.22660756111145,-0.1213785782456398,-0.0649481862783432,0.0367329902946949
2351280030912,0.9995791912078857,-8.486248016357422,2.2661118507385254,-0.1141916885972023,-0.0673438161611557,0.02661811001598835
2351281268112,1.0067617893218994,-8.538920402526855,2.273294448852539,-0.1064724400639534,-0.0710703507065773,0.02555338479578495
2351282505275,0.9911994934082031,-8.647856712341309,2.273294448852539,-0.0992855504155159,-0.0729336217045784,0.01943122036755085
2351283742475,0.9983820915222168,-8.665813446044922,2.3127989768981934,-0.0859764963388443,-0.071868896484375,0.014906140975654125
2351284979675,0.9445126056671143,-8.724471092224121,2.3511061668395996,-0.0803866907954216,-0.0705379918217659,0.01224433071911335
2351286216850,0.9145850539207458,-8.741230010986328,2.343923568725586,-0.0790557861328125,-0.0769263356924057,0.01171196810901165
2351287454025,0.9409212470054626,-8.759186744689941,2.321178674697876,-0.0641496405005455,-0.0851779505610466,0.0031941730994731188
2351288691225,0.93254154920578,-8.83819580078125,2.4013843536376953,-0.0580274797976017,-0.081451416015625,-0.0007985432748682797
2351289928425,0.9385270476341248,-8.888473510742188,2.369062662124634,-0.052437674254179,-0.0833146795630455,-0.0023956298828125
2351291165600,0.9756371974945068,-8.937555313110352,2.3798365592956543,-0.0516391322016716,-0.0897030308842659,0.0002661811013240367
2351292402800,0.9469068050384521,-8.990227699279785,2.3714568614959717,-0.0468478724360466,-0.0867750346660614,-0.008251613937318325
2351293639987,0.9457097053527832,-9.01776123046875,2.3942017555236816,-0.0388624407351017,-0.0881059393286705,-0.0090501569211483
2351294877162,0.9864110946655273,-9.041703224182129,2.403778553009033,-0.0388624407351017,-0.0907677561044693,-0.008251613937318325
2351296114350,0.9516952037811279,-9.089587211608887,2.4145524501800537,-0.0393948033452034,-0.0867750346660614,-0.0053236219100654125
2351297351537,0.9672574996948242,-9.113529205322266,2.4205379486083984,-0.0351359061896801,-0.0854441300034523,-0.0090501569211483
2351298588712,0.9816226959228516,-9.159018516540527,2.3762452602386475,-0.02981228195130825,-0.090501569211483,-0.010913425125181675
2351299825900,0.9409212470054626,-9.20091724395752,2.4576480388641357,-0.02661811001598835,-0.0918324738740921,-0.01224433071911335
2351301063100,0.9660604000091553,-9.252392768859863,2.448071241378784,-0.02848137728869915,-0.0875735804438591,-0.010114881210029125
2351302300275,0.9421183466911316,-9.249998092651367,2.45285964012146,-0.0252872034907341,-0.0899692103266716,-0.01650322787463665
2351303537475,0.9050082564353943,-9.32541561126709,2.4396915435791016,-0.02901373989880085,-0.08624267578125,-0.0181003138422966
2351304774650,0.8798691034317017,-9.367314338684082,2.4863784313201904,-0.02848137728869915,-0.0907677561044693,-0.014906140975654125
2351306011850,0.8906430602073669,-9.405621528625488,2.4576480388641357,-0.0271504707634449,-0.0891706645488739,-0.010647243820130825
2351307249025,0.9050082564353943,-9.431957244873047,2.4887726306915283,-0.0282151959836483,-0.0835808664560318,-0.01703559048473835
2351308486225,0.8271967172622681,-9.421183586120605,2.5318682193756104,-0.0338049978017807,-0.0793219655752182,-0.0191650390625
2351309723400,0.8164227604866028,-9.466673851013184,2.515108823776245,-0.033272635191679,-0.0745307058095932,-0.02076212503015995
2351310960600,0.7829039692878723,-9.53969669342041,2.516305923461914,-0.0268842913210392,-0.080919049680233,-0.0181003138422966
2351312197762,0.7601590752601624,-9.555258750915527,2.5091233253479004,-0.0330064557492733,-0.080919049680233,-0.01703559048473835
2351313434975,0.7960720658302307,-9.607931137084961,2.4791958332061768,-0.0367329902946949,-0.076127789914608,-0.02422248013317585
2351314672162,0.7972691655158997,-9.623494148254395,2.4899697303771973,-0.0327402763068676,-0.0729336217045784,-0.0311431884765625
2351315909337,0.7829039692878723,-9.677363395690918,2.539050817489624,-0.0330064557492733,-0.071336530148983,-0.0247548408806324
2351317146525,0.7601590752601624,-9.71926212310791,2.492363929748535,-0.0330064557492733,-0.0684085413813591,-0.02901373989880085
2351318383712,0.7793126702308655,-9.77672290802002,2.428917646408081,-0.0330064557492733,-0.0646820068359375,-0.0306108258664608
2351319620887,0.8271967172622681,-9.781511306762695,2.433706045150757,-0.0351359061896801,-0.0582936592400074,-0.03034464456140995
2351320858075,0.8068459630012512,-9.841365814208984,2.494758129119873,-0.0393948033452034,-0.0612216517329216,-0.038063894957304
2351322095262,0.812831461429596,-9.915586471557617,2.450465440750122,-0.0457831472158432,-0.062020193785429,-0.0404595248401165
2351323332475,0.8355764150619507,-9.980230331420898,2.434903144836426,-0.0340711809694767,-0.0556318499147892,-0.033538818359375
2351324569637,0.8451532125473022,-9.981427192687988,2.448071241378784,-0.0377977155148983,-0.0537685826420784,-0.043121337890625
2351325806837,0.8475474119186401,-10.053253173828125,2.4241292476654053,-0.0415242500603199,-0.0497758649289608,-0.0457831472158432
2351327044037,0.8547300100326538,-10.074800491333008,2.455253839492798,-0.0468478724360466,-0.0495096817612648,-0.0420566126704216
2351328281225,0.889445960521698,-10.096348762512207,2.494758129119873,-0.0417904332280159,-0.0433875173330307,-0.0412580706179142
2351329518412,0.888248860836029,-10.11430549621582,2.4863784313201904,-0.0452507846057415,-0.0415242500603199,-0.0425889752805233
2351330755587,0.912190854549408,-10.119093894958496,2.5546133518218994,-0.0540347620844841,-0.038063894957304,-0.0473802350461483
2351331992775,0.8798691034317017,-10.134655952453613,2.542642116546631,-0.052437674254179,-0.0372653529047966,-0.0444522425532341
2351333229937,0.9588778018951416,-10.113107681274414,2.5546133518218994,-0.0519053116440773,-0.0340711809694767,-0.0439198799431324
2351334467137,0.9684545993804932,-10.070012092590332,2.561795949935913,-0.0521714948117733,-0.0340711809694767,-0.0439198799431324
2351335704337,0.9888052940368652,-10.071209907531738,2.603694438934326,-0.0577612966299057,-0.0300784632563591,-0.0497758649289608
2351336941537,0.9959878921508789,-10.078392028808594,2.626439332962036,-0.0588260218501091,-0.0340711809694767,-0.052437674254179
2351338178687,0.9756371974945068,-10.028114318847656,2.652775526046753,-0.0593583844602108,-0.0295461006462574,-0.0505744069814682
2351339415900,0.9469068050384521,-9.977835655212402,2.6384103298187256,-0.0633511021733284,-0.0322079136967659,-0.0471140518784523
2351340653075,0.9816226959228516,-9.99220085144043,2.6575639247894287,-0.062020193785429,-0.0271504707634449,-0.0460493303835392
2351341890262,1.0019733905792236,-10.020931243896484,2.650381326675415,-0.062286376953125,-0.02369011752307415,-0.0417904332280159
2351343127450,0.9229647517204285,-10.016142845153809,2.6132712364196777,-0.0649481862783432,-0.02022976242005825,-0.0439198799431324
2351344364650,0.8978256583213806,-10.070012092590332,2.655169725418091,-0.0649481862783432,-0.014906140975654125,-0.0436537005007267
2351345601825,0.9181763529777527,-10.067618370056152,2.6180596351623535,-0.0644158273935318,-0.0210283063352108,-0.0457831472158432
2351346839025,0.8846575617790222,-10.090363502502441,2.625242233276367,-0.0617540143430233,-0.0191650390625,-0.0404595248401165
2351348076187,0.9229647517204285,-10.129867553710938,2.561795949935913,-0.0654805526137352,-0.0157046839594841,-0.0346035435795784
2351349313375,0.8822633624076843,-10.131064414978027,2.584540843963623,-0.0678761824965477,-0.01597086526453495,-0.03087700717151165
2351350550562,0.9050082564353943,-10.134655952453613,2.585737943649292,-0.0763939768075943,-0.0138414166867733,-0.0324740931391716
2351351787762,0.9097966551780701,-10.129867553710938,2.516305923461914,-0.0777248814702034,-0.010114881210029125,-0.02262539230287075
2351353024937,0.9229647517204285,-10.128670692443848,2.522291421890259,-0.0785234197974205,-0.007453070487827063,-0.0167694091796875
2351354262125,0.9265560507774353,-10.133459091186523,2.5091233253479004,-0.0819837749004364,0.0002661811013240367,-0.0114457868039608
2351355499312,0.9768342971801758,-10.08198356628418,2.539050817489624,-0.0817175954580307,0.0023956298828125,-0.010913425125181675
2351356736512,1.0211269855499268,-10.046070098876953,2.5294740200042725,-0.0881059393286705,0.008783976547420025,-0.007453070487827063
2351357973700,1.0378865003585815,-9.99100399017334,2.5103204250335693,-0.0891706645488739,0.01224433071911335,-0.0018632676219567657
2351359210875,1.0414777994155884,-9.945513725280762,2.541445016860962,-0.0881059393286705,0.010381062515079975,-0.0010647244052961469
2351360448075,1.0797849893569946,-9.90241813659668,2.5330653190612793,-0.0923648402094841,0.010647243820130825,0.0042588976211845875
2351361685262,1.0785878896713257,-9.860519409179688,2.607285737991333,-0.0915662944316864,0.00984870083630085,0.0077192517928779125
2351362922437,1.1324573755264282,-9.787496566772461,2.583343744277954,-0.0891706645488739,0.0162370465695858,0.015438503585755825
2351364159625,1.1611878871917725,-9.737218856811523,2.626439332962036,-0.0918324738740921,0.0210283063352108,0.0162370465695858
2351365396812,1.1228805780410767,-9.66419506072998,2.6240451335906982,-0.0966237336397171,0.0220930315554142,0.0173017717897892
2351366634000,1.071405291557312,-9.605537414550781,2.63362193107605,-0.0950266495347023,0.0295461006462574,0.01836649514734745
2351367871187,1.0833762884140015,-9.570821762084961,2.653972625732422,-0.0944942906498909,0.0324740931391716,0.02022976242005825
2351369108375,1.1025298833847046,-9.53849983215332,2.652775526046753,-0.0934295654296875,0.0314093679189682,0.0252872034907341
2351370345575,1.0690110921859741,-9.4822359085083,2.6216509342193604,-0.0960913747549057,0.033272635191679,0.013309055007994175
2351371582737,1.0905588865280151,-9.45111083984375,2.607285737991333,-0.0928971990942955,0.0367329902946949,0.01650322787463665
2351372819937,1.0534487962722778,-9.437943458557129,2.5785553455352783,-0.0902353897690773,0.02981228195130825,0.01996358297765255
2351374057112,1.0666168928146362,-9.439140319824219,2.5582046508789062,-0.0939619243144989,0.0367329902946949,0.0271504707634449
2351375294300,1.0271124839782715,-9.473855972290039,2.5522189140319824,-0.0915662944316864,0.0327402763068676,0.0343373604118824
2351376531512,1.0019733905792236,-9.50617790222168,2.5091233253479004,-0.0875735804438591,0.0354020856320858,0.0271504707634449
2351377768700,0.9792284965515137,-9.531316757202148,2.450465440750122,-0.091033935546875,0.0391286201775074,0.0258195661008358
2351379005875,0.9516952037811279,-9.554061889648438,2.403778553009033,-0.0918324738740921,0.0369991734623909,0.0306108258664608
2351380243062,0.9349357485771179,-9.647436141967773,2.389413356781006,-0.0881059393286705,0.0385962575674057,0.0324740931391716
2351381480250,0.9804255962371826,-9.676166534423828,2.43011474609375,-0.0902353897690773,0.0388624407351017,0.0330064557492733
2351382717425,0.9971849918365479,-9.72285270690918,2.3582887649536133,-0.0894368439912796,0.0404595248401165,0.0354020856320858
2351383954612,0.9720458984375,-9.770737648010254,2.38462495803833,-0.0870412141084671,0.0407257080078125,0.0425889752805233
2351385191812,1.015141487121582,-9.80904483795166,2.3750481605529785,-0.0897030308842659,0.0452507846057415,0.0457831472158432
2351386429000,0.9911994934082031,-9.830592155456543,2.343923568725586,-0.0913001149892807,0.0391286201775074,0.0516391322016716
2351387666162,0.9923965930938721,-9.923966407775879,2.3499090671539307,-0.0907677561044693,0.0473802350461483,0.0574951171875
2351388903375,1.0235211849212646,-9.982624053955078,2.3942017555236816,-0.0958251953125,0.0508405901491642,0.062286376953125
2351390140562,1.0091559886932373,-10.017339706420898,2.3918075561523438,-0.1046091690659523,0.0465816929936409,0.0641496405005455
2351391377750,1.0115501880645752,-10.050858497619629,2.434903144836426,-0.1070047989487648,0.0508405901491642,0.0697394460439682
2351392614925,1.0031704902648926,-10.092757225036621,2.4193408489227295,-0.1091342493891716,0.0532362200319767,0.0790557861328125
2351393852100,0.973242998123169,-10.163386344909668,2.4193408489227295,-0.1131269633769989,0.0489773228764534,0.0875735804438591
2351395089300,1.0031704902648926,-10.101137161254883,2.428917646408081,-0.114990234375,0.0550994873046875,0.0886383056640625
2351396326487,0.9720458984375,-10.168174743652344,2.474407434463501,-0.1205800324678421,0.0556318499147892,0.095292828977108
2351397563687,1.016338586807251,-10.163386344909668,2.49834942817688,-0.1272345632314682,0.0558980293571949,0.1030120849609375
2351398800862,1.0019733905792236,-10.195708274841309,2.4863784313201904,-0.1381479948759079,0.0545671246945858,0.110198974609375
2351400038037,1.0007762908935547,-10.17296314239502,2.4600422382354736,-0.1453348845243454,0.0577612966299057,0.1163211390376091
2351401275237,0.9900023937225342,-10.187328338623047,2.4660277366638184,-0.1458672434091568,0.0574951171875,0.1229756623506546
2351402512412,1.0462661981582642,-10.180145263671875,2.4815900325775146,-0.1519894003868103,0.0617540143430233,0.1253712922334671
2351403749600,1.049857497215271,-10.17416000366211,2.4588451385498047,-0.1613057404756546,0.0641496405005455,0.1248389333486557
2351404986800,1.0354923009872437,-10.140641212463379,2.472013235092163,-0.1730177104473114,0.06707763671875,0.1376156210899353
2351406224000,1.048660397529602,-10.109517097473145,2.4456770420074463,-0.1730177104473114,0.06707763671875,0.1440039724111557
2351407461162,1.071405291557312,-10.066421508789062,2.3762452602386475,-0.1818016916513443,0.0636172816157341,0.1471981406211853
2351408698362,1.0857704877853394,-9.987412452697754,2.3965959548950195,-0.191650390625,0.0625525563955307,0.1450686901807785
2351409935537,1.0654197931289673,-9.965864181518555,2.3774423599243164,-0.1975063681602478,0.0630849227309227,0.1490614116191864
2351411172737,1.0977414846420288,-9.86650562286377,2.3307554721832275,-0.2044270783662796,0.0657467320561409,0.1501261442899704
2351412409912,1.1025298833847046,-9.731232643127441,2.3762452602386475,-0.2092183381319046,0.06707763671875,0.1525217741727829
2351413647100,1.070208191871643,-9.6618013381958,2.3499090671539307,-0.2113477885723114,0.0681423619389534,0.1519894003868103
2351414884275,1.1192892789840698,-9.509769439697266,2.343923568725586,-0.224124476313591,0.0668114572763443,0.1511908620595932
2351416121487,1.07379949092865,-9.425971984863281,2.3367409706115723,-0.2217288464307785,0.062020193785429,0.1527879536151886
2351417358675,1.0654197931289673,-9.270349502563477,2.360682964324951,-0.2166714072227478,0.0604231096804142,0.1530541330575943
2351418595862,1.0821791887283325,-9.132682800292969,2.340332269668579,-0.219333216547966,0.0598907470703125,0.1495937705039978
2351419833050,1.0845733880996704,-9.024943351745605,2.3738510608673096,-0.225189208984375,0.0545671246945858,0.1434716135263443
2351421070237,1.0773907899856567,-8.866926193237305,2.323572874069214,-0.2235921174287796,0.0487111397087574,0.1442701518535614
2351422307412,1.0558429956436157,-8.771158218383789,2.300827741622925,-0.2118801474571228,0.0484449602663517,0.1392127126455307
2351423544600,1.0414777994155884,-8.7268648147583,2.2864625453948975,-0.2092183381319046,0.0447184219956398,0.1336229145526886
2351424781775,1.0067617893218994,-8.655038833618164,2.273294448852539,-0.2108154296875,0.042855154722929,0.1317596435546875
2351426018975,0.9852139949798584,-8.562862396240234,2.1990742683410645,-0.1975063681602478,0.042855154722929,0.1232418492436409
2351427256162,0.9792284965515137,-8.530540466308594,2.1739351749420166,-0.1889885812997818,0.043121337890625,0.1208462193608284
2351428493350,0.9600749015808105,-8.526949882507324,2.12485408782959,-0.1897871196269989,0.0409918874502182,0.1195153146982193
2351429730550,0.9217676520347595,-8.576030731201172,2.121262788772583,-0.1823340505361557,0.0354020856320858,0.1155225932598114
2351430967725,0.8822633624076843,-8.570045471191406,2.1344308853149414,-0.1674279123544693,0.02901373989880085,0.1136593297123909
2351432204900,0.8786720037460327,-8.592789649963379,2.0458452701568604,-0.161838099360466,0.0306108258664608,0.1043429896235466
2351433442112,0.8355764150619507,-8.683769226074219,2.0673930644989014,-0.158111572265625,0.03034464456140995,0.0995517298579216
2351434679300,0.8259996175765991,-8.724471092224121,2.0195090770721436,-0.1490614116191864,0.02874755859375,0.0984870046377182
2351435916450,0.8678981065750122,-8.765172958374023,2.027888774871826,-0.1394788920879364,0.0276828333735466,0.0926310196518898
2351437153662,0.8631097078323364,-8.774749755859375,1.9955670833587646,-0.137881800532341,0.0311431884765625,0.090501569211483
2351438390837,0.8200140595436096,-8.848969459533691,2.0242974758148193,-0.1325581818819046,0.0338049978017807,0.091033935546875
2351439628037,0.8319851160049438,-8.942343711853027,2.0374655723571777,-0.1248389333486557,0.0268842913210392,0.0886383056640625
2351440865237,0.851138710975647,-8.953117370605469,2.0661959648132324,-0.1216447576880455,0.02502102218568325,0.08624267578125
2351442102412,0.8678981065750122,-9.034520149230957,2.0673930644989014,-0.1168534979224205,0.0223592109978199,0.0838470458984375
2351443339600,0.872686505317688,-9.071630477905273,2.1272482872009277,-0.1086018830537796,0.0191650390625,0.0798543319106102
2351444576775,0.8942343592643738,-9.07522201538086,2.100912094116211,-0.1062062531709671,0.01889885775744915,0.0785234197974205
2351445813975,0.8846575617790222,-9.107542991638184,2.1320366859436035,-0.1032782644033432,0.02182685025036335,0.0793219655752182
2351447051137,0.9050082564353943,-9.127894401550293,2.146401882171631,-0.1016811802983284,0.0196974016726017,0.071868896484375
2351448288337,0.889445960521698,-9.186552047729492,2.1320366859436035,-0.0982208251953125,0.0162370465695858,0.0702718123793602
2351449525525,0.8942343592643738,-9.209297180175781,2.2170307636260986,-0.0958251953125,0.014373779296875,0.0694732666015625
2351450762725,0.8990227580070496,-9.19972038269043,2.188300371170044,-0.0928971990942955,0.0167694091796875,0.0676099956035614
2351451999925,0.9265560507774353,-9.254786491394043,2.252943754196167,-0.0920986607670784,0.012510511092841625,0.0668114572763443
2351453237087,0.8906430602073669,-9.277531623840332,2.2433669567108154,-0.0913001149892807,0.010913425125181675,0.0700056254863739
2351454474287,0.9002198576927185,-9.355342864990234,2.2409727573394775,-0.0894368439912796,0.010114881210029125,0.0654805526137352
2351455711462,0.8762778043746948,-9.351752281188965,2.273294448852539,-0.0875735804438591,0.00931633822619915,0.0609554722905159
2351456948662,0.8918401598930359,-9.384073257446289,2.2649147510528564,-0.0870412141084671,0.008251613937318325,0.0582936592400074
2351458185862,0.889445960521698,-9.408015251159668,2.2469582557678223,-0.0865088552236557,0.0077192517928779125,0.0596245639026165
2351459423037,0.8846575617790222,-9.409213066101074,2.2828712463378906,-0.0846455842256546,0.0077192517928779125,0.0617540143430233
2351460660225,0.8834604620933533,-9.428366661071777,2.251746654510498,-0.081451416015625,-0.0007985432748682797,0.062020193785429
2351461897412,0.8655039072036743,-9.405621528625488,2.255337953567505,-0.0819837749004364,0.0021294488105922937,0.052703857421875
2351463134587,0.9074024558067322,-9.376891136169434,2.2673089504241943,-0.0787896066904068,0.00452507846057415,0.0439198799431324
2351464371775,0.8918401598930359,-9.35893440246582,2.2457611560821533,-0.0777248814702034,0.0015970865497365594,0.0441860631108284
2351465608975,0.871489405632019,-9.386467933654785,2.248155355453491,-0.071868896484375,-0.008251613937318325,0.0481787770986557
2351466846162,0.8259996175765991,-9.373299598693848,2.231395959854126,-0.0700056254863739,-0.008517795242369175,0.0393948033452034
2351468083337,0.8403648138046265,-9.343372344970703,2.2445640563964844,-0.0739983469247818,-0.0063883461989462376,0.0412580706179142
2351469320537,0.8403648138046265,-9.315838813781738,2.27209734916687,-0.0684085413813591,-0.00984870083630085,0.0441860631108284
