timestamp_ns,accel_x,accel_y,accel_z,gyro_x,gyro_y,gyro_z
18290344061875,-0.9193734526634216,-9.847352027893066,0.17956513166427612,-0.008517795242369175,-0.0173017717897892,-0.0005323622026480734
18290345299212,-0.9050082564353943,-9.819818496704102,0.17717093229293823,-0.008517795242369175,-0.0181003138422966,-0.005589802749454975
18290346536525,-0.8990227580070496,-9.795876502990723,0.15562310814857483,-0.012776692397892475,-0.015438503585755825,0.0029279920272529125
18290347773837,-0.9193734526634216,-9.816226959228516,0.1951274424791336,-0.014373779296875,-0.01703559048473835,0.0029279920272529125
18290349011137,-0.9133879542350769,-9.818621635437012,0.17836803197860718,-0.0186326764523983,-0.0119781494140625,-0.0021294488105922937
18290350248487,-0.8738836050033569,-9.836577415466309,0.15682020783424377,-0.012776692397892475,-0.00984870083630085,0.0
18290351485787,-0.9038111567497253,-9.813833236694336,0.22744916379451752,-0.0138414166867733,-0.015438503585755825,-0.0013309054775163531
18290352723100,-0.9181763529777527,-9.84495735168457,0.17477671802043915,-0.0173017717897892,-0.014373779296875,-0.0023956298828125
18290353960412,-0.8990227580070496,-9.800664901733398,0.20709845423698425,-0.01463996060192585,-0.0114457868039608,-0.0029279920272529125
18290355197750,-0.9062053561210632,-9.803058624267578,0.1975216418504715,-0.01783413253724575,-0.008251613937318325,-0.0066545275039970875
18290356435062,-0.9349357485771179,-9.828198432922363,0.17717093229293823,-0.01703559048473835,-0.013309055007994175,0.0
18290357672375,-0.9253589510917664,-9.797073364257812,0.14245499670505524,-0.01650322787463665,-0.013309055007994175,0.0013309054775163531
18290358909700,-0.8906430602073669,-9.835380554199219,0.16998831927776337,-0.01756795309484005,-0.0090501569211483,-0.0021294488105922937
18290360147025,-0.9050082564353943,-9.84615421295166,0.20231004059314728,-0.0210283063352108,-0.007985432632267475,-0.0015970865497365594
18290361384350,-0.910993754863739,-9.807847023010254,0.1496376097202301,-0.0167694091796875,-0.00958251953125,0.0005323622026480734
18290362621675,-0.8547300100326538,-9.822212219238281,0.14844051003456116,-0.0196974016726017,-0.007985432632267475,-0.0053236219100654125
18290363858975,-0.871489405632019,-9.771934509277344,0.13766659796237946,-0.02129448764026165,-0.00984870083630085,-0.010114881210029125
18290365096300,-0.9181763529777527,-9.793481826782227,0.09576807171106339,-0.01943122036755085,-0.007453070487827063,-0.00692070834338665
18290366333625,-0.8918401598930359,-9.798270225524902,0.12210428714752197,-0.0191650390625,-0.007453070487827063,-0.0031941730994731188
18290367570937,-0.93254154920578,-9.783905029296875,0.17956513166427612,-0.0186326764523983,-0.0114457868039608,0.0
18290368808237,-0.8954314589500427,-9.767146110534668,0.17238251864910126,-0.02022976242005825,-0.007985432632267475,-0.0023956298828125
18290370045562,-0.8942343592643738,-9.764751434326172,0.1388636976480484,-0.02129448764026165,-0.0029279920272529125,-0.007985432632267475
18290371282875,-0.9169792532920837,-9.774328231811523,0.14604631066322327,-0.01943122036755085,-0.008517795242369175,-0.0053236219100654125
18290372520212,-0.8918401598930359,-9.822212219238281,0.1412578970193863,-0.0191650390625,-0.0066545275039970875,-0.0053236219100654125
18290373757537,-0.8643068075180054,-9.782708168029785,0.1364694982767105,-0.01889885775744915,-0.005855984054505825,-0.00692070834338665
18290374994837,-0.8930372595787048,-9.747992515563965,0.15322890877723694,-0.0234239362180233,-0.00692070834338665,-0.0010647244052961469
18290376232150,-0.8858546614646912,-9.789891242980957,0.16879121959209442,-0.02608574740588665,-0.0021294488105922937,-0.00452507846057415
18290377469487,-0.8870517611503601,-9.783905029296875,0.152031809091568,-0.0204959437251091,-0.0031941730994731188,-0.0066545275039970875
18290378706800,-0.8702923059463501,-9.81143856048584,0.1412578970193863,-0.02608574740588665,-0.0013309054775163531,-0.0037265352439135313
18290379944112,-0.8870517611503601,-9.77552604675293,0.18914192914962769,-0.02502102218568325,0.0,-0.0053236219100654125
18290381181450,-0.8678981065750122,-9.749189376831055,0.09457096457481384,-0.02661811001598835,-0.0037265352439135313,-0.005589802749454975
18290382418750,-0.8547300100326538,-9.801861763000488,0.10893617570400238,-0.02661811001598835,-0.0071868896484375,0.0010647244052961469
18290383656062,-0.8595184087753296,-9.81263542175293,0.11851298809051514,-0.02315775491297245,-0.0066545275039970875,0.0018632676219567657
18290384893400,-0.8535329103469849,-9.747992515563965,0.11971008777618408,-0.02315775491297245,-0.004791259765625,-0.0037265352439135313
18290386130725,-0.8463503122329712,-9.785102844238281,0.1280897855758667,-0.02369011752307415,-0.0037265352439135313,-0.0042588976211845875
18290387368050,-0.8343793153762817,-9.797073364257812,0.12330138683319092,-0.02502102218568325,-0.005589802749454975,-0.0013309054775163531
18290388605350,-0.8439561128616333,-9.768342971801758,0.11971008777618408,-0.0223592109978199,-0.0005323622026480734,-0.004791259765625
18290389842662,-0.8176198601722717,-9.7791166305542,0.10654197633266449,-0.02315775491297245,-0.0026618109550327063,-0.0015970865497365594
18290391080000,-0.8523358106613159,-9.767146110534668,0.11971008777618408,-0.0220930315554142,-0.004791259765625,-0.0037265352439135313
18290392317300,-0.8403648138046265,-9.75517463684082,0.1364694982767105,-0.02848137728869915,-0.003460354171693325,-0.0037265352439135313
18290393554625,-0.8607155084609985,-9.7420072555542,0.11252748221158981,-0.0268842913210392,-0.0053236219100654125,0.0013309054775163531
18290394791962,-0.8667010068893433,-9.759963035583496,0.10295067727565765,-0.02262539230287075,-0.005589802749454975,0.005057440605014563
18290396029262,-0.8559271097183228,-9.769539833068848,0.1867477297782898,-0.02555338479578495,-0.0029279920272529125,0.0005323622026480734
18290397266587,-0.8643068075180054,-9.750386238098145,0.13407529890537262,-0.02608574740588665,-0.0013309054775163531,-0.0042588976211845875
18290398503887,-0.8750807046890259,-9.744400978088379,0.14844051003456116,-0.0210283063352108,-0.005589802749454975,-0.0013309054775163531
18290399741225,-0.8786720037460327,-9.713275909423828,0.11372458189725876,-0.0196974016726017,-0.0037265352439135313,-0.0018632676219567657
18290400978537,-0.871489405632019,-9.720458984375,0.12689268589019775,-0.02022976242005825,-0.0053236219100654125,-0.0015970865497365594
18290402215825,-0.871489405632019,-9.747992515563965,0.0694318488240242,-0.0173017717897892,-0.0023956298828125,-0.0015970865497365594
18290403453175,-0.8667010068893433,-9.786299705505371,0.07781155407428741,-0.0215606689453125,-0.0042588976211845875,-0.0037265352439135313
18290404690500,-0.8619126081466675,-9.733627319335938,0.1280897855758667,-0.0191650390625,-0.0071868896484375,0.0015970865497365594
18290405927812,-0.8403648138046265,-9.701305389404297,0.11971008777618408,-0.0191650390625,-0.003460354171693325,0.0039927163161337376
18290407165125,-0.8008604645729065,-9.745597839355469,0.13168109953403473,-0.0234239362180233,-0.0026618109550327063,0.004791259765625
18290408402450,-0.7817068696022034,-9.747992515563965,0.13527239859104156,-0.014906140975654125,-0.0037265352439135313,0.0066545275039970875
18290409639775,-0.8008604645729065,-9.75517463684082,0.14365209639072418,-0.015438503585755825,-0.008517795242369175,0.0063883461989462376
18290410877087,-0.8188169598579407,-9.746795654296875,0.12689268589019775,-0.01650322787463665,-0.008517795242369175,0.005855984054505825
18290412114400,-0.8020575642585754,-9.740809440612793,0.14844051003456116,-0.0223592109978199,-0.0026618109550327063,0.0026618109550327063
18290413351725,-0.8810662031173706,-9.734824180603027,0.1735796183347702,-0.0167694091796875,-0.005057440605014563,0.0015970865497365594
18290414589037,-0.8355764150619507,-9.75517463684082,0.12689268589019775,-0.02129448764026165,-0.0053236219100654125,0.0015970865497365594
18290415826362,-0.8319851160049438,-9.786299705505371,0.09816227108240128,-0.0191650390625,-0.004791259765625,0.0007985432748682797
18290417063675,-0.8535329103469849,-9.75517463684082,0.11611878126859665,-0.012510511092841625,-0.007453070487827063,0.0018632676219567657
18290418301000,-0.8559271097183228,-9.72165584564209,0.15442600846290588,-0.013042873702943325,-0.0063883461989462376,-0.0013309054775163531
18290419538312,-0.8427590131759644,-9.733627319335938,0.12210428714752197,-0.01703559048473835,-0.0042588976211845875,0.0015970865497365594
18290420775637,-0.8224083185195923,-9.767146110534668,0.1364694982767105,-0.015438503585755825,-0.005589802749454975,0.0042588976211845875
18290422012950,-0.8212112188339233,-9.749189376831055,0.1173158809542656,-0.0186326764523983,-0.008517795242369175,0.005589802749454975
18290423250287,-0.8439561128616333,-9.728838920593262,0.10175357013940811,-0.015172322280704975,-0.0191650390625,0.005057440605014563
18290424487575,-0.8176198601722717,-9.77552604675293,0.09576807171106339,-0.010381062515079975,-0.012510511092841625,0.0023956298828125
18290425724925,-0.8523358106613159,-9.765949249267578,0.09217676520347595,-0.01117960549890995,-0.005855984054505825,-0.0002661811013240367
18290426962225,-0.8343793153762817,-9.758766174316406,0.1149216815829277,-0.012510511092841625,-0.0077192517928779125,0.0066545275039970875
18290428199550,-0.8248025178909302,-9.75278091430664,0.10773907601833344,-0.015172322280704975,-0.00958251953125,0.00984870083630085
18290429436875,-0.8080430626869202,-9.730035781860352,0.10534487664699554,-0.01410759799182415,-0.005855984054505825,0.0013309054775163531
18290430674175,-0.8152256608009338,-9.732430458068848,0.12928690016269684,-0.01357523538172245,-0.0071868896484375,0.0066545275039970875
18290431911500,-0.8152256608009338,-9.75397777557373,0.09217676520347595,-0.010913425125181675,-0.00692070834338665,0.007453070487827063
18290433148837,-0.7912836670875549,-9.6989107131958,0.1041477769613266,-0.00931633822619915,-0.00931633822619915,0.0037265352439135313
18290434386125,-0.7948749661445618,-9.712079048156738,0.12210428714752197,-0.010647243820130825,-0.010381062515079975,0.0023956298828125
18290435623450,-0.7972691655158997,-9.732430458068848,0.08619125932455063,-0.008517795242369175,-0.015172322280704975,0.005057440605014563
18290436860787,-0.7745242714881897,-9.758766174316406,0.09576807171106339,-0.00931633822619915,-0.0138414166867733,0.0039927163161337376
18290438098087,-0.7924807667732239,-9.731232643127441,0.1364694982767105,-0.005057440605014563,-0.0157046839594841,0.0026618109550327063
18290439335412,-0.8104372620582581,-9.708487510681152,0.11013327538967133,-0.0037265352439135313,-0.014373779296875,0.005057440605014563
18290440572737,-0.8475474119186401,-9.718064308166504,0.12330138683319092,-0.00452507846057415,-0.01224433071911335,0.0039927163161337376
18290441810037,-0.7936778664588928,-9.728838920593262,0.11971008777618408,-0.00452507846057415,-0.01463996060192585,0.005057440605014563
18290443047375,-0.812831461429596,-9.692925453186035,0.1280897855758667,0.0002661811013240367,-0.0173017717897892,0.008783976547420025
18290444284700,-0.8427590131759644,-9.733627319335938,0.14006079733371735,-0.0007985432748682797,-0.01224433071911335,0.0007985432748682797
18290445522000,-0.7864952683448792,-9.72165584564209,0.11372458189725876,0.0005323622026480734,-0.013309055007994175,0.0026618109550327063
18290446759312,-0.7769184708595276,-9.715670585632324,0.0933738648891449,-0.0037265352439135313,-0.0157046839594841,0.005855984054505825
18290447996650,-0.7852981686592102,-9.77791976928711,0.14006079733371735,-0.0037265352439135313,-0.01410759799182415,0.0010647244052961469
18290449233975,-0.7864952683448792,-9.738415718078613,0.1388636976480484,0.0,-0.01224433071911335,0.0
18290450471275,-0.8188169598579407,-9.727641105651855,0.1256955862045288,0.0031941730994731188,-0.0157046839594841,0.0010647244052961469
18290451708600,-0.8427590131759644,-9.747992515563965,0.15682020783424377,0.0005323622026480734,-0.01996358297765255,0.0042588976211845875
18290452945925,-0.8176198601722717,-9.781511306762695,0.12210428714752197,0.0,-0.0204959437251091,0.0005323622026480734
18290454183237,-0.7912836670875549,-9.793481826782227,0.1364694982767105,-0.0015970865497365594,-0.01996358297765255,0.0013309054775163531
18290455420550,-0.8463503122329712,-9.787496566772461,0.1412578970193863,0.0010647244052961469,-0.0196974016726017,0.0015970865497365594
18290456657887,-0.8451532125473022,-9.75517463684082,0.13407529890537262,0.0015970865497365594,-0.01650322787463665,-0.0026618109550327063
18290457895212,-0.851138710975647,-9.759963035583496,0.09816227108240128,-0.00452507846057415,-0.01943122036755085,-0.0039927163161337376
18290459132525,-0.8104372620582581,-9.781511306762695,0.08259996026754379,0.0021294488105922937,-0.01836649514734745,-0.0031941730994731188
18290460369837,-0.8355764150619507,-9.764751434326172,0.08379705995321274,0.00452507846057415,-0.02129448764026165,-0.0010647244052961469
18290461607150,-0.8164227604866028,-9.786299705505371,0.11372458189725876,0.006122165359556675,-0.01996358297765255,-0.0021294488105922937
18290462844475,-0.8463503122329712,-9.770737648010254,0.152031809091568,0.0018632676219567657,-0.0215606689453125,-0.003460354171693325
18290464081812,-0.8415619134902954,-9.789891242980957,0.09217676520347595,0.00452507846057415,-0.02262539230287075,-0.0010647244052961469
18290465319112,-0.8463503122329712,-9.77672290802002,0.1041477769613266,0.005589802749454975,-0.0215606689453125,-0.0002661811013240367
18290466556425,-0.828393816947937,-9.817423820495605,0.1041477769613266,0.005855984054505825,-0.02369011752307415,-0.0015970865497365594
18290467793737,-0.8439561128616333,-9.771934509277344,0.10773907601833344,0.00958251953125,-0.0220930315554142,-0.0018632676219567657
18290469031075,-0.7996633648872375,-9.806650161743164,0.1472434103488922,0.0053236219100654125,-0.0220930315554142,0.0010647244052961469
18290470268400,-0.8475474119186401,-9.774328231811523,0.13766659796237946,0.007453070487827063,-0.02315775491297245,-0.0029279920272529125
18290471505712,-0.8080430626869202,-9.797073364257812,0.11013327538967133,0.0077192517928779125,-0.0263519287109375,0.003460354171693325
18290472743025,-0.8224083185195923,-9.801861763000488,0.13407529890537262,0.005589802749454975,-0.0258195661008358,0.0010647244052961469
18290473980337,-0.8176198601722717,-9.769539833068848,0.14006079733371735,0.0029279920272529125,-0.0234239362180233,0.0026618109550327063
18290475217662,-0.8152256608009338,-9.769539833068848,0.1388636976480484,0.0071868896484375,-0.0210283063352108,0.0029279920272529125
18290476454975,-0.8487445116043091,-9.770737648010254,0.1149216815829277,0.008251613937318325,-0.0181003138422966,0.0002661811013240367
18290477692287,-0.8068459630012512,-9.825803756713867,0.08379705995321274,0.0077192517928779125,-0.0196974016726017,0.0026618109550327063
18290478929637,-0.8451532125473022,-9.759963035583496,0.10295067727565765,0.01171196810901165,-0.02502102218568325,0.008517795242369175
18290480166937,-0.8212112188339233,-9.72285270690918,0.11971008777618408,0.00984870083630085,-0.0268842913210392,0.0066545275039970875
18290481404262,-0.851138710975647,-9.7420072555542,0.12330138683319092,0.0090501569211483,-0.03087700717151165,0.005589802749454975
18290482641575,-0.828393816947937,-9.770737648010254,0.14006079733371735,0.010647243820130825,-0.0215606689453125,0.007453070487827063
18290483878887,-0.8367735147476196,-9.770737648010254,0.1256955862045288,0.01117960549890995,-0.02076212503015995,0.008251613937318325
18290485116225,-0.8762778043746948,-9.762357711791992,0.11851298809051514,0.007985432632267475,-0.02794901467859745,0.007985432632267475
18290486353537,-0.8343793153762817,-9.765949249267578,0.07422025501728058,0.0090501569211483,-0.0292799212038517,0.008783976547420025
18290487590850,-0.8487445116043091,-9.762357711791992,0.09576807171106339,0.005057440605014563,-0.02315775491297245,0.01117960549890995
18290488828162,-0.8595184087753296,-9.72285270690918,0.152031809091568,0.008783976547420025,-0.02369011752307415,0.00984870083630085
18290490065487,-0.8774749040603638,-9.75517463684082,0.15921440720558167,0.00958251953125,-0.02794901467859745,0.0114457868039608
18290491302800,-0.8607155084609985,-9.744400978088379,0.11971008777618408,0.0138414166867733,-0.0263519287109375,0.008783976547420025
18290492540112,-0.851138710975647,-9.743204116821289,0.1256955862045288,0.013309055007994175,-0.023956298828125,0.00984870083630085
18290493777450,-0.8595184087753296,-9.746795654296875,0.14844051003456116,0.010381062515079975,-0.02076212503015995,0.010647243820130825
18290495014762,-0.8343793153762817,-9.726444244384766,0.10773907601833344,0.0077192517928779125,-0.0258195661008358,0.010381062515079975
18290496252087,-0.8834604620933533,-9.761160850524902,0.14844051003456116,0.0090501569211483,-0.02661811001598835,0.0077192517928779125
18290497489400,-0.8319851160049438,-9.799468040466309,0.08619125932455063,0.007985432632267475,-0.0292799212038517,0.008517795242369175
18290498726737,-0.889445960521698,-9.749189376831055,0.13048399984836578,0.00984870083630085,-0.03034464456140995,0.0042588976211845875
18290499964025,-0.888248860836029,-9.715670585632324,0.1472434103488922,0.01171196810901165,-0.0268842913210392,0.0066545275039970875
18290501201375,-0.8667010068893433,-9.767146110534668,0.15322890877723694,0.01171196810901165,-0.02741665206849575,0.008783976547420025
18290502438700,-0.872686505317688,-9.75397777557373,0.1472434103488922,0.0119781494140625,-0.0271504707634449,0.010381062515079975
18290503676000,-0.8655039072036743,-9.773131370544434,0.08619125932455063,0.01117960549890995,-0.023956298828125,0.007453070487827063
18290504913312,-0.8535329103469849,-9.767146110534668,0.15801730751991272,0.00984870083630085,-0.0276828333735466,0.00452507846057415
18290506150625,-0.8415619134902954,-9.731232643127441,0.13287819921970367,0.00958251953125,-0.0271504707634449,0.00452507846057415
18290507387937,-0.888248860836029,-9.783905029296875,0.14484921097755432,0.012776692397892475,-0.0258195661008358,0.0039927163161337376
18290508625275,-0.8535329103469849,-9.762357711791992,0.15322890877723694,0.012510511092841625,-0.0319417305290699,0.0023956298828125
18290509862587,-0.8906430602073669,-9.804256439208984,0.13407529890537262,0.0090501569211483,-0.0282151959836483,-0.0037265352439135313
18290511099912,-0.9002198576927185,-9.769539833068848,0.15562310814857483,0.00931633822619915,-0.023956298828125,-0.0010647244052961469
18290512337237,-0.8954314589500427,-9.764751434326172,0.14604631066322327,0.01224433071911335,-0.0295461006462574,-0.0013309054775163531
18290513574550,-0.9026140570640564,-9.801861763000488,0.16519992053508759,0.014906140975654125,-0.0300784632563591,0.003460354171693325
18290514811862,-0.8870517611503601,-9.78869342803955,0.14006079733371735,0.0138414166867733,-0.0327402763068676,0.0010647244052961469
18290516049200,-0.8451532125473022,-9.782708168029785,0.16400282084941864,0.012510511092841625,-0.0330064557492733,-0.006122165359556675
18290517286512,-0.8918401598930359,-9.77791976928711,0.13766659796237946,0.013309055007994175,-0.0295461006462574,-0.0021294488105922937
18290518523825,-0.8786720037460327,-9.798270225524902,0.17956513166427612,0.0173017717897892,-0.02422248013317585,0.0
18290519761137,-0.9097966551780701,-9.764751434326172,0.15442600846290588,0.0138414166867733,-0.0220930315554142,-0.0090501569211483
18290520998450,-0.9217676520347595,-9.825803756713867,0.15801730751991272,0.00958251953125,-0.01943122036755085,-0.010381062515079975
18290522235787,-0.9169792532920837,-9.794679641723633,0.15682020783424377,0.0181003138422966,-0.0215606689453125,-0.0039927163161337376
18290523473100,-0.9289502501487732,-9.789891242980957,0.16160862147808075,0.0167694091796875,-0.023956298828125,-0.0042588976211845875
18290524710400,-0.8906430602073669,-9.768342971801758,0.18914192914962769,0.01783413253724575,-0.0223592109978199,-0.0077192517928779125
18290525947737,-0.9074024558067322,-9.75517463684082,0.152031809091568,0.0162370465695858,-0.02182685025036335,-0.0162370465695858
18290527185062,-0.8643068075180054,-9.757569313049316,0.19033904373645782,0.01943122036755085,-0.0181003138422966,-0.010913425125181675
18290528422375,-0.9229647517204285,-9.740809440612793,0.15322890877723694,0.0167694091796875,-0.0223592109978199,-0.0090501569211483
18290529659687,-0.8966285586357117,-9.732430458068848,0.1711854189634323,0.014906140975654125,-0.02315775491297245,-0.01410759799182415
18290530896987,-0.8535329103469849,-9.710882186889648,0.17238251864910126,0.0173017717897892,-0.0220930315554142,-0.014906140975654125
18290532134350,-0.9062053561210632,-9.731232643127441,0.14245499670505524,0.0196974016726017,-0.02129448764026165,-0.010913425125181675
18290533371662,-0.888248860836029,-9.747992515563965,0.16998831927776337,0.01597086526453495,-0.0186326764523983,-0.01224433071911335
18290534608962,-0.9062053561210632,-9.739612579345703,0.1280897855758667,0.0162370465695858,-0.0173017717897892,-0.00931633822619915
18290535846262,-0.9193734526634216,-9.692925453186035,0.13407529890537262,0.0215606689453125,-0.02022976242005825,-0.01463996060192585
18290537083612,-0.933738648891449,-9.744400978088379,0.15801730751991272,0.02262539230287075,-0.0215606689453125,-0.01171196810901165
18290538320925,-0.889445960521698,-9.716867446899414,0.13407529890537262,0.0210283063352108,-0.0119781494140625,-0.01410759799182415
18290539558237,-0.8427590131759644,-9.715670585632324,0.15682020783424377,0.02182685025036335,-0.01703559048473835,-0.0186326764523983
18290540795562,-0.8523358106613159,-9.733627319335938,0.15442600846290588,0.02182685025036335,-0.01889885775744915,-0.0162370465695858
18290542032900,-0.8607155084609985,-9.75397777557373,0.1388636976480484,0.0210283063352108,-0.0162370465695858,-0.0162370465695858
18290543270225,-0.8750807046890259,-9.773131370544434,0.18076223134994507,0.0252872034907341,-0.0186326764523983,-0.01703559048473835
18290544507537,-0.9014169573783875,-9.762357711791992,0.15442600846290588,0.0223592109978199,-0.00958251953125,-0.0119781494140625
18290545744837,-0.8463503122329712,-9.756372451782227,0.15921440720558167,0.0234239362180233,-0.007985432632267475,-0.01463996060192585
18290546982162,-0.8918401598930359,-9.77672290802002,0.12090718746185303,0.0314093679189682,-0.010381062515079975,-0.01889885775744915
18290548219475,-0.8702923059463501,-9.75158405303955,0.17238251864910126,0.0311431884765625,-0.00692070834338665,-0.01996358297765255
18290549456800,-0.8607155084609985,-9.81024169921875,0.1496376097202301,0.02901373989880085,-0.0063883461989462376,-0.02076212503015995
18290550694125,-0.9253589510917664,-9.75158405303955,0.15562310814857483,0.02794901467859745,-0.01171196810901165,-0.01889885775744915
18290551931450,-0.8595184087753296,-9.718064308166504,0.1735796183347702,0.02422248013317585,-0.014906140975654125,-0.0173017717897892
18290553168737,-0.8619126081466675,-9.801861763000488,0.20470423996448517,0.02794901467859745,-0.01357523538172245,-0.01357523538172245
18290554406062,-0.8942343592643738,-9.7420072555542,0.1735796183347702,0.0316755510866642,-0.01117960549890995,-0.013042873702943325
18290555643375,-0.8702923059463501,-9.743204116821289,0.21188685297966003,0.0311431884765625,-0.0066545275039970875,-0.0181003138422966
18290556880687,-0.8607155084609985,-9.68933391571045,0.20709845423698425,0.03087700717151165,-0.00452507846057415,-0.0157046839594841
18290558118025,-0.8559271097183228,-9.72165584564209,0.18914192914962769,0.0292799212038517,-0.007985432632267475,-0.01357523538172245
18290559355350,-0.8343793153762817,-9.706093788146973,0.20350714027881622,0.0343373604118824,-0.008251613937318325,-0.01836649514734745
18290560592675,-0.9085995554924011,-9.762357711791992,0.17836803197860718,0.0356682650744915,-0.012776692397892475,-0.010647243820130825
18290561829987,-0.8164227604866028,-9.743204116821289,0.18914192914962769,0.0338049978017807,-0.005589802749454975,-0.013309055007994175
18290563067300,-0.8810662031173706,-9.743204116821289,0.18315643072128296,0.0354020856320858,-0.0071868896484375,-0.01756795309484005
18290564304612,-0.9229647517204285,-9.726444244384766,0.1628057211637497,0.0412580706179142,-0.008251613937318325,-0.014373779296875
18290565541937,-0.8846575617790222,-9.747992515563965,0.15682020783424377,0.0356682650744915,-0.008251613937318325,-0.013042873702943325
18290566779262,-0.889445960521698,-9.773131370544434,0.2059013545513153,0.0348697230219841,-0.0031941730994731188,-0.0114457868039608
18290568016575,-0.889445960521698,-9.762357711791992,0.14484921097755432,0.0354020856320858,0.0,-0.01357523538172245
18290569253900,-0.888248860836029,-9.756372451782227,0.17956513166427612,0.0340711809694767,-0.0013309054775163531,-0.01783413253724575
18290570491212,-0.9014169573783875,-9.757569313049316,0.1975216418504715,0.0369991734623909,-0.0039927163161337376,-0.013042873702943325
18290571728537,-0.9074024558067322,-9.77791976928711,0.20111294090747833,0.0375315360724926,-0.0015970865497365594,-0.014906140975654125
18290572965862,-0.8990227580070496,-9.803058624267578,0.1628057211637497,0.038063894957304,-0.0013309054775163531,-0.0173017717897892
18290574203175,-0.9133879542350769,-9.770737648010254,0.19273324310779572,0.0359344482421875,0.0029279920272529125,-0.0114457868039608
18290575440475,-0.9193734526634216,-9.797073364257812,0.15442600846290588,0.033272635191679,0.0026618109550327063,-0.008517795242369175
18290576677800,-0.851138710975647,-9.77791976928711,0.20709845423698425,0.0369991734623909,0.0007985432748682797,-0.0119781494140625
18290577915137,-0.9050082564353943,-9.81024169921875,0.17717093229293823,0.0420566126704216,0.0,-0.0138414166867733
18290579152437,-0.872686505317688,-9.793481826782227,0.15682020783424377,0.0351359061896801,0.0037265352439135313,-0.01117960549890995
18290580389762,-0.8427590131759644,-9.793481826782227,0.2059013545513153,0.03034464456140995,0.0053236219100654125,-0.012776692397892475
18290581627100,-0.8667010068893433,-9.80904483795166,0.18315643072128296,0.0314093679189682,0.0066545275039970875,-0.013042873702943325
18290582864412,-0.8702923059463501,-9.805453300476074,0.18794482946395874,0.0367329902946949,0.0063883461989462376,-0.01171196810901165
18290584101712,-0.8655039072036743,-9.81263542175293,0.1604115217924118,0.0330064557492733,0.00452507846057415,-0.00958251953125
18290585339050,-0.9026140570640564,-9.80904483795166,0.26575639843940735,0.0292799212038517,0.0002661811013240367,-0.00931633822619915
18290586576375,-0.8690952062606812,-9.804256439208984,0.21428105235099792,0.0292799212038517,0.0013309054775163531,-0.010381062515079975
18290587813687,-0.9062053561210632,-9.806650161743164,0.2298433631658554,0.0268842913210392,0.00984870083630085,-0.013042873702943325
18290589051000,-0.8451532125473022,-9.828198432922363,0.20350714027881622,0.01943122036755085,0.005855984054505825,-0.01463996060192585
18290590288312,-0.8140285611152649,-9.81143856048584,0.20470423996448517,0.0263519287109375,0.006122165359556675,-0.01224433071911335
18290591525637,-0.8391677141189575,-9.831789016723633,0.20231004059314728,0.03087700717151165,0.010381062515079975,-0.012510511092841625
18290592762962,-0.8379706144332886,-9.816226959228516,0.22385786473751068,0.02901373989880085,0.0037265352439135313,-0.014373779296875
18290594000275,-0.851138710975647,-9.849745750427246,0.15801730751991272,0.02608574740588665,0.00984870083630085,-0.013309055007994175
18290595237587,-0.8690952062606812,-9.896432876586914,0.19393034279346466,0.02661811001598835,0.0119781494140625,-0.01117960549890995
18290596474912,-0.8655039072036743,-9.862914085388184,0.18555063009262085,0.02608574740588665,0.010647243820130825,-0.0138414166867733
18290597712237,-0.851138710975647,-9.873687744140625,0.19393034279346466,0.02182685025036335,0.010913425125181675,-0.01171196810901165
18290598949550,-0.8236054182052612,-9.891644477844238,0.22625206410884857,0.02262539230287075,0.012776692397892475,-0.01357523538172245
18290600186862,-0.8810662031173706,-9.877279281616211,0.18794482946395874,0.01996358297765255,0.012776692397892475,-0.012776692397892475
18290601424200,-0.8331822156906128,-9.891644477844238,0.1628057211637497,0.02315775491297245,0.013309055007994175,-0.015438503585755825
18290602661525,-0.828393816947937,-9.883264541625977,0.1759738326072693,0.0223592109978199,0.01410759799182415,-0.013042873702943325
18290603898825,-0.8307880163192749,-9.860519409179688,0.23104046285152435,0.0181003138422966,0.015172322280704975,-0.01171196810901165
18290605136150,-0.8547300100326538,-9.854534149169922,0.17956513166427612,0.0186326764523983,0.01171196810901165,-0.0119781494140625
18290606373462,-0.8236054182052612,-9.874884605407715,0.17238251864910126,0.0234239362180233,0.014373779296875,-0.01463996060192585
18290607610800,-0.812831461429596,-9.897629737854004,0.18555063009262085,0.0234239362180233,0.0114457868039608,-0.01117960549890995
18290608848087,-0.8259996175765991,-9.865307807922363,0.21667525172233582,0.01889885775744915,0.01357523538172245,-0.0157046839594841
18290610085425,-0.8319851160049438,-9.872490882873535,0.21428105235099792,0.0181003138422966,0.013042873702943325,-0.015172322280704975
18290611322762,-0.828393816947937,-9.847352027893066,0.20111294090747833,0.02076212503015995,0.00984870083630085,-0.010647243820130825
18290612560062,-0.8248025178909302,-9.824606895446777,0.2059013545513153,0.0181003138422966,0.012510511092841625,-0.01117960549890995
18290613797375,-0.8140285611152649,-9.865307807922363,0.2214636653661728,0.014373779296875,0.01889885775744915,-0.013042873702943325
18290615034700,-0.7912836670875549,-9.828198432922363,0.20709845423698425,0.015438503585755825,0.0173017717897892,-0.0162370465695858
18290616272037,-0.7936778664588928,-9.834183692932129,0.18315643072128296,0.01783413253724575,0.01357523538172245,-0.01463996060192585
18290617509337,-0.7577648162841797,-9.817423820495605,0.19273324310779572,0.013042873702943325,0.01224433071911335,-0.0119781494140625
18290618746650,-0.7936778664588928,-9.780314445495605,0.22625206410884857,0.01463996060192585,0.01357523538172245,-0.01463996060192585
18290619983987,-0.829590916633606,-9.763554573059082,0.243011474609375,0.015438503585755825,0.010647243820130825,-0.01171196810901165
18290621221287,-0.7721300721168518,-9.737218856811523,0.2513911724090576,0.010647243820130825,0.02129448764026165,-0.01171196810901165
18290622458625,-0.8547300100326538,-9.773131370544434,0.23582887649536133,0.0119781494140625,0.0181003138422966,-0.01410759799182415
18290623695925,-0.7769184708595276,-9.774328231811523,0.25737667083740234,0.01357523538172245,0.0119781494140625,-0.01463996060192585
18290624933250,-0.7948749661445618,-9.764751434326172,0.22744916379451752,0.00958251953125,0.01171196810901165,-0.015172322280704975
18290626170575,-0.8379706144332886,-9.758766174316406,0.19393034279346466,0.008251613937318325,0.014373779296875,-0.005855984054505825
18290627407900,-0.8056488633155823,-9.733627319335938,0.22505496442317963,0.0138414166867733,0.005855984054505825,-0.005589802749454975
18290628645225,-0.7709329724311829,-9.709685325622559,0.2298433631658554,0.0114457868039608,0.00931633822619915,-0.005855984054505825
18290629882537,-0.7924807667732239,-9.7420072555542,0.19871874153614044,0.0119781494140625,0.0162370465695858,-0.0071868896484375
18290631119850,-0.7924807667732239,-9.77552604675293,0.18315643072128296,0.010114881210029125,0.014373779296875,-0.0031941730994731188
18290632357150,-0.788889467716217,-9.756372451782227,0.18794482946395874,0.01117960549890995,0.012776692397892475,-0.005057440605014563
18290633594487,-0.7996633648872375,-9.797073364257812,0.18315643072128296,0.012510511092841625,0.0167694091796875,-0.005855984054505825
18290634831812,-0.7936778664588928,-9.803058624267578,0.20709845423698425,0.0066545275039970875,0.0167694091796875,-0.0053236219100654125
18290636069125,-0.8056488633155823,-9.836577415466309,0.19871874153614044,0.01756795309484005,0.01357523538172245,-0.005057440605014563
18290637306450,-0.790086567401886,-9.853337287902832,0.16759411990642548,0.01889885775744915,0.01171196810901165,-0.0029279920272529125
18290638543775,-0.7637503743171692,-9.825803756713867,0.14245499670505524,0.0138414166867733,0.010114881210029125,-0.0031941730994731188
18290639781112,-0.7709329724311829,-9.896432876586914,0.19871874153614044,0.01117960549890995,0.010381062515079975,-0.0029279920272529125
18290641018400,-0.768538773059845,-9.915586471557617,0.16519992053508759,0.00958251953125,0.0138414166867733,-0.0018632676219567657
18290642255725,-0.7852981686592102,-9.886856079101562,0.16759411990642548,0.0119781494140625,0.0119781494140625,0.0002661811013240367
18290643493037,-0.8080430626869202,-9.87967300415039,0.21308395266532898,0.0173017717897892,0.008251613937318325,-0.0002661811013240367
18290644730362,-0.7769184708595276,-9.870096206665039,0.24779987335205078,0.012776692397892475,0.00958251953125,0.0039927163161337376
18290645967687,-0.7841010689735413,-9.882067680358887,0.2322375625371933,0.0114457868039608,0.014373779296875,0.0077192517928779125
18290647205012,-0.8140285611152649,-9.86889934539795,0.2190694510936737,0.01783413253724575,0.012776692397892475,0.006122165359556675
18290648442325,-0.7577648162841797,-9.849745750427246,0.17717093229293823,0.013309055007994175,0.0138414166867733,0.0005323622026480734
18290649679637,-0.7769184708595276,-9.847352027893066,0.2190694510936737,0.0119781494140625,0.014906140975654125,0.00692070834338665
18290650916975,-0.788889467716217,-9.831789016723633,0.21787235140800476,0.01224433071911335,0.010913425125181675,0.00452507846057415
18290652154275,-0.7924807667732239,-9.830592155456543,0.22266076505184174,0.01703559048473835,0.008517795242369175,0.0077192517928779125
18290653391612,-0.7410054206848145,-9.80904483795166,0.22744916379451752,0.015438503585755825,0.0090501569211483,0.0162370465695858
18290654628912,-0.7793126702308655,-9.81263542175293,0.20709845423698425,0.010647243820130825,0.010114881210029125,0.01597086526453495
18290655866237,-0.7457938194274902,-9.815030097961426,0.16160862147808075,0.010913425125181675,0.0053236219100654125,0.010114881210029125
18290657103550,-0.767341673374176,-9.792284965515137,0.1999158412218094,0.006122165359556675,0.008517795242369175,0.010647243820130825
18290658340862,-0.768538773059845,-9.787496566772461,0.22505496442317963,0.005855984054505825,0.00958251953125,0.014373779296875
18290659578212,-0.7745242714881897,-9.821015357971191,0.20949265360832214,0.013309055007994175,0.0077192517928779125,0.01171196810901165
18290660815500,-0.7936778664588928,-9.806650161743164,0.1867477297782898,0.010381062515079975,0.010913425125181675,0.012510511092841625
18290662052825,-0.7805097699165344,-9.815030097961426,0.1843535304069519,0.01224433071911335,0.01171196810901165,0.01171196810901165
18290663290162,-0.7457938194274902,-9.837775230407715,0.18076223134994507,0.0157046839594841,0.0114457868039608,0.0138414166867733
18290664527475,-0.8044517636299133,-9.847352027893066,0.17477671802043915,0.008783976547420025,0.00931633822619915,0.013042873702943325
18290665764787,-0.8188169598579407,-9.817423820495605,0.2059013545513153,0.01171196810901165,0.006122165359556675,0.01117960549890995
18290667002112,-0.7960720658302307,-9.877279281616211,0.18076223134994507,0.0090501569211483,0.00931633822619915,0.0138414166867733
18290668239437,-0.8008604645729065,-9.799468040466309,0.16639702022075653,0.0090501569211483,0.010647243820130825,0.01224433071911335
18290669476750,-0.8152256608009338,-9.890447616577148,0.16639702022075653,0.006122165359556675,0.00958251953125,0.010647243820130825
18290670714062,-0.8224083185195923,-9.892841339111328,0.1975216418504715,0.0042588976211845875,0.0090501569211483,0.015172322280704975
18290671951387,-0.8176198601722717,-9.874884605407715,0.22026655077934265,0.0042588976211845875,0.01117960549890995,0.01117960549890995
18290673188712,-0.8200140595436096,-9.90122127532959,0.21308395266532898,0.0063883461989462376,0.0090501569211483,0.010913425125181675
18290674426025,-0.829590916633606,-9.884461402893066,0.16759411990642548,0.003460354171693325,0.0071868896484375,0.010114881210029125
18290675663337,-0.8200140595436096,-9.896432876586914,0.2082955539226532,0.0026618109550327063,0.010913425125181675,0.010913425125181675
18290676900662,-0.8236054182052612,-9.890447616577148,0.24181437492370605,0.0018632676219567657,0.0071868896484375,0.00452507846057415
18290678137962,-0.7745242714881897,-9.834183692932129,0.2190694510936737,-0.0042588976211845875,0.013042873702943325,0.0042588976211845875
18290679375300,-0.7817068696022034,-9.847352027893066,0.1975216418504715,-0.0039927163161337376,0.012510511092841625,0.003460354171693325
18290680612612,-0.8020575642585754,-9.856928825378418,0.16998831927776337,-0.0039927163161337376,0.0039927163161337376,0.0053236219100654125
18290681849937,-0.7924807667732239,-9.817423820495605,0.20470423996448517,-0.0023956298828125,0.00931633822619915,0.0053236219100654125
18290683087262,-0.7577648162841797,-9.823410034179688,0.19033904373645782,-0.003460354171693325,0.015172322280704975,0.0018632676219567657
18290684324575,-0.7829039692878723,-9.829395294189453,0.18076223134994507,-0.0042588976211845875,0.01171196810901165,-0.0031941730994731188
18290685561912,-0.7948749661445618,-9.827000617980957,0.20111294090747833,-0.005057440605014563,0.0077192517928779125,0.0013309054775163531
18290686799212,-0.7829039692878723,-9.847352027893066,0.2298433631658554,-0.0071868896484375,0.01463996060192585,0.0037265352439135313
18290688036537,-0.8068459630012512,-9.827000617980957,0.19393034279346466,-0.0063883461989462376,0.0114457868039608,-0.0010647244052961469
18290689273850,-0.7960720658302307,-9.780314445495605,0.1843535304069519,-0.0037265352439135313,0.00958251953125,0.0015970865497365594
18290690511162,-0.7529764175415039,-9.782708168029785,0.23343466222286224,-0.0026618109550327063,0.008783976547420025,0.005057440605014563
18290691748512,-0.812831461429596,-9.7791166305542,0.181959331035614,-0.0029279920272529125,0.007453070487827063,0.0018632676219567657
18290692985812,-0.7625532746315002,-9.795876502990723,0.19632454216480255,-0.004791259765625,0.007453070487827063,-0.0018632676219567657
18290694223137,-0.7661445736885071,-9.77791976928711,0.2298433631658554,-0.0063883461989462376,0.01171196810901165,0.0018632676219567657
18290695460462,-0.7972691655158997,-9.791088104248047,0.23942017555236816,0.0026618109550327063,0.01224433071911335,0.008251613937318325
18290696697787,-0.7625532746315002,-9.77552604675293,0.21308395266532898,-0.0005323622026480734,0.010647243820130825,0.0031941730994731188
18290697935100,-0.8032546639442444,-9.782708168029785,0.16639702022075653,-0.00452507846057415,0.0090501569211483,0.0018632676219567657
18290699172412,-0.8020575642585754,-9.773131370544434,0.15562310814857483,0.0,0.0042588976211845875,0.0042588976211845875
18290700409737,-0.8176198601722717,-9.801861763000488,0.19033904373645782,-0.0015970865497365594,0.008783976547420025,0.0031941730994731188
18290701647050,-0.7757213711738586,-9.799468040466309,0.18076223134994507,-0.0042588976211845875,0.008783976547420025,0.006122165359556675
18290702884375,-0.7960720658302307,-9.81024169921875,0.18076223134994507,0.0007985432748682797,0.003460354171693325,0.0066545275039970875
18290704121687,-0.7314286231994629,-9.791088104248047,0.17477671802043915,0.0063883461989462376,0.008517795242369175,0.0114457868039608
18290705359000,-0.7625532746315002,-9.733627319335938,0.16998831927776337,0.0007985432748682797,0.008517795242369175,0.00984870083630085
18290706596350,-0.7936778664588928,-9.765949249267578,0.1711854189634323,-0.0031941730994731188,0.00984870083630085,0.005057440605014563
18290707833637,-0.7876923680305481,-9.767146110534668,0.19871874153614044,-0.0010647244052961469,0.01117960549890995,0.004791259765625
18290709070962,-0.7912836670875549,-9.756372451782227,0.181959331035614,-0.0021294488105922937,0.00692070834338665,0.005855984054505825
18290710308300,-0.7493851184844971,-9.799468040466309,0.17477671802043915,-0.0031941730994731188,0.005589802749454975,0.003460354171693325
18290711545600,-0.7481880187988281,-9.7791166305542,0.16879121959209442,-0.0042588976211845875,0.008517795242369175,0.0018632676219567657
18290712782950,-0.7697358727455139,-9.725247383117676,0.18555063009262085,0.0005323622026480734,0.00692070834338665,0.0066545275039970875
18290714020250,-0.7541735172271729,-9.770737648010254,0.22625206410884857,0.0,0.0021294488105922937,0.008517795242369175
18290715257575,-0.7876923680305481,-9.759963035583496,0.22266076505184174,0.0021294488105922937,0.0,0.006122165359556675
18290716494900,-0.7864952683448792,-9.746795654296875,0.181959331035614,0.0021294488105922937,0.005057440605014563,0.0066545275039970875
18290717732200,-0.7601590752601624,-9.744400978088379,0.20350714027881622,0.0021294488105922937,-0.0026618109550327063,0.006122165359556675
18290718969537,-0.7912836670875549,-9.730035781860352,0.1867477297782898,0.00452507846057415,-0.0039927163161337376,0.008517795242369175
18290720206850,-0.7960720658302307,-9.733627319335938,0.1951274424791336,0.00958251953125,0.0026618109550327063,0.015172322280704975
18290721444162,-0.7936778664588928,-9.747992515563965,0.2190694510936737,0.0063883461989462376,-0.0007985432748682797,0.01224433071911335
18290722681475,-0.7960720658302307,-9.734824180603027,0.18914192914962769,0.0042588976211845875,-0.0015970865497365594,0.010114881210029125
18290723918800,-0.7481880187988281,-9.744400978088379,0.19393034279346466,0.0053236219100654125,-0.0023956298828125,0.012776692397892475
18290725156125,-0.7350199222564697,-9.75397777557373,0.20111294090747833,0.0042588976211845875,-0.0021294488105922937,0.012776692397892475
18290726393450,-0.8044517636299133,-9.764751434326172,0.21428105235099792,0.0053236219100654125,-0.0029279920272529125,0.010381062515079975
18290727630762,-0.7876923680305481,-9.749189376831055,0.20111294090747833,0.0071868896484375,-0.0042588976211845875,0.0119781494140625
18290728868087,-0.7757213711738586,-9.758766174316406,0.1628057211637497,0.005057440605014563,0.0015970865497365594,0.010647243820130825
18290730105400,-0.7972691655158997,-9.803058624267578,0.20231004059314728,0.008251613937318325,-0.0005323622026480734,0.01703559048473835
18290731342712,-0.8224083185195923,-9.81024169921875,0.19871874153614044,0.012510511092841625,0.0005323622026480734,0.01783413253724575
18290732580050,-0.7936778664588928,-9.803058624267578,0.1735796183347702,0.0066545275039970875,0.0007985432748682797,0.010114881210029125
18290733817350,-0.7805097699165344,-9.804256439208984,0.16639702022075653,0.00692070834338665,-0.0005323622026480734,0.0167694091796875
18290735054675,-0.8212112188339233,-9.804256439208984,0.16998831927776337,0.004791259765625,0.0010647244052961469,0.01650322787463665
18290736292000,-0.768538773059845,-9.840168952941895,0.24181437492370605,0.0031941730994731188,-0.005855984054505825,0.013042873702943325
18290737529312,-0.829590916633606,-9.818621635437012,0.2082955539226532,0.00984870083630085,-0.003460354171693325,0.0181003138422966
18290738766637,-0.7912836670875549,-9.799468040466309,0.181959331035614,0.007985432632267475,-0.0037265352439135313,0.014906140975654125
18290740003950,-0.7864952683448792,-9.793481826782227,0.1604115217924118,0.0039927163161337376,-0.0026618109550327063,0.012776692397892475
18290741241275,-0.8307880163192749,-9.7791166305542,0.1759738326072693,0.00692070834338665,0.0007985432748682797,0.01889885775744915
18290742478612,-0.8331822156906128,-9.816226959228516,0.21787235140800476,0.010913425125181675,-0.0010647244052961469,0.0181003138422966
18290743715925,-0.7769184708595276,-9.84256362915039,0.1735796183347702,0.00984870083630085,-0.0071868896484375,0.01836649514734745
18290744953237,-0.8595184087753296,-9.819818496704102,0.18315643072128296,0.0021294488105922937,0.0005323622026480734,0.01463996060192585
18290746190525,-0.7781155705451965,-9.807847023010254,0.19871874153614044,0.0037265352439135313,0.0002661811013240367,0.010913425125181675
18290747427875,-0.8475474119186401,-9.831789016723633,0.21188685297966003,0.007453070487827063,-0.0007985432748682797,0.0071868896484375
18290748665175,-0.8535329103469849,-9.840168952941895,0.20231004059314728,0.0039927163161337376,-0.0023956298828125,0.010913425125181675
18290749902512,-0.8439561128616333,-9.84256362915039,0.15921440720558167,0.0005323622026480734,-0.0023956298828125,0.01463996060192585
18290751139837,-0.8379706144332886,-9.880870819091797,0.16639702022075653,0.003460354171693325,0.0037265352439135313,0.015172322280704975
18290752377150,-0.8044517636299133,-9.822212219238281,0.16998831927776337,0.0018632676219567657,0.0042588976211845875,0.014373779296875
18290753614487,-0.8188169598579407,-9.799468040466309,0.19273324310779572,-0.0029279920272529125,-0.0018632676219567657,0.010647243820130825
18290754851775,-0.8176198601722717,-9.806650161743164,0.19033904373645782,-0.003460354171693325,-0.0018632676219567657,0.0114457868039608
18290756089100,-0.8188169598579407,-9.834183692932129,0.15801730751991272,0.0026618109550327063,-0.0029279920272529125,0.010913425125181675
18290757326425,-0.7829039692878723,-9.830592155456543,0.14604631066322327,0.0026618109550327063,-0.0029279920272529125,0.010913425125181675
18290758563762,-0.8391677141189575,-9.834183692932129,0.18315643072128296,-0.0010647244052961469,0.0,0.012776692397892475
18290759801062,-0.8188169598579407,-9.864110946655273,0.181959331035614,0.0015970865497365594,0.0018632676219567657,0.01224433071911335
18290761038412,-0.7984662652015686,-9.852140426635742,0.19033904373645782,-0.0010647244052961469,0.00452507846057415,0.007453070487827063
18290762275700,-0.8080430626869202,-9.860519409179688,0.1843535304069519,-0.003460354171693325,0.0,0.01463996060192585
18290763513037,-0.8092401623725891,-9.840168952941895,0.20949265360832214,-0.0021294488105922937,-0.0021294488105922937,0.01357523538172245
18290764750350,-0.8104372620582581,-9.80904483795166,0.16400282084941864,0.0007985432748682797,0.0021294488105922937,0.013042873702943325
18290765987662,-0.8547300100326538,-9.821015357971191,0.19153614342212677,-0.0013309054775163531,0.005589802749454975,0.010381062515079975
18290767224987,-0.828393816947937,-9.780314445495605,0.19033904373645782,-0.005057440605014563,0.003460354171693325,0.0119781494140625
18290768462312,-0.8044517636299133,-9.813833236694336,0.1711854189634323,-0.006122165359556675,0.004791259765625,0.0114457868039608
18290769699637,-0.8044517636299133,-9.823410034179688,0.16639702022075653,0.0,0.003460354171693325,0.00984870083630085
18290770936937,-0.8631097078323364,-9.838972091674805,0.1867477297782898,0.0005323622026480734,-0.0013309054775163531,0.01171196810901165
18290772174250,-0.8403648138046265,-9.81263542175293,0.14365209639072418,-0.005589802749454975,-0.0002661811013240367,0.01650322787463665
18290773411587,-0.8236054182052612,-9.836577415466309,0.19033904373645782,-0.0090501569211483,0.0007985432748682797,0.013042873702943325
18290774648900,-0.8224083185195923,-9.800664901733398,0.1628057211637497,-0.00692070834338665,0.0007985432748682797,0.015438503585755825
18290775886225,-0.8307880163192749,-9.782708168029785,0.16879121959209442,-0.0031941730994731188,-0.0023956298828125,0.013309055007994175
18290777123550,-0.8307880163192749,-9.807847023010254,0.16400282084941864,-0.005057440605014563,0.003460354171693325,0.010647243820130825
18290778360862,-0.7972691655158997,-9.835380554199219,0.18555063009262085,-0.0039927163161337376,0.0007985432748682797,0.00958251953125
18290779598175,-0.8259996175765991,-9.800664901733398,0.15801730751991272,-0.0066545275039970875,-0.0002661811013240367,0.007453070487827063
18290780835512,-0.8391677141189575,-9.816226959228516,0.15083470940589905,-0.005589802749454975,-0.0005323622026480734,0.013042873702943325
18290782072825,-0.8439561128616333,-9.836577415466309,0.16519992053508759,-0.0029279920272529125,-0.003460354171693325,0.013042873702943325
18290783310137,-0.8008604645729065,-9.807847023010254,0.15921440720558167,-0.0039927163161337376,0.0007985432748682797,0.005855984054505825
18290784547475,-0.8271967172622681,-9.81024169921875,0.18076223134994507,-0.0013309054775163531,0.0013309054775163531,0.010913425125181675
18290785784787,-0.8487445116043091,-9.817423820495605,0.18794482946395874,-0.0023956298828125,0.0010647244052961469,0.004791259765625
18290787022100,-0.828393816947937,-9.81143856048584,0.19273324310779572,-0.0077192517928779125,0.0066545275039970875,0.0063883461989462376
18290788259425,-0.8463503122329712,-9.836577415466309,0.181959331035614,-0.008251613937318325,0.006122165359556675,0.014373779296875
18290789496762,-0.7864952683448792,-9.795876502990723,0.17717093229293823,-0.0077192517928779125,0.005855984054505825,0.00931633822619915
18290790734062,-0.8020575642585754,-9.834183692932129,0.17956513166427612,-0.007453070487827063,0.00692070834338665,0.005589802749454975
18290791971375,-0.788889467716217,-9.817423820495605,0.16639702022075653,-0.0066545275039970875,0.0002661811013240367,0.01357523538172245
18290793208700,-0.8152256608009338,-9.819818496704102,0.17956513166427612,-0.0077192517928779125,0.0005323622026480734,0.0138414166867733
18290794446025,-0.8355764150619507,-9.77791976928711,0.152031809091568,-0.004791259765625,0.0010647244052961469,0.01357523538172245
18290795683337,-0.8930372595787048,-9.819818496704102,0.16519992053508759,-0.005057440605014563,0.0013309054775163531,0.010647243820130825
18290796920650,-0.849941611289978,-9.825803756713867,0.1759738326072693,-0.005589802749454975,0.0023956298828125,0.013309055007994175
18290798157975,-0.8439561128616333,-9.834183692932129,0.17717093229293823,-0.0077192517928779125,0.005855984054505825,0.0167694091796875
18290799395300,-0.8056488633155823,-9.818621635437012,0.19632454216480255,-0.0114457868039608,0.0007985432748682797,0.01171196810901165
18290800632625,-0.812831461429596,-9.818621635437012,0.19153614342212677,-0.007453070487827063,-0.0010647244052961469,0.00958251953125
18290801869950,-0.849941611289978,-9.81143856048584,0.19632454216480255,-0.0063883461989462376,0.004791259765625,0.012510511092841625
18290803107287,-0.8355764150619507,-9.803058624267578,0.1628057211637497,-0.0077192517928779125,0.00452507846057415,0.008251613937318325
18290804344562,-0.8655039072036743,-9.831789016723633,0.1975216418504715,-0.010381062515079975,0.004791259765625,0.0119781494140625
18290805581900,-0.8092401623725891,-9.815030097961426,0.17956513166427612,-0.010114881210029125,0.00452507846057415,0.01410759799182415
18290806819200,-0.8319851160049438,-9.800664901733398,0.15682020783424377,-0.007985432632267475,0.0015970865497365594,0.012510511092841625
18290808056550,-0.8690952062606812,-9.794679641723633,0.13407529890537262,-0.0077192517928779125,0.006122165359556675,0.0162370465695858
18290809293862,-0.8571242094039917,-9.806650161743164,0.1604115217924118,-0.010647243820130825,0.008783976547420025,0.013042873702943325
18290810531175,-0.8355764150619507,-9.805453300476074,0.1364694982767105,-0.0119781494140625,0.0063883461989462376,0.010913425125181675
18290811768512,-0.8487445116043091,-9.816226959228516,0.14006079733371735,-0.010647243820130825,0.007985432632267475,0.0119781494140625
18290813005825,-0.8200140595436096,-9.84615421295166,0.17238251864910126,-0.0114457868039608,0.0090501569211483,0.010381062515079975
18290814243137,-0.8678981065750122,-9.849745750427246,0.1999158412218094,-0.012510511092841625,0.010114881210029125,0.0090501569211483
18290815480475,-0.829590916633606,-9.861717224121094,0.17717093229293823,-0.013042873702943325,0.0071868896484375,0.012776692397892475
18290816717775,-0.8343793153762817,-9.829395294189453,0.181959331035614,-0.0119781494140625,0.005589802749454975,0.0119781494140625
18290817955100,-0.8140285611152649,-9.830592155456543,0.17956513166427612,-0.01224433071911335,0.005589802749454975,0.0077192517928779125
18290819192412,-0.8188169598579407,-9.773131370544434,0.1628057211637497,-0.01357523538172245,0.0037265352439135313,0.01117960549890995
18290820429737,-0.8355764150619507,-9.77672290802002,0.1388636976480484,-0.0138414166867733,0.00984870083630085,0.01650322787463665
18290821667062,-0.8667010068893433,-9.819818496704102,0.17836803197860718,-0.0162370465695858,0.008783976547420025,0.010381062515079975
18290822904375,-0.8355764150619507,-9.794679641723633,0.1472434103488922,-0.0162370465695858,0.00452507846057415,0.00958251953125
18290824141712,-0.8391677141189575,-9.835380554199219,0.1867477297782898,-0.01597086526453495,0.0066545275039970875,0.01224433071911335
18290825379012,-0.828393816947937,-9.847352027893066,0.12928690016269684,-0.0167694091796875,0.007453070487827063,0.0077192517928779125
18290826616350,-0.8164227604866028,-9.818621635437012,0.17717093229293823,-0.010381062515079975,0.00958251953125,0.010381062515079975
18290827853650,-0.8212112188339233,-9.830592155456543,0.15682020783424377,-0.013309055007994175,0.010647243820130825,0.01357523538172245
18290829090962,-0.8571242094039917,-9.787496566772461,0.152031809091568,-0.015172322280704975,0.00931633822619915,0.0114457868039608
18290830328287,-0.8248025178909302,-9.798270225524902,0.17477671802043915,-0.0119781494140625,0.01171196810901165,0.010647243820130825
18290831565612,-0.8643068075180054,-9.789891242980957,0.18076223134994507,-0.01410759799182415,0.010114881210029125,0.01171196810901165
18290832802937,-0.8667010068893433,-9.789891242980957,0.1628057211637497,-0.01889885775744915,0.0063883461989462376,0.00984870083630085
18290834040262,-0.8942343592643738,-9.829395294189453,0.12449848651885986,-0.01650322787463665,0.0037265352439135313,0.01171196810901165
18290835277575,-0.8307880163192749,-9.799468040466309,0.1496376097202301,-0.012776692397892475,0.005589802749454975,0.0114457868039608
18290836514900,-0.8104372620582581,-9.830592155456543,0.1388636976480484,-0.02022976242005825,0.0071868896484375,0.013309055007994175
18290837752225,-0.8032546639442444,-9.792284965515137,0.15562310814857483,-0.01943122036755085,0.01410759799182415,0.01171196810901165
18290838989525,-0.8750807046890259,-9.792284965515137,0.14604631066322327,-0.0186326764523983,0.00958251953125,0.01117960549890995
18290840226850,-0.8439561128616333,-9.762357711791992,0.1472434103488922,-0.02129448764026165,0.00958251953125,0.013309055007994175
18290841464187,-0.8822633624076843,-9.803058624267578,0.12210428714752197,-0.02262539230287075,0.0063883461989462376,0.005855984054505825
18290842701487,-0.8271967172622681,-9.81143856048584,0.18555063009262085,-0.0220930315554142,0.01117960549890995,0.014906140975654125
18290843938812,-0.8367735147476196,-9.77552604675293,0.16400282084941864,-0.0244886614382267,0.014373779296875,0.014373779296875
18290845176125,-0.8020575642585754,-9.797073364257812,0.152031809091568,-0.01703559048473835,0.015438503585755825,0.01224433071911335
18290846413462,-0.8427590131759644,-9.789891242980957,0.1149216815829277,-0.0167694091796875,0.0138414166867733,0.01357523538172245
18290847650762,-0.8379706144332886,-9.817423820495605,0.1472434103488922,-0.01756795309484005,0.013042873702943325,0.012510511092841625
18290848888087,-0.811634361743927,-9.81143856048584,0.08978256583213806,-0.02369011752307415,0.014906140975654125,0.015172322280704975
18290850125437,-0.8475474119186401,-9.803058624267578,0.10175357013940811,-0.01836649514734745,0.012510511092841625,0.01357523538172245
18290851362737,-0.8415619134902954,-9.768342971801758,0.07900865375995636,-0.02022976242005825,0.00931633822619915,0.00931633822619915
18290852600050,-0.8307880163192749,-9.743204116821289,0.07661445438861847,-0.02182685025036335,0.008783976547420025,0.0167694091796875
18290853837375,-0.7864952683448792,-9.77552604675293,0.12090718746185303,-0.01943122036755085,0.012510511092841625,0.01410759799182415
18290855074687,-0.8391677141189575,-9.786299705505371,0.13168109953403473,-0.0220930315554142,0.0138414166867733,0.01463996060192585
18290856312012,-0.8319851160049438,-9.7420072555542,0.1388636976480484,-0.01889885775744915,0.01171196810901165,0.01171196810901165
18290857549337,-0.8140285611152649,-9.745597839355469,0.10175357013940811,-0.0191650390625,0.0077192517928779125,0.0157046839594841
18290858786650,-0.8535329103469849,-9.786299705505371,0.11013327538967133,-0.02076212503015995,0.013309055007994175,0.014906140975654125
18290860023962,-0.829590916633606,-9.75397777557373,0.12210428714752197,-0.015438503585755825,0.01117960549890995,0.01463996060192585
18290861261287,-0.8104372620582581,-9.747992515563965,0.12449848651885986,-0.01836649514734745,0.012510511092841625,0.014906140975654125
18290862498600,-0.7924807667732239,-9.77672290802002,0.11851298809051514,-0.0173017717897892,0.01357523538172245,0.01117960549890995
18290863735937,-0.7996633648872375,-9.750386238098145,0.1149216815829277,-0.0223592109978199,0.010913425125181675,0.015172322280704975
18290864973237,-0.8224083185195923,-9.733627319335938,0.10055647045373917,-0.01943122036755085,0.010913425125181675,0.0167694091796875
18290866210587,-0.7709329724311829,-9.737218856811523,0.11851298809051514,-0.0162370465695858,0.00984870083630085,0.01650322787463665
18290867447900,-0.7936778664588928,-9.75158405303955,0.11851298809051514,-0.0157046839594841,0.015172322280704975,0.01996358297765255
18290868685212,-0.8379706144332886,-9.763554573059082,0.06703764945268631,-0.01836649514734745,0.014906140975654125,0.01783413253724575
18290869922537,-0.8056488633155823,-9.739612579345703,0.06703764945268631,-0.01597086526453495,0.010913425125181675,0.01836649514734745
18290871159850,-0.8236054182052612,-9.77552604675293,0.08858546614646912,-0.0157046839594841,0.00958251953125,0.01650322787463665
18290872397162,-0.8008604645729065,-9.780314445495605,0.13048399984836578,-0.0167694091796875,0.008517795242369175,0.0157046839594841
18290873634500,-0.829590916633606,-9.743204116821289,0.10773907601833344,-0.01943122036755085,0.00958251953125,0.0220930315554142
18290874871825,-0.7625532746315002,-9.743204116821289,0.1173158809542656,-0.01597086526453495,0.01410759799182415,0.02369011752307415
18290876109125,-0.8271967172622681,-9.7420072555542,0.10773907601833344,-0.0186326764523983,0.01756795309484005,0.0210283063352108
18290877346450,-0.8104372620582581,-9.743204116821289,0.12689268589019775,-0.01996358297765255,0.008783976547420025,0.02129448764026165
18290878583775,-0.7972691655158997,-9.757569313049316,0.09816227108240128,-0.0114457868039608,0.010381062515079975,0.01889885775744915
18290879821087,-0.8056488633155823,-9.743204116821289,0.08738835901021957,-0.01357523538172245,0.0114457868039608,0.0191650390625
18290881058412,-0.8331822156906128,-9.795876502990723,0.08140286058187485,-0.015172322280704975,0.01597086526453495,0.02262539230287075
18290882295712,-0.8307880163192749,-9.75278091430664,0.08738835901021957,-0.0138414166867733,0.012776692397892475,0.0220930315554142
18290883533037,-0.8248025178909302,-9.75397777557373,0.12689268589019775,-0.0090501569211483,0.005057440605014563,0.0204959437251091
18290884770362,-0.8248025178909302,-9.75278091430664,0.09217676520347595,-0.012510511092841625,0.005589802749454975,0.0228915736079216
18290886007675,-0.8415619134902954,-9.72165584564209,0.06703764945268631,-0.0138414166867733,0.00692070834338665,0.0247548408806324
18290887245012,-0.8451532125473022,-9.756372451782227,0.090979665517807,-0.013042873702943325,0.00958251953125,0.0181003138422966
18290888482337,-0.8068459630012512,-9.77791976928711,0.10534487664699554,-0.0167694091796875,0.013309055007994175,0.0186326764523983
18290889719662,-0.790086567401886,-9.726444244384766,0.09457096457481384,-0.01224433071911335,0.0063883461989462376,0.01943122036755085
18290890956987,-0.8068459630012512,-9.798270225524902,0.08379705995321274,-0.01224433071911335,0.006122165359556675,0.01836649514734745
18290892194287,-0.7793126702308655,-9.767146110534668,0.07182604819536209,-0.014906140975654125,0.007453070487827063,0.02182685025036335
18290893431612,-0.8188169598579407,-9.718064308166504,0.06344634294509888,-0.01117960549890995,0.008783976547420025,0.0215606689453125
18290894668912,-0.8200140595436096,-9.738415718078613,0.1149216815829277,-0.0090501569211483,0.00984870083630085,0.02315775491297245
18290895906237,-0.7852981686592102,-9.740809440612793,0.07541735470294952,-0.0114457868039608,0.008783976547420025,0.0191650390625
18290897143562,-0.7996633648872375,-9.77791976928711,0.11252748221158981,-0.00931633822619915,0.0042588976211845875,0.0210283063352108
18290898380900,-0.8224083185195923,-9.795876502990723,0.08978256583213806,-0.00931633822619915,0.0029279920272529125,0.0196974016726017
18290899618187,-0.7876923680305481,-9.761160850524902,0.05985504388809204,-0.0063883461989462376,0.005855984054505825,0.0220930315554142
18290900855537,-0.7972691655158997,-9.773131370544434,0.08738835901021957,-0.00452507846057415,0.007453070487827063,0.0223592109978199
18290902092875,-0.790086567401886,-9.80904483795166,0.1041477769613266,-0.012776692397892475,0.00931633822619915,0.0181003138422966
18290903330175,-0.7864952683448792,-9.774328231811523,0.09576807171106339,-0.007453070487827063,0.0042588976211845875,0.02182685025036335
18290904567487,-0.7757213711738586,-9.763554573059082,0.12330138683319092,-0.0053236219100654125,0.0010647244052961469,0.0196974016726017
18290905804825,-0.7613561749458313,-9.77552604675293,0.12928690016269684,-0.005589802749454975,0.0,0.0210283063352108
18290907042137,-0.7613561749458313,-9.77791976928711,0.12449848651885986,-0.0029279920272529125,0.0018632676219567657,0.02315775491297245
18290908279450,-0.8080430626869202,-9.75158405303955,0.11013327538967133,-0.0021294488105922937,0.0037265352439135313,0.015438503585755825
18290909516775,-0.767341673374176,-9.763554573059082,0.14484921097755432,-0.0066545275039970875,0.003460354171693325,0.02129448764026165
18290910754100,-0.7948749661445618,-9.738415718078613,0.13287819921970367,-0.0053236219100654125,0.0005323622026480734,0.02661811001598835
18290911991387,-0.7936778664588928,-9.733627319335938,0.11971008777618408,-0.0005323622026480734,-0.0053236219100654125,0.0228915736079216
18290913228725,-0.7757213711738586,-9.75517463684082,0.10295067727565765,0.0010647244052961469,-0.0021294488105922937,0.01756795309484005
18290914466050,-0.8176198601722717,-9.728838920593262,0.05626374110579491,-0.0007985432748682797,-0.0010647244052961469,0.01357523538172245
18290915703387,-0.8343793153762817,-9.757569313049316,0.08499415963888168,0.0018632676219567657,-0.0013309054775163531,0.01756795309484005
18290916940687,-0.8008604645729065,-9.7791166305542,0.10654197633266449,-0.0013309054775163531,0.0002661811013240367,0.013042873702943325
18290918178012,-0.7793126702308655,-9.730035781860352,0.12210428714752197,-0.0013309054775163531,-0.0002661811013240367,0.010381062515079975
18290919415325,-0.7805097699165344,-9.7420072555542,0.1604115217924118,0.00452507846057415,-0.0013309054775163531,0.01357523538172245
18290920652650,-0.828393816947937,-9.745597839355469,0.11252748221158981,0.0063883461989462376,-0.0023956298828125,0.015172322280704975
18290921889950,-0.7745242714881897,-9.714473724365234,0.07900865375995636,0.005855984054505825,-0.005855984054505825,0.0167694091796875
18290923127287,-0.7745242714881897,-9.709685325622559,0.13407529890537262,0.008517795242369175,-0.007453070487827063,0.0138414166867733
18290924364600,-0.811634361743927,-9.676166534423828,0.11971008777618408,0.006122165359556675,-0.008517795242369175,0.015172322280704975
18290925601925,-0.7697358727455139,-9.75397777557373,0.12210428714752197,0.0063883461989462376,-0.0077192517928779125,0.014906140975654125
18290926839250,-0.790086567401886,-9.701305389404297,0.0933738648891449,0.008251613937318325,-0.0007985432748682797,0.01357523538172245
18290928076587,-0.7577648162841797,-9.743204116821289,0.09935937076807022,0.0042588976211845875,-0.004791259765625,0.015172322280704975
18290929313887,-0.7661445736885071,-9.747992515563965,0.1256955862045288,0.00452507846057415,-0.0077192517928779125,0.012776692397892475
18290930551225,-0.8176198601722717,-9.725247383117676,0.07900865375995636,0.0090501569211483,-0.01463996060192585,0.015438503585755825
18290931788537,-0.7852981686592102,-9.710882186889648,0.08259996026754379,0.01117960549890995,-0.014373779296875,0.01756795309484005
18290933025862,-0.7613561749458313,-9.737218856811523,0.11372458189725876,0.007453070487827063,-0.0077192517928779125,0.01357523538172245
18290934263187,-0.8307880163192749,-9.738415718078613,0.1041477769613266,0.008517795242369175,-0.01224433071911335,0.01117960549890995
18290935500500,-0.8212112188339233,-9.75517463684082,0.13407529890537262,0.0138414166867733,-0.01463996060192585,0.00958251953125
18290936737800,-0.7793126702308655,-9.767146110534668,0.09696517139673233,0.01357523538172245,-0.01597086526453495,0.0173017717897892
18290937975125,-0.7757213711738586,-9.759963035583496,0.0933738648891449,0.014373779296875,-0.01410759799182415,0.01224433071911335
18290939212437,-0.8044517636299133,-9.780314445495605,0.12330138683319092,0.01463996060192585,-0.01224433071911335,0.01224433071911335
18290940449775,-0.7852981686592102,-9.803058624267578,0.14484921097755432,0.01410759799182415,-0.01703559048473835,0.012510511092841625
18290941687100,-0.8355764150619507,-9.789891242980957,0.10295067727565765,0.01224433071911335,-0.01597086526453495,0.010381062515079975
18290942924412,-0.8152256608009338,-9.798270225524902,0.08379705995321274,0.01783413253724575,-0.013042873702943325,0.0157046839594841
18290944161725,-0.8104372620582581,-9.78869342803955,0.11013327538967133,0.01836649514734745,-0.0167694091796875,0.01357523538172245
18290945399062,-0.812831461429596,-9.81024169921875,0.09576807171106339,0.01996358297765255,-0.01783413253724575,0.013309055007994175
18290946636387,-0.8092401623725891,-9.819818496704102,0.14365209639072418,0.013309055007994175,-0.02022976242005825,0.01463996060192585
18290947873687,-0.8271967172622681,-9.815030097961426,0.13168109953403473,0.013042873702943325,-0.0210283063352108,0.0173017717897892
18290949111025,-0.8056488633155823,-9.785102844238281,0.13766659796237946,0.01889885775744915,-0.0186326764523983,0.01410759799182415
18290950348362,-0.811634361743927,-9.824606895446777,0.16400282084941864,0.014373779296875,-0.01943122036755085,0.015172322280704975
18290951585662,-0.8140285611152649,-9.81143856048584,0.16519992053508759,0.014906140975654125,-0.0173017717897892,0.01410759799182415
18290952822975,-0.8391677141189575,-9.827000617980957,0.15801730751991272,0.01597086526453495,-0.0228915736079216,0.01117960549890995
18290954060312,-0.8248025178909302,-9.789891242980957,0.1364694982767105,0.01463996060192585,-0.02129448764026165,0.0090501569211483
18290955297612,-0.8259996175765991,-9.799468040466309,0.13287819921970367,0.0167694091796875,-0.0191650390625,0.01224433071911335
18290956534950,-0.8451532125473022,-9.762357711791992,0.1735796183347702,0.0162370465695858,-0.01889885775744915,0.015438503585755825
18290957772237,-0.8092401623725891,-9.783905029296875,0.14844051003456116,0.0167694091796875,-0.0263519287109375,0.0173017717897892
18290959009575,-0.8439561128616333,-9.75517463684082,0.14484921097755432,0.014373779296875,-0.0263519287109375,0.0181003138422966
18290960246900,-0.8164227604866028,-9.761160850524902,0.13527239859104156,0.0162370465695858,-0.02315775491297245,0.0071868896484375
18290961484237,-0.8655039072036743,-9.791088104248047,0.14365209639072418,0.012776692397892475,-0.0220930315554142,0.013042873702943325
18290962721550,-0.8559271097183228,-9.780314445495605,0.11851298809051514,0.014906140975654125,-0.0263519287109375,0.01357523538172245
18290963958850,-0.828393816947937,-9.761160850524902,0.1388636976480484,0.0196974016726017,-0.0215606689453125,0.01410759799182415
18290965196175,-0.8200140595436096,-9.750386238098145,0.1628057211637497,0.0138414166867733,-0.0215606689453125,0.008517795242369175
18290966433500,-0.8415619134902954,-9.71926212310791,0.1256955862045288,0.013042873702943325,-0.02422248013317585,0.01224433071911335
18290967670825,-0.8762778043746948,-9.756372451782227,0.10773907601833344,0.0138414166867733,-0.0247548408806324,0.012776692397892475
18290968908150,-0.8056488633155823,-9.767146110534668,0.09696517139673233,0.012776692397892475,-0.02422248013317585,0.0090501569211483
18290970145462,-0.8571242094039917,-9.7420072555542,0.12330138683319092,0.01357523538172245,-0.02262539230287075,0.007453070487827063
18290971382775,-0.8415619134902954,-9.746795654296875,0.15921440720558167,0.01357523538172245,-0.02129448764026165,0.0042588976211845875
18290972620100,-0.8595184087753296,-9.747992515563965,0.15801730751991272,0.01597086526453495,-0.0247548408806324,0.007985432632267475
18290973857425,-0.8619126081466675,-9.726444244384766,0.1496376097202301,0.0119781494140625,-0.0258195661008358,0.0066545275039970875
18290975094737,-0.8547300100326538,-9.77791976928711,0.11851298809051514,0.00692070834338665,-0.02741665206849575,0.0013309054775163531
18290976332075,-0.8966285586357117,-9.795876502990723,0.1711854189634323,0.008517795242369175,-0.02315775491297245,0.0026618109550327063
18290977569387,-0.8942343592643738,-9.821015357971191,0.16160862147808075,0.012776692397892475,-0.02422248013317585,0.0023956298828125
18290978806687,-0.8978256583213806,-9.771934509277344,0.1604115217924118,0.012510511092841625,-0.0258195661008358,-0.0010647244052961469
18290980044012,-0.889445960521698,-9.805453300476074,0.1496376097202301,0.014906140975654125,-0.02422248013317585,-0.0010647244052961469
18290981281337,-0.9026140570640564,-9.782708168029785,0.1735796183347702,0.01171196810901165,-0.0276828333735466,0.0018632676219567657
18290982518650,-0.8918401598930359,-9.807847023010254,0.14844051003456116,0.0114457868039608,-0.02369011752307415,-0.0018632676219567657
18290983755987,-0.8870517611503601,-9.81024169921875,0.1280897855758667,0.01117960549890995,-0.0228915736079216,-0.0005323622026480734
18290984993287,-0.8834604620933533,-9.819818496704102,0.1628057211637497,0.010381062515079975,-0.02555338479578495,-0.0021294488105922937
18290986230612,-0.8846575617790222,-9.763554573059082,0.1412578970193863,0.01463996060192585,-0.02661811001598835,-0.0013309054775163531
18290987467950,-0.8595184087753296,-9.782708168029785,0.18555063009262085,0.01117960549890995,-0.02555338479578495,-0.0013309054775163531
18290988705250,-0.8762778043746948,-9.804256439208984,0.1628057211637497,0.0077192517928779125,-0.02022976242005825,0.0010647244052961469
18290989942575,-0.8451532125473022,-9.738415718078613,0.16998831927776337,0.013309055007994175,-0.02182685025036335,-0.005057440605014563
18290991179900,-0.8403648138046265,-9.758766174316406,0.15801730751991272,0.01650322787463665,-0.02369011752307415,-0.006122165359556675
18290992417237,-0.8547300100326538,-9.771934509277344,0.1628057211637497,0.01703559048473835,-0.0223592109978199,-0.0077192517928779125
18290993654562,-0.8607155084609985,-9.798270225524902,0.16998831927776337,0.012510511092841625,-0.0196974016726017,-0.010647243820130825
18290994891862,-0.8846575617790222,-9.768342971801758,0.15682020783424377,0.0138414166867733,-0.02315775491297245,-0.014906140975654125
18290996129175,-0.8463503122329712,-9.737218856811523,0.17477671802043915,0.014906140975654125,-0.0244886614382267,-0.005057440605014563
18290997366500,-0.8224083185195923,-9.724050521850586,0.20470423996448517,0.01357523538172245,-0.0234239362180233,-0.005057440605014563
18290998603837,-0.8762778043746948,-9.710882186889648,0.15921440720558167,0.014906140975654125,-0.02182685025036335,-0.010913425125181675
18290999841125,-0.9085995554924011,-9.701305389404297,0.14844051003456116,0.01703559048473835,-0.01889885775744915,-0.0066545275039970875
18291001078462,-0.8702923059463501,-9.7420072555542,0.18914192914962769,0.01836649514734745,-0.0234239362180233,-0.0031941730994731188
18291002315775,-0.8846575617790222,-9.727641105651855,0.15562310814857483,0.0167694091796875,-0.023956298828125,-0.005589802749454975
18291003553112,-0.8535329103469849,-9.72285270690918,0.16519992053508759,0.01597086526453495,-0.02315775491297245,-0.0077192517928779125
18291004790412,-0.8774749040603638,-9.703699111938477,0.1496376097202301,0.01410759799182415,-0.0234239362180233,-0.007985432632267475
18291006027750,-0.8607155084609985,-9.736021041870117,0.20111294090747833,0.01889885775744915,-0.0220930315554142,-0.0071868896484375
18291007265075,-0.8583213090896606,-9.701305389404297,0.17477671802043915,0.01836649514734745,-0.02022976242005825,-0.010381062515079975
18291008502375,-0.8547300100326538,-9.660603523254395,0.152031809091568,0.02129448764026165,-0.02182685025036335,-0.010647243820130825
18291009739712,-0.8319851160049438,-9.670180320739746,0.16160862147808075,0.01943122036755085,-0.0204959437251091,-0.0066545275039970875
18291010977012,-0.8080430626869202,-9.706093788146973,0.19871874153614044,0.0215606689453125,-0.0196974016726017,-0.0066545275039970875
18291012214350,-0.8906430602073669,-9.695320129394531,0.181959331035614,0.02608574740588665,-0.01943122036755085,-0.008783976547420025
18291013451700,-0.8212112188339233,-9.730035781860352,0.16400282084941864,0.02422248013317585,-0.01943122036755085,-0.00692070834338665
18291014688987,-0.8236054182052612,-9.707290649414062,0.16639702022075653,0.0258195661008358,-0.02182685025036335,-0.005855984054505825
18291015926312,-0.8559271097183228,-9.6989107131958,0.16759411990642548,0.0295461006462574,-0.0228915736079216,-0.005855984054505825
18291017163637,-0.8271967172622681,-9.737218856811523,0.13287819921970367,0.0314093679189682,-0.02262539230287075,-0.007453070487827063
18291018400950,-0.8391677141189575,-9.728838920593262,0.1951274424791336,0.02981228195130825,-0.0157046839594841,-0.00958251953125
18291019638275,-0.8942343592643738,-9.710882186889648,0.18555063009262085,0.0292799212038517,-0.01996358297765255,-0.005589802749454975
18291020875600,-0.8906430602073669,-9.734824180603027,0.1711854189634323,0.0268842913210392,-0.0220930315554142,-0.00452507846057415
18291022112900,-0.872686505317688,-9.715670585632324,0.18315643072128296,0.0324740931391716,-0.0210283063352108,-0.0042588976211845875
18291023350237,-0.8188169598579407,-9.709685325622559,0.20111294090747833,0.0340711809694767,-0.0173017717897892,-0.0053236219100654125
18291024587550,-0.8702923059463501,-9.730035781860352,0.18914192914962769,0.0377977155148983,-0.01597086526453495,-0.004791259765625
18291025824875,-0.8355764150619507,-9.709685325622559,0.1711854189634323,0.0385962575674057,-0.01650322787463665,-0.00958251953125
18291027062187,-0.8379706144332886,-9.702502250671387,0.15921440720558167,0.0356682650744915,-0.01703559048473835,-0.0015970865497365594
18291028299512,-0.851138710975647,-9.739612579345703,0.16160862147808075,0.0351359061896801,-0.01836649514734745,-0.0010647244052961469
18291029536825,-0.7972691655158997,-9.703699111938477,0.19393034279346466,0.0396609827876091,-0.01357523538172245,0.0
18291030774150,-0.8331822156906128,-9.727641105651855,0.18794482946395874,0.0346035435795784,-0.013042873702943325,-0.0063883461989462376
18291032011475,-0.8439561128616333,-9.746795654296875,0.21667525172233582,0.0391286201775074,-0.01889885775744915,-0.0026618109550327063
18291033248800,-0.8559271097183228,-9.743204116821289,0.17477671802043915,0.0423227921128273,-0.02022976242005825,-0.0026618109550327063
18291034486112,-0.8846575617790222,-9.732430458068848,0.1867477297782898,0.0401933453977108,-0.01597086526453495,-0.00452507846057415
18291035723425,-0.8475474119186401,-9.739612579345703,0.15322890877723694,0.0415242500603199,-0.014906140975654125,-0.0026618109550327063
18291036960750,-0.8738836050033569,-9.783905029296875,0.1867477297782898,0.0412580706179142,-0.01943122036755085,-0.0042588976211845875
18291038198075,-0.8750807046890259,-9.756372451782227,0.17956513166427612,0.0439198799431324,-0.01650322787463665,0.0013309054775163531
18291039435400,-0.8571242094039917,-9.757569313049316,0.23343466222286224,0.0396609827876091,-0.0138414166867733,-0.00452507846057415
18291040672712,-0.871489405632019,-9.791088104248047,0.2406172752380371,0.0396609827876091,-0.0066545275039970875,-0.0090501569211483
18291041910037,-0.8667010068893433,-9.745597839355469,0.2298433631658554,0.0415242500603199,-0.01357523538172245,-0.012510511092841625
18291043147350,-0.8655039072036743,-9.789891242980957,0.2082955539226532,0.0399271659553051,-0.013309055007994175,-0.01463996060192585
18291044384662,-0.8535329103469849,-9.783905029296875,0.18794482946395874,0.0391286201775074,-0.0114457868039608,-0.0063883461989462376
18291045621975,-0.8667010068893433,-9.803058624267578,0.18914192914962769,0.0409918874502182,-0.0114457868039608,-0.008251613937318325
18291046859287,-0.8774749040603638,-9.799468040466309,0.1711854189634323,0.0444522425532341,-0.013309055007994175,-0.008251613937318325
18291048096625,-0.8774749040603638,-9.77672290802002,0.1867477297782898,0.042855154722929,-0.01117960549890995,-0.0023956298828125
18291049333950,-0.8547300100326538,-9.797073364257812,0.15322890877723694,0.0433875173330307,-0.010913425125181675,-0.01117960549890995
18291050571262,-0.8643068075180054,-9.804256439208984,0.16879121959209442,0.0348697230219841,-0.010114881210029125,-0.0119781494140625
18291051808575,-0.8224083185195923,-9.803058624267578,0.16160862147808075,0.0362006276845932,-0.0063883461989462376,-0.00958251953125
18291053045912,-0.871489405632019,-9.834183692932129,0.21188685297966003,0.0362006276845932,-0.00931633822619915,-0.00692070834338665
18291054283225,-0.8750807046890259,-9.854534149169922,0.21188685297966003,0.0388624407351017,-0.01357523538172245,-0.00931633822619915
18291055520550,-0.8343793153762817,-9.80904483795166,0.21787235140800476,0.0377977155148983,-0.00931633822619915,-0.014906140975654125
18291056757887,-0.8655039072036743,-9.817423820495605,0.20470423996448517,0.0356682650744915,-0.0042588976211845875,-0.012776692397892475
18291057995200,-0.872686505317688,-9.832986831665039,0.18076223134994507,0.0364668108522892,-0.007453070487827063,-0.012776692397892475
18291059232512,-0.8367735147476196,-9.856928825378418,0.2082955539226532,0.0364668108522892,-0.0090501569211483,-0.00931633822619915
18291060469825,-0.7948749661445618,-9.856928825378418,0.19273324310779572,0.0372653529047966,-0.0029279920272529125,-0.015438503585755825
18291061707150,-0.8331822156906128,-9.864110946655273,0.2322375625371933,0.0372653529047966,-0.0037265352439135313,-0.01357523538172245
18291062944487,-0.8583213090896606,-9.841365814208984,0.21188685297966003,0.0396609827876091,-0.006122165359556675,-0.01650322787463665
18291064181787,-0.8331822156906128,-9.823410034179688,0.1975216418504715,0.0327402763068676,-0.00452507846057415,-0.0157046839594841
18291065419125,-0.8164227604866028,-9.815030097961426,0.22625206410884857,0.0330064557492733,-0.0063883461989462376,-0.014906140975654125
18291066656437,-0.849941611289978,-9.84256362915039,0.21787235140800476,0.0354020856320858,-0.007985432632267475,-0.014906140975654125
18291067893750,-0.8319851160049438,-9.830592155456543,0.21667525172233582,0.0343373604118824,-0.004791259765625,-0.01943122036755085
18291069131075,-0.8475474119186401,-9.817423820495605,0.21547815203666687,0.0354020856320858,-0.0005323622026480734,-0.02182685025036335
18291070368400,-0.8307880163192749,-9.835380554199219,0.19393034279346466,0.0377977155148983,-0.0053236219100654125,-0.01836649514734745
18291071605700,-0.8427590131759644,-9.849745750427246,0.24660277366638184,0.0348697230219841,-0.004791259765625,-0.0162370465695858
18291072843050,-0.8212112188339233,-9.823410034179688,0.25498247146606445,0.0346035435795784,-0.0042588976211845875,-0.01597086526453495
18291074080350,-0.7960720658302307,-9.840168952941895,0.26336219906806946,0.03087700717151165,-0.0026618109550327063,-0.0196974016726017
18291075317687,-0.8248025178909302,-9.825803756713867,0.18914192914962769,0.0324740931391716,0.0002661811013240367,-0.01996358297765255
18291076554987,-0.8212112188339233,-9.835380554199219,0.2406172752380371,0.0385962575674057,-0.003460354171693325,-0.01703559048473835
18291077792312,-0.8427590131759644,-9.835380554199219,0.23822307586669922,0.0377977155148983,-0.0029279920272529125,-0.02182685025036335
18291079029637,-0.7805097699165344,-9.847352027893066,0.23702597618103027,0.033272635191679,-0.005589802749454975,-0.01943122036755085
18291080266950,-0.8092401623725891,-9.854534149169922,0.22744916379451752,0.0346035435795784,-0.0042588976211845875,-0.02022976242005825
18291081504275,-0.7769184708595276,-9.789891242980957,0.25737667083740234,0.0354020856320858,-0.0010647244052961469,-0.01783413253724575
18291082741612,-0.7589619159698486,-9.797073364257812,0.18555063009262085,0.0330064557492733,-0.005589802749454975,-0.01943122036755085
18291083978925,-0.7864952683448792,-9.773131370544434,0.22864626348018646,0.0316755510866642,-0.0042588976211845875,-0.02129448764026165
18291085216237,-0.7709329724311829,-9.78869342803955,0.25498247146606445,0.0346035435795784,-0.0063883461989462376,-0.01889885775744915
18291086453550,-0.7733271718025208,-9.807847023010254,0.2825157940387726,0.033272635191679,-0.003460354171693325,-0.01889885775744915
18291087690862,-0.788889467716217,-9.763554573059082,0.21547815203666687,0.033538818359375,0.0010647244052961469,-0.0234239362180233
18291088928187,-0.7817068696022034,-9.728838920593262,0.21428105235099792,0.033272635191679,0.0026618109550327063,-0.0210283063352108
18291090165525,-0.7948749661445618,-9.763554573059082,0.21547815203666687,0.0327402763068676,-0.0018632676219567657,-0.01650322787463665
18291091402825,-0.7805097699165344,-9.758766174316406,0.20111294090747833,0.0322079136967659,-0.004791259765625,-0.01996358297765255
18291092640150,-0.7577648162841797,-9.720458984375,0.25019407272338867,0.0319417305290699,-0.0063883461989462376,-0.0204959437251091
18291093877487,-0.7769184708595276,-9.750386238098145,0.24181437492370605,0.02661811001598835,-0.0090501569211483,-0.0215606689453125
18291095114812,-0.7733271718025208,-9.767146110534668,0.23942017555236816,0.0343373604118824,-0.005589802749454975,-0.0196974016726017
18291096352112,-0.751779317855835,-9.762357711791992,0.22625206410884857,0.0300784632563591,-0.0018632676219567657,-0.0186326764523983
18291097589450,-0.7924807667732239,-9.750386238098145,0.27054479718208313,0.0271504707634449,-0.007453070487827063,-0.0191650390625
18291098826762,-0.7757213711738586,-9.771934509277344,0.2059013545513153,0.0314093679189682,-0.0077192517928779125,-0.02022976242005825
18291100064075,-0.7769184708595276,-9.773131370544434,0.23822307586669922,0.0351359061896801,-0.0039927163161337376,-0.02076212503015995
18291101301400,-0.7852981686592102,-9.797073364257812,0.1975216418504715,0.0356682650744915,0.0002661811013240367,-0.01756795309484005
18291102538712,-0.7493851184844971,-9.847352027893066,0.2082955539226532,0.02981228195130825,0.0002661811013240367,-0.01410759799182415
18291103776037,-0.8271967172622681,-9.874884605407715,0.2777273952960968,0.0316755510866642,-0.0037265352439135313,-0.015438503585755825
18291105013362,-0.8044517636299133,-9.860519409179688,0.2059013545513153,0.0388624407351017,-0.0063883461989462376,-0.01410759799182415
18291106250662,-0.7996633648872375,-9.90241813659668,0.20231004059314728,0.0327402763068676,-0.0037265352439135313,-0.010647243820130825
18291107488000,-0.7864952683448792,-9.90241813659668,0.22625206410884857,0.02794901467859745,-0.0013309054775163531,-0.010647243820130825
18291108725337,-0.8020575642585754,-9.9371337890625,0.21428105235099792,0.0311431884765625,-0.0071868896484375,-0.010913425125181675
18291109962637,-0.7757213711738586,-9.919178009033203,0.2753331959247589,0.0324740931391716,-0.005589802749454975,-0.01224433071911335
18291111199962,-0.7948749661445618,-9.911994934082031,0.2693476974964142,0.033538818359375,-0.008517795242369175,-0.0090501569211483
18291112437287,-0.8200140595436096,-9.9000244140625,0.28969842195510864,0.0276828333735466,-0.0063883461989462376,-0.010381062515079975
18291113674600,-0.7972691655158997,-9.923966407775879,0.20350714027881622,0.0247548408806324,0.0005323622026480734,-0.008517795242369175
18291114911900,-0.7781155705451965,-9.90122127532959,0.25737667083740234,0.0300784632563591,-0.0090501569211483,-0.005057440605014563
18291116149237,-0.7721300721168518,-9.908403396606445,0.2753331959247589,0.02555338479578495,-0.00958251953125,-0.0031941730994731188
18291117386562,-0.7829039692878723,-9.858125686645508,0.26575639843940735,0.02794901467859745,-0.003460354171693325,0.0013309054775163531
18291118623875,-0.7457938194274902,-9.889249801635742,0.25019407272338867,0.0276828333735466,-0.0039927163161337376,0.0
18291119861225,-0.7625532746315002,-9.865307807922363,0.24420857429504395,0.02022976242005825,-0.0018632676219567657,-0.0071868896484375
18291121098525,-0.730231523513794,-9.81263542175293,0.24181437492370605,0.0258195661008358,-0.007453070487827063,-0.0042588976211845875
18291122335825,-0.7422025203704834,-9.832986831665039,0.26096799969673157,0.0220930315554142,-0.013309055007994175,-0.0013309054775163531
18291123573162,-0.7565677165985107,-9.834183692932129,0.2346317619085312,0.02422248013317585,-0.01224433071911335,0.0013309054775163531
18291124810487,-0.8092401623725891,-9.799468040466309,0.24420857429504395,0.0234239362180233,-0.006122165359556675,0.0018632676219567657
18291126047800,-0.7661445736885071,-9.822212219238281,0.243011474609375,0.02369011752307415,-0.0023956298828125,-0.0026618109550327063
18291127285137,-0.7326257228851318,-9.807847023010254,0.24420857429504395,0.02262539230287075,-0.0071868896484375,-0.003460354171693325
18291128522437,-0.7841010689735413,-9.807847023010254,0.2825157940387726,0.01756795309484005,-0.012510511092841625,-0.0023956298828125
18291129759750,-0.7721300721168518,-9.818621635437012,0.2645592987537384,0.01703559048473835,-0.008251613937318325,0.0029279920272529125
18291130997075,-0.730231523513794,-9.882067680358887,0.2645592987537384,0.0220930315554142,-0.0063883461989462376,0.0010647244052961469
18291132234412,-0.7781155705451965,-9.865307807922363,0.26575639843940735,0.02076212503015995,-0.01224433071911335,-0.0013309054775163531
18291133471737,-0.8104372620582581,-9.894038200378418,0.2585738003253937,0.0220930315554142,-0.00984870083630085,-0.0010647244052961469
18291134709050,-0.7841010689735413,-9.898826599121094,0.23104046285152435,0.02661811001598835,-0.010114881210029125,-0.00452507846057415
18291135946362,-0.7386112213134766,-9.884461402893066,0.19871874153614044,0.02262539230287075,-0.01171196810901165,-0.0031941730994731188
18291137183675,-0.7936778664588928,-9.882067680358887,0.22505496442317963,0.01783413253724575,-0.010114881210029125,-0.0010647244052961469
18291138421012,-0.7960720658302307,-9.882067680358887,0.2513911724090576,0.02022976242005825,-0.01117960549890995,0.0018632676219567657
18291139658325,-0.8140285611152649,-9.908403396606445,0.24660277366638184,0.01703559048473835,-0.0063883461989462376,-0.0039927163161337376
18291140895662,-0.7709329724311829,-9.927556991577148,0.2693476974964142,0.0138414166867733,-0.0066545275039970875,-0.0037265352439135313
18291142132975,-0.7601590752601624,-9.86889934539795,0.23942017555236816,0.0173017717897892,-0.013042873702943325,-0.00452507846057415
18291143370287,-0.7769184708595276,-9.897629737854004,0.21667525172233582,0.01650322787463665,-0.004791259765625,-0.005057440605014563
18291144607612,-0.7529764175415039,-9.915586471557617,0.26815059781074524,0.01171196810901165,-0.006122165359556675,-0.0029279920272529125
18291145844937,-0.7924807667732239,-9.87967300415039,0.2561795711517334,0.010381062515079975,-0.008251613937318325,0.0005323622026480734
18291147082237,-0.8176198601722717,-9.882067680358887,0.27653029561042786,0.0063883461989462376,-0.00984870083630085,-0.0013309054775163531
18291148319587,-0.7936778664588928,-9.871294021606445,0.22744916379451752,0.008251613937318325,-0.013042873702943325,-0.0077192517928779125
18291149556900,-0.7553706169128418,-9.852140426635742,0.26575639843940735,0.0063883461989462376,-0.01410759799182415,-0.0063883461989462376
18291150794200,-0.7577648162841797,-9.84615421295166,0.24181437492370605,0.005057440605014563,-0.008251613937318325,-0.006122165359556675
18291152031537,-0.7457938194274902,-9.880870819091797,0.26336219906806946,0.0063883461989462376,-0.010114881210029125,-0.0029279920272529125
18291153268862,-0.7422025203704834,-9.834183692932129,0.19871874153614044,0.0031941730994731188,-0.010647243820130825,-0.0066545275039970875
18291154506175,-0.7577648162841797,-9.847352027893066,0.2849099934101105,-0.0010647244052961469,-0.01410759799182415,-0.0053236219100654125
18291155743512,-0.7649474740028381,-9.856928825378418,0.27413609623908997,0.0010647244052961469,-0.010381062515079975,0.0
18291156980825,-0.7266402244567871,-9.86770248413086,0.25737667083740234,0.007453070487827063,-0.00958251953125,-0.0021294488105922937
18291158218125,-0.7445967197418213,-9.914389610290527,0.28371289372444153,0.005855984054505825,-0.01224433071911335,0.0013309054775163531
18291159455475,-0.7721300721168518,-9.854534149169922,0.2537853717803955,0.004791259765625,-0.0090501569211483,-0.0026618109550327063
18291160692787,-0.767341673374176,-9.860519409179688,0.2406172752380371,-0.0005323622026480734,-0.0023956298828125,-0.00692070834338665
18291161930100,-0.7433996200561523,-9.906009674072266,0.22625206410884857,-0.0013309054775163531,-0.007453070487827063,-0.005855984054505825
18291163167425,-0.7565677165985107,-9.892841339111328,0.2537853717803955,-0.0039927163161337376,-0.0063883461989462376,-0.0042588976211845875
18291164404750,-0.7529764175415039,-9.847352027893066,0.19632454216480255,0.0010647244052961469,-0.01171196810901165,-0.0013309054775163531
18291165642075,-0.7757213711738586,-9.84615421295166,0.18555063009262085,-0.0015970865497365594,-0.015172322280704975,0.0005323622026480734
18291166879400,-0.8020575642585754,-9.874884605407715,0.2106897532939911,-0.0026618109550327063,-0.014906140975654125,-0.003460354171693325
18291168116700,-0.7613561749458313,-9.837775230407715,0.2669534981250763,-0.0037265352439135313,-0.01117960549890995,-0.004791259765625
18291169354037,-0.751779317855835,-9.84615421295166,0.24660277366638184,-0.0007985432748682797,-0.010647243820130825,-0.0037265352439135313
18291170591350,-0.7469909191131592,-9.774328231811523,0.243011474609375,0.0,-0.013042873702943325,-0.0010647244052961469
18291171828650,-0.768538773059845,-9.834183692932129,0.23942017555236816,0.0021294488105922937,-0.014373779296875,0.004791259765625
18291173065987,-0.7661445736885071,-9.816226959228516,0.2669534981250763,-0.0023956298828125,-0.00958251953125,0.0018632676219567657
18291174303312,-0.7481880187988281,-9.813833236694336,0.26575639843940735,-0.00452507846057415,-0.010913425125181675,0.0021294488105922937
18291175540625,-0.7649474740028381,-9.862914085388184,0.28131869435310364,0.0023956298828125,-0.00958251953125,0.00984870083630085
18291176777950,-0.7613561749458313,-9.81024169921875,0.23343466222286224,-0.0023956298828125,-0.01463996060192585,0.0023956298828125
18291178015275,-0.7661445736885071,-9.785102844238281,0.25258827209472656,-0.0005323622026480734,-0.0157046839594841,0.003460354171693325
18291179252587,-0.7565677165985107,-9.807847023010254,0.2585738003253937,0.0007985432748682797,-0.015438503585755825,0.0077192517928779125
18291180489925,-0.7793126702308655,-9.827000617980957,0.2597709000110626,0.0,-0.01703559048473835,0.005855984054505825
18291181727212,-0.7781155705451965,-9.818621635437012,0.2885012924671173,-0.0023956298828125,-0.012510511092841625,0.003460354171693325
18291182964562,-0.768538773059845,-9.793481826782227,0.27054479718208313,-0.0013309054775163531,-0.01117960549890995,0.0053236219100654125
18291184201875,-0.7230489253997803,-9.819818496704102,0.1951274424791336,0.0031941730994731188,-0.01224433071911335,0.005057440605014563
18291185439187,-0.7422025203704834,-9.799468040466309,0.24660277366638184,0.0023956298828125,-0.01463996060192585,0.0037265352439135313
18291186676525,-0.7757213711738586,-9.799468040466309,0.2346317619085312,0.005057440605014563,-0.0173017717897892,0.003460354171693325
18291187913825,-0.7422025203704834,-9.81263542175293,0.23582887649536133,-0.0010647244052961469,-0.0173017717897892,0.0063883461989462376
18291189151150,-0.7338228225708008,-9.769539833068848,0.24660277366638184,-0.0010647244052961469,-0.01889885775744915,0.0031941730994731188
18291190388475,-0.7218518257141113,-9.774328231811523,0.2861070930957794,-0.0026618109550327063,-0.0173017717897892,0.0114457868039608
18291191625775,-0.7386112213134766,-9.764751434326172,0.2513911724090576,-0.0002661811013240367,-0.01463996060192585,0.010114881210029125
18291192863100,-0.7661445736885071,-9.807847023010254,0.25019407272338867,0.0002661811013240367,-0.013309055007994175,0.0077192517928779125
18291194100437,-0.751779317855835,-9.786299705505371,0.26575639843940735,0.0007985432748682797,-0.0167694091796875,0.00984870083630085
18291195337750,-0.7553706169128418,-9.731232643127441,0.2861070930957794,-0.0023956298828125,-0.01756795309484005,0.01117960549890995
18291196575075,-0.768538773059845,-9.81143856048584,0.272938996553421,-0.0021294488105922937,-0.0162370465695858,0.01463996060192585
18291197812375,-0.7769184708595276,-9.823410034179688,0.22744916379451752,0.0,-0.01597086526453495,0.0167694091796875
18291199049725,-0.7972691655158997,-9.81024169921875,0.2214636653661728,0.0010647244052961469,-0.01357523538172245,0.0191650390625
18291200287025,-0.7912836670875549,-9.806650161743164,0.23104046285152435,-0.003460354171693325,-0.0167694091796875,0.014373779296875
18291201524362,-0.8403648138046265,-9.816226959228516,0.25019407272338867,-0.0005323622026480734,-0.01650322787463665,0.014906140975654125
18291202761687,-0.8391677141189575,-9.836577415466309,0.24660277366638184,-0.0013309054775163531,-0.01783413253724575,0.0196974016726017
18291203998987,-0.7948749661445618,-9.787496566772461,0.23942017555236816,0.0037265352439135313,-0.01783413253724575,0.01703559048473835
18291205236325,-0.8008604645729065,-9.81143856048584,0.2777273952960968,0.0005323622026480734,-0.0157046839594841,0.0162370465695858
18291206473637,-0.7960720658302307,-9.824606895446777,0.21547815203666687,-0.006122165359556675,-0.01597086526453495,0.0196974016726017
18291207710962,-0.7924807667732239,-9.832986831665039,0.26575639843940735,-0.0029279920272529125,-0.015438503585755825,0.02182685025036335
18291208948287,-0.8068459630012512,-9.75397777557373,0.23942017555236816,-0.005589802749454975,-0.0114457868039608,0.015438503585755825
18291210185612,-0.8200140595436096,-9.805453300476074,0.22026655077934265,-0.005855984054505825,-0.014906140975654125,0.01463996060192585
18291211422925,-0.8535329103469849,-9.824606895446777,0.23822307586669922,-0.0007985432748682797,-0.014373779296875,0.013309055007994175
18291212660225,-0.7912836670875549,-9.84615421295166,0.22266076505184174,0.0021294488105922937,-0.01171196810901165,0.0210283063352108
18291213897550,-0.7769184708595276,-9.795876502990723,0.23822307586669922,-0.0037265352439135313,-0.007453070487827063,0.01996358297765255
18291215134900,-0.7948749661445618,-9.758766174316406,0.26575639843940735,-0.0042588976211845875,-0.01410759799182415,0.012776692397892475
18291216372225,-0.812831461429596,-9.799468040466309,0.23582887649536133,0.0013309054775163531,-0.01597086526453495,0.01650322787463665
18291217609525,-0.7817068696022034,-9.767146110534668,0.21667525172233582,-0.0015970865497365594,-0.0119781494140625,0.01783413253724575
18291218846837,-0.8176198601722717,-9.84256362915039,0.243011474609375,-0.0029279920272529125,-0.01171196810901165,0.01703559048473835
18291220084162,-0.8224083185195923,-9.800664901733398,0.22505496442317963,-0.005057440605014563,-0.012776692397892475,0.014373779296875
18291221321475,-0.8271967172622681,-9.773131370544434,0.26575639843940735,-0.0013309054775163531,-0.013309055007994175,0.02262539230287075
18291222558800,-0.8176198601722717,-9.804256439208984,0.21547815203666687,-0.0039927163161337376,-0.010381062515079975,0.0157046839594841
18291223796125,-0.8152256608009338,-9.786299705505371,0.2777273952960968,-0.0018632676219567657,-0.006122165359556675,0.01756795309484005
18291225033450,-0.7817068696022034,-9.789891242980957,0.21188685297966003,-0.0018632676219567657,-0.005855984054505825,0.02129448764026165
18291226270762,-0.7733271718025208,-9.794679641723633,0.20949265360832214,-0.0021294488105922937,-0.006122165359556675,0.0220930315554142
18291227508100,-0.7972691655158997,-9.765949249267578,0.22026655077934265,0.0005323622026480734,-0.00692070834338665,0.0186326764523983
18291228745400,-0.8331822156906128,-9.744400978088379,0.2777273952960968,-0.0007985432748682797,-0.00931633822619915,0.0173017717897892
18291229982725,-0.8678981065750122,-9.746795654296875,0.21428105235099792,0.0021294488105922937,-0.00931633822619915,0.01836649514734745
18291231220050,-0.8427590131759644,-9.743204116821289,0.2190694510936737,0.0005323622026480734,-0.0071868896484375,0.01943122036755085
18291232457362,-0.7793126702308655,-9.747992515563965,0.21667525172233582,-0.0010647244052961469,-0.006122165359556675,0.0181003138422966
18291233694687,-0.8092401623725891,-9.782708168029785,0.24181437492370605,0.0010647244052961469,-0.00984870083630085,0.014373779296875
18291234932000,-0.8559271097183228,-9.804256439208984,0.25258827209472656,0.0002661811013240367,-0.005855984054505825,0.010647243820130825
18291236169325,-0.8439561128616333,-9.823410034179688,0.2621650993824005,0.0,-0.0039927163161337376,0.012776692397892475
18291237406675,-0.8391677141189575,-9.761160850524902,0.2597709000110626,0.0015970865497365594,-0.005589802749454975,0.01783413253724575
18291238643962,-0.8415619134902954,-9.806650161743164,0.21787235140800476,0.003460354171693325,-0.0031941730994731188,0.02076212503015995
18291239881287,-0.8200140595436096,-9.793481826782227,0.24660277366638184,0.0037265352439135313,-0.0026618109550327063,0.02555338479578495
18291241118625,-0.8367735147476196,-9.817423820495605,0.2585738003253937,0.0010647244052961469,-0.0077192517928779125,0.0204959437251091
18291242355937,-0.8463503122329712,-9.817423820495605,0.23822307586669922,0.0026618109550327063,-0.0039927163161337376,0.015438503585755825
18291243593262,-0.7829039692878723,-9.823410034179688,0.2585738003253937,-0.0005323622026480734,-0.0029279920272529125,0.01836649514734745
18291244830587,-0.8188169598579407,-9.801861763000488,0.2932897210121155,-0.0018632676219567657,-0.004791259765625,0.02502102218568325
18291246067887,-0.7984662652015686,-9.785102844238281,0.2190694510936737,0.0007985432748682797,-0.0042588976211845875,0.02076212503015995
18291247305212,-0.8056488633155823,-9.78869342803955,0.1999158412218094,0.0037265352439135313,-0.0013309054775163531,0.01783413253724575
18291248542537,-0.7841010689735413,-9.795876502990723,0.2454056739807129,0.0010647244052961469,-0.0013309054775163531,0.0223592109978199
18291249779875,-0.8535329103469849,-9.795876502990723,0.27413609623908997,0.0021294488105922937,0.0026618109550327063,0.02129448764026165
18291251017175,-0.7876923680305481,-9.800664901733398,0.24899697303771973,0.0053236219100654125,0.0018632676219567657,0.0215606689453125
18291252254500,-0.8690952062606812,-9.800664901733398,0.23582887649536133,0.0037265352439135313,0.0021294488105922937,0.02076212503015995
18291253491837,-0.8523358106613159,-9.81024169921875,0.3016694188117981,-0.0021294488105922937,0.0026618109550327063,0.02262539230287075
18291254729137,-0.8104372620582581,-9.794679641723633,0.28131869435310364,0.0023956298828125,0.0002661811013240367,0.02182685025036335
18291255966450,-0.8427590131759644,-9.835380554199219,0.22864626348018646,0.0026618109550327063,-0.0007985432748682797,0.02262539230287075
18291257203775,-0.8331822156906128,-9.84495735168457,0.24181437492370605,0.0018632676219567657,-0.0007985432748682797,0.0247548408806324
18291258441112,-0.8655039072036743,-9.834183692932129,0.25019407272338867,0.0018632676219567657,0.0031941730994731188,0.0234239362180233
18291259678412,-0.8595184087753296,-9.84256362915039,0.22026655077934265,0.0023956298828125,0.0071868896484375,0.0173017717897892
18291260915737,-0.8152256608009338,-9.806650161743164,0.22266076505184174,-0.0002661811013240367,0.003460354171693325,0.02022976242005825
18291262153050,-0.8224083185195923,-9.829395294189453,0.1975216418504715,-0.0010647244052961469,0.005057440605014563,0.02076212503015995
18291263390387,-0.812831461429596,-9.858125686645508,0.20709845423698425,0.0026618109550327063,0.006122165359556675,0.0268842913210392
18291264627725,-0.8487445116043091,-9.834183692932129,0.2106897532939911,0.0013309054775163531,-0.0010647244052961469,0.0263519287109375
18291265865012,-0.8571242094039917,-9.803058624267578,0.21188685297966003,-0.0018632676219567657,0.00452507846057415,0.0244886614382267
18291267102350,-0.8451532125473022,-9.815030097961426,0.23702597618103027,0.0029279920272529125,0.0077192517928779125,0.0252872034907341
18291268339662,-0.812831461429596,-9.837775230407715,0.20470423996448517,0.0039927163161337376,0.0042588976211845875,0.02422248013317585
18291269576987,-0.8343793153762817,-9.84615421295166,0.22505496442317963,0.0002661811013240367,0.0039927163161337376,0.02315775491297245
18291270814300,-0.8080430626869202,-9.801861763000488,0.22266076505184174,-0.0018632676219567657,0.0029279920272529125,0.02182685025036335
18291272051637,-0.8104372620582581,-9.785102844238281,0.21787235140800476,-0.0026618109550327063,0.0021294488105922937,0.02555338479578495
18291273288950,-0.8056488633155823,-9.84615421295166,0.2454056739807129,0.0,0.005855984054505825,0.02981228195130825
18291274526250,-0.7912836670875549,-9.806650161743164,0.24181437492370605,-0.0039927163161337376,0.010114881210029125,0.0186326764523983
18291275763587,-0.828393816947937,-9.817423820495605,0.23822307586669922,-0.0023956298828125,0.00931633822619915,0.02555338479578495
18291277000925,-0.8212112188339233,-9.852140426635742,0.2513911724090576,-0.0029279920272529125,0.01410759799182415,0.02794901467859745
18291278238250,-0.8224083185195923,-9.835380554199219,0.2669534981250763,0.0007985432748682797,0.00984870083630085,0.02848137728869915
18291279475575,-0.8355764150619507,-9.862914085388184,0.2322375625371933,0.0029279920272529125,0.005589802749454975,0.0324740931391716
18291280712875,-0.8523358106613159,-9.837775230407715,0.2645592987537384,-0.0029279920272529125,0.005855984054505825,0.02661811001598835
18291281950212,-0.8535329103469849,-9.84376049041748,0.2717418968677521,-0.0029279920272529125,0.007985432632267475,0.0263519287109375
18291283187525,-0.8008604645729065,-9.862914085388184,0.23104046285152435,-0.007985432632267475,0.006122165359556675,0.0306108258664608
18291284424837,-0.828393816947937,-9.854534149169922,0.28131869435310364,-0.0063883461989462376,0.0053236219100654125,0.0311431884765625
18291285662150,-0.8343793153762817,-9.876082420349121,0.2406172752380371,-0.006122165359556675,0.007453070487827063,0.02661811001598835
18291286899475,-0.8236054182052612,-9.861717224121094,0.2298433631658554,-0.0029279920272529125,0.008251613937318325,0.0282151959836483
18291288136787,-0.8176198601722717,-9.848548889160156,0.22385786473751068,-0.00692070834338665,0.010114881210029125,0.0258195661008358
18291289374125,-0.7864952683448792,-9.821015357971191,0.23702597618103027,-0.00931633822619915,0.006122165359556675,0.02901373989880085
18291290611450,-0.8104372620582581,-9.819818496704102,0.1759738326072693,-0.00692070834338665,0.005057440605014563,0.0306108258664608
18291291848762,-0.8236054182052612,-9.806650161743164,0.24899697303771973,-0.00984870083630085,0.008251613937318325,0.0271504707634449
18291293086087,-0.829590916633606,-9.848548889160156,0.2861070930957794,-0.010647243820130825,0.0119781494140625,0.0311431884765625
18291294323412,-0.8487445116043091,-9.804256439208984,0.26096799969673157,-0.00931633822619915,0.00452507846057415,0.02741665206849575
18291295560725,-0.8415619134902954,-9.84376049041748,0.23104046285152435,-0.00958251953125,0.0042588976211845875,0.0234239362180233
18291296798062,-0.849941611289978,-9.827000617980957,0.2214636653661728,-0.01224433071911335,0.005855984054505825,0.01996358297765255
18291298035375,-0.8547300100326538,-9.816226959228516,0.2717418968677521,-0.01171196810901165,0.0053236219100654125,0.0268842913210392
18291299272700,-0.8271967172622681,-9.789891242980957,0.243011474609375,-0.00984870083630085,0.00692070834338665,0.0263519287109375
18291300510000,-0.8236054182052612,-9.794679641723633,0.22026655077934265,-0.0077192517928779125,0.006122165359556675,0.02369011752307415
18291301747337,-0.8152256608009338,-9.792284965515137,0.2082955539226532,-0.010114881210029125,0.005589802749454975,0.0191650390625
18291302984637,-0.8607155084609985,-9.758766174316406,0.23942017555236816,-0.010381062515079975,0.008517795242369175,0.02076212503015995
18291304221962,-0.8403648138046265,-9.80904483795166,0.2645592987537384,-0.01703559048473835,0.008783976547420025,0.023956298828125
18291305459287,-0.8068459630012512,-9.819818496704102,0.21547815203666687,-0.00958251953125,0.008251613937318325,0.023956298828125
18291306696625,-0.811634361743927,-9.798270225524902,0.22026655077934265,-0.010381062515079975,0.00931633822619915,0.0234239362180233
18291307933937,-0.8236054182052612,-9.824606895446777,0.19632454216480255,-0.008517795242369175,0.0071868896484375,0.0210283063352108
18291309171262,-0.811634361743927,-9.780314445495605,0.25737667083740234,-0.0039927163161337376,0.0029279920272529125,0.0247548408806324
18291310408587,-0.8224083185195923,-9.825803756713867,0.20231004059314728,-0.0114457868039608,0.0066545275039970875,0.0271504707634449
18291311645900,-0.8415619134902954,-9.830592155456543,0.23582887649536133,-0.015172322280704975,0.013309055007994175,0.023956298828125
18291312883212,-0.8571242094039917,-9.849745750427246,0.2106897532939911,-0.0114457868039608,0.005057440605014563,0.02182685025036335
18291314120537,-0.8080430626869202,-9.819818496704102,0.21308395266532898,-0.0186326764523983,0.005855984054505825,0.0210283063352108
18291315357862,-0.8535329103469849,-9.81263542175293,0.23702597618103027,-0.01889885775744915,0.00931633822619915,0.0223592109978199
18291316595175,-0.8439561128616333,-9.819818496704102,0.23702597618103027,-0.013042873702943325,0.00452507846057415,0.02555338479578495
18291317832500,-0.8690952062606812,-9.823410034179688,0.19871874153614044,-0.014373779296875,0.006122165359556675,0.02422248013317585
18291319069812,-0.8176198601722717,-9.81024169921875,0.24181437492370605,-0.01410759799182415,0.007453070487827063,0.02422248013317585
18291320307150,-0.8140285611152649,-9.795876502990723,0.25258827209472656,-0.013309055007994175,0.008517795242369175,0.0228915736079216
18291321544475,-0.7948749661445618,-9.819818496704102,0.27413609623908997,-0.0173017717897892,0.008517795242369175,0.0223592109978199
18291322781787,-0.7864952683448792,-9.806650161743164,0.22026655077934265,-0.01597086526453495,0.003460354171693325,0.0228915736079216
18291324019112,-0.8152256608009338,-9.823410034179688,0.2454056739807129,-0.014373779296875,0.0042588976211845875,0.02076212503015995
18291325256437,-0.8212112188339233,-9.818621635437012,0.26096799969673157,-0.0157046839594841,0.003460354171693325,0.02022976242005825
18291326493750,-0.790086567401886,-9.817423820495605,0.2214636653661728,-0.013042873702943325,0.0031941730994731188,0.0223592109978199
18291327731062,-0.8140285611152649,-9.7791166305542,0.22625206410884857,-0.01597086526453495,0.0018632676219567657,0.0223592109978199
18291328968387,-0.8020575642585754,-9.805453300476074,0.24181437492370605,-0.01996358297765255,0.008251613937318325,0.0223592109978199
18291330205725,-0.7912836670875549,-9.744400978088379,0.21787235140800476,-0.012510511092841625,0.01117960549890995,0.0204959437251091
18291331443037,-0.7876923680305481,-9.72165584564209,0.20350714027881622,-0.01117960549890995,0.0018632676219567657,0.02422248013317585
18291332680362,-0.8487445116043091,-9.747992515563965,0.2214636653661728,-0.01703559048473835,-0.0013309054775163531,0.02129448764026165
18291333917687,-0.8391677141189575,-9.727641105651855,0.2537853717803955,-0.014373779296875,0.0042588976211845875,0.0204959437251091
18291335155000,-0.849941611289978,-9.762357711791992,0.2322375625371933,-0.013309055007994175,0.0,0.0196974016726017
18291336392312,-0.8678981065750122,-9.7791166305542,0.21188685297966003,-0.0138414166867733,0.0005323622026480734,0.02369011752307415
18291337629650,-0.871489405632019,-9.759963035583496,0.21787235140800476,-0.01597086526453495,0.0031941730994731188,0.0191650390625
18291338866950,-0.8535329103469849,-9.718064308166504,0.19273324310779572,-0.01650322787463665,0.0005323622026480734,0.01996358297765255
18291340104287,-0.8212112188339233,-9.739612579345703,0.23702597618103027,-0.014373779296875,-0.0015970865497365594,0.0215606689453125
18291341341600,-0.8212112188339233,-9.725247383117676,0.22505496442317963,-0.01171196810901165,0.0005323622026480734,0.02022976242005825
18291342578912,-0.8475474119186401,-9.77552604675293,0.23343466222286224,-0.01463996060192585,0.004791259765625,0.01836649514734745
18291343816237,-0.8271967172622681,-9.756372451782227,0.20350714027881622,-0.0173017717897892,0.0007985432748682797,0.01943122036755085
18291345053537,-0.8427590131759644,-9.7791166305542,0.22266076505184174,-0.00692070834338665,0.0,0.02315775491297245
18291346290887,-0.8056488633155823,-9.75517463684082,0.19273324310779572,-0.010381062515079975,-0.0018632676219567657,0.0223592109978199
18291347528200,-0.8200140595436096,-9.747992515563965,0.20350714027881622,-0.010647243820130825,-0.0023956298828125,0.02022976242005825
18291348765525,-0.8355764150619507,-9.794679641723633,0.243011474609375,-0.01410759799182415,0.005589802749454975,0.0181003138422966
18291350002837,-0.8343793153762817,-9.770737648010254,0.2561795711517334,-0.010913425125181675,0.0029279920272529125,0.01836649514734745
18291351240175,-0.8631097078323364,-9.762357711791992,0.24420857429504395,-0.01171196810901165,0.0026618109550327063,0.0157046839594841
18291352477487,-0.8367735147476196,-9.771934509277344,0.2059013545513153,-0.00958251953125,0.0015970865497365594,0.0167694091796875
18291353714812,-0.8583213090896606,-9.787496566772461,0.21308395266532898,-0.0090501569211483,-0.0023956298828125,0.01836649514734745
18291354952137,-0.8439561128616333,-9.785102844238281,0.22385786473751068,-0.01410759799182415,0.0,0.0162370465695858
18291356189450,-0.8619126081466675,-9.800664901733398,0.18315643072128296,-0.012510511092841625,-0.0010647244052961469,0.014906140975654125
18291357426775,-0.8906430602073669,-9.764751434326172,0.21547815203666687,-0.015438503585755825,-0.0026618109550327063,0.02182685025036335
18291358664100,-0.8343793153762817,-9.80904483795166,0.19033904373645782,-0.0138414166867733,0.0015970865497365594,0.01463996060192585
18291359901412,-0.8236054182052612,-9.804256439208984,0.2082955539226532,-0.012510511092841625,0.0018632676219567657,0.0119781494140625
18291361138750,-0.8523358106613159,-9.803058624267578,0.2106897532939911,-0.01650322787463665,-0.0026618109550327063,0.015172322280704975
18291362376050,-0.8379706144332886,-9.75517463684082,0.2059013545513153,-0.0119781494140625,-0.004791259765625,0.010647243820130825
18291363613375,-0.8523358106613159,-9.801861763000488,0.2082955539226532,-0.010647243820130825,-0.0018632676219567657,0.00984870083630085
18291364850700,-0.8427590131759644,-9.822212219238281,0.21308395266532898,-0.0119781494140625,0.0031941730994731188,0.014373779296875
18291366088012,-0.8571242094039917,-9.798270225524902,0.2190694510936737,-0.010381062515079975,-0.0005323622026480734,0.014906140975654125
18291367325337,-0.8140285611152649,-9.762357711791992,0.1711854189634323,-0.010647243820130825,0.0031941730994731188,0.01117960549890995
18291368562662,-0.8463503122329712,-9.804256439208984,0.24660277366638184,-0.0063883461989462376,0.0037265352439135313,0.01224433071911335
18291369799987,-0.849941611289978,-9.855731010437012,0.20111294090747833,-0.005057440605014563,-0.0026618109550327063,0.010913425125181675
18291371037312,-0.8259996175765991,-9.836577415466309,0.1867477297782898,-0.010114881210029125,0.0010647244052961469,0.0114457868039608
18291372274612,-0.8403648138046265,-9.77552604675293,0.20350714027881622,-0.0053236219100654125,0.0029279920272529125,0.013309055007994175
18291373511937,-0.828393816947937,-9.817423820495605,0.23582887649536133,-0.0071868896484375,-0.0005323622026480734,0.0063883461989462376
18291374749250,-0.8391677141189575,-9.803058624267578,0.15442600846290588,-0.0063883461989462376,-0.0018632676219567657,0.00984870083630085
18291375986575,-0.8439561128616333,-9.769539833068848,0.23104046285152435,-0.0063883461989462376,-0.0005323622026480734,0.013309055007994175
18291377223912,-0.8547300100326538,-9.750386238098145,0.21547815203666687,-0.0090501569211483,-0.0005323622026480734,0.007985432632267475
18291378461212,-0.8212112188339233,-9.761160850524902,0.1975216418504715,-0.010913425125181675,-0.0026618109550327063,0.00692070834338665
18291379698575,-0.8236054182052612,-9.7791166305542,0.1999158412218094,-0.005589802749454975,0.0015970865497365594,0.005855984054505825
18291380935875,-0.8571242094039917,-9.785102844238281,0.24779987335205078,-0.0063883461989462376,-0.0002661811013240367,0.00984870083630085
18291382173162,-0.8798691034317017,-9.75278091430664,0.22864626348018646,-0.007985432632267475,-0.0037265352439135313,0.01410759799182415
18291383410525,-0.8439561128616333,-9.764751434326172,0.2190694510936737,-0.00984870083630085,-0.0029279920272529125,0.0066545275039970875
18291384647837,-0.9002198576927185,-9.713275909423828,0.1604115217924118,-0.010114881210029125,0.0021294488105922937,0.00452507846057415
18291385885137,-0.812831461429596,-9.731232643127441,0.181959331035614,-0.0077192517928779125,-0.0018632676219567657,0.00452507846057415
18291387122475,-0.8391677141189575,-9.736021041870117,0.21547815203666687,-0.005057440605014563,0.0013309054775163531,0.0005323622026480734
18291388359787,-0.8786720037460327,-9.733627319335938,0.2082955539226532,-0.0015970865497365594,-0.0010647244052961469,-0.0023956298828125
18291389597112,-0.8858546614646912,-9.725247383117676,0.21667525172233582,-0.0026618109550327063,-0.0013309054775163531,0.0005323622026480734
18291390834437,-0.8870517611503601,-9.736021041870117,0.21188685297966003,-0.0037265352439135313,-0.0021294488105922937,0.0015970865497365594
18291392071750,-0.8678981065750122,-9.714473724365234,0.20949265360832214,-0.003460354171693325,-0.0029279920272529125,0.0007985432748682797
18291393309062,-0.872686505317688,-9.713275909423828,0.16998831927776337,-0.00452507846057415,-0.0021294488105922937,0.0031941730994731188
18291394546375,-0.8487445116043091,-9.710882186889648,0.22744916379451752,-0.0010647244052961469,0.003460354171693325,0.0005323622026480734
18291395783712,-0.8978256583213806,-9.697713851928711,0.19153614342212677,-0.007453070487827063,0.004791259765625,-0.0042588976211845875
18291397021050,-0.8523358106613159,-9.697713851928711,0.19033904373645782,-0.004791259765625,0.0007985432748682797,-0.005855984054505825
18291398258362,-0.8319851160049438,-9.713275909423828,0.1759738326072693,0.0021294488105922937,0.0037265352439135313,-0.0013309054775163531
18291399495687,-0.8571242094039917,-9.727641105651855,0.19393034279346466,-0.0026618109550327063,0.0029279920272529125,0.0002661811013240367
18291400733012,-0.8810662031173706,-9.710882186889648,0.20111294090747833,0.003460354171693325,0.0042588976211845875,-0.0015970865497365594
18291401970325,-0.8583213090896606,-9.715670585632324,0.19871874153614044,0.0029279920272529125,0.0037265352439135313,-0.0042588976211845875
18291403207650,-0.8750807046890259,-9.715670585632324,0.1999158412218094,0.005589802749454975,-0.0013309054775163531,-0.0066545275039970875
18291404444975,-0.851138710975647,-9.732430458068848,0.21308395266532898,0.004791259765625,0.005855984054505825,-0.006122165359556675
18291405682275,-0.8355764150619507,-9.75397777557373,0.19632454216480255,0.0037265352439135313,0.010647243820130825,0.0002661811013240367
18291406919600,-0.912190854549408,-9.714473724365234,0.19871874153614044,0.006122165359556675,0.00958251953125,-0.0042588976211845875
18291408156950,-0.8942343592643738,-9.746795654296875,0.17956513166427612,0.003460354171693325,0.0077192517928779125,-0.0042588976211845875
18291409394250,-0.8810662031173706,-9.743204116821289,0.22026655077934265,0.008517795242369175,0.004791259765625,-0.005057440605014563
18291410631562,-0.8786720037460327,-9.773131370544434,0.22505496442317963,0.0114457868039608,0.0066545275039970875,-0.0018632676219567657
18291411868900,-0.8631097078323364,-9.825803756713867,0.21308395266532898,0.007453070487827063,0.00452507846057415,-0.0039927163161337376
18291413106237,-0.8655039072036743,-9.829395294189453,0.1628057211637497,0.0077192517928779125,0.00452507846057415,-0.0042588976211845875
18291414343537,-0.9133879542350769,-9.801861763000488,0.16519992053508759,0.0071868896484375,0.008783976547420025,0.0002661811013240367
18291415580875,-0.8810662031173706,-9.829395294189453,0.1951274424791336,0.00984870083630085,0.003460354171693325,0.0002661811013240367
18291416818175,-0.9193734526634216,-9.837775230407715,0.1843535304069519,0.007453070487827063,0.0023956298828125,0.0018632676219567657
18291418055525,-0.8655039072036743,-9.841365814208984,0.19273324310779572,0.008783976547420025,0.010381062515079975,0.0039927163161337376
18291419292812,-0.9062053561210632,-9.828198432922363,0.22505496442317963,0.0066545275039970875,0.012776692397892475,-0.0031941730994731188
18291420530150,-0.8595184087753296,-9.840168952941895,0.20111294090747833,0.00692070834338665,0.01117960549890995,-0.0029279920272529125
18291421767462,-0.8535329103469849,-9.837775230407715,0.18794482946395874,0.0053236219100654125,0.007985432632267475,-0.0021294488105922937
18291423004787,-0.888248860836029,-9.824606895446777,0.16879121959209442,0.0053236219100654125,0.010381062515079975,-0.0053236219100654125
18291424242100,-0.8463503122329712,-9.821015357971191,0.20111294090747833,0.00692070834338665,0.0063883461989462376,-0.004791259765625
18291425479425,-0.8451532125473022,-9.841365814208984,0.23702597618103027,0.00958251953125,0.005589802749454975,-0.0007985432748682797
18291426716750,-0.8870517611503601,-9.81024169921875,0.2346317619085312,0.0077192517928779125,0.007985432632267475,-0.0042588976211845875
18291427954087,-0.8762778043746948,-9.7791166305542,0.21308395266532898,0.0066545275039970875,0.010114881210029125,-0.004791259765625
18291429191400,-0.828393816947937,-9.7791166305542,0.21428105235099792,0.006122165359556675,0.00984870083630085,-0.003460354171693325
