timestamp_ns,accel_x,accel_y,accel_z,gyro_x,gyro_y,gyro_z
18390366849987,0.1496376097202301,-9.715670585632324,1.3898340463638306,-0.0556318499147892,-0.02502102218568325,-0.0191650390625
18390368087137,0.14006079733371735,-9.749189376831055,1.4030022621154785,-0.0521714948117733,-0.0223592109978199,-0.02182685025036335
18390369324312,0.14484921097755432,-9.732430458068848,1.434126853942871,-0.0516391322016716,-0.0191650390625,-0.01996358297765255
18390370561462,0.17717093229293823,-9.756372451782227,1.4449007511138916,-0.0511067695915699,-0.0228915736079216,-0.0181003138422966
18390371798637,0.14484921097755432,-9.7420072555542,1.3874398469924927,-0.0537685826420784,-0.02076212503015995,-0.0215606689453125
18390373035825,0.13168109953403473,-9.75158405303955,1.460463047027588,-0.052703857421875,-0.0228915736079216,-0.0252872034907341
18390374273012,0.12210428714752197,-9.736021041870117,1.4053964614868164,-0.0543009415268898,-0.0314093679189682,-0.02369011752307415
18390375510150,0.15801730751991272,-9.730035781860352,1.4269442558288574,-0.0495096817612648,-0.02502102218568325,-0.0215606689453125
18390376747312,0.152031809091568,-9.77791976928711,1.3730746507644653,-0.0497758649289608,-0.0234239362180233,-0.02794901467859745
18390377984487,0.1472434103488922,-9.75278091430664,1.3838485479354858,-0.052703857421875,-0.02129448764026165,-0.02848137728869915
18390379221662,0.12210428714752197,-9.72285270690918,1.4173674583435059,-0.0540347620844841,-0.0228915736079216,-0.02848137728869915
18390380458825,0.10175357013940811,-9.756372451782227,1.3958195447921753,-0.0495096817612648,-0.0247548408806324,-0.02608574740588665
18390381695987,0.10534487664699554,-9.72285270690918,1.4006080627441406,-0.0521714948117733,-0.02129448764026165,-0.0338049978017807
18390382933150,0.07182604819536209,-9.730035781860352,1.3934253454208374,-0.0521714948117733,-0.0204959437251091,-0.0351359061896801
18390384170337,0.1256955862045288,-9.720458984375,1.3994109630584717,-0.0508405901491642,-0.01703559048473835,-0.0359344482421875
18390385407487,0.10175357013940811,-9.720458984375,1.4197616577148438,-0.0508405901491642,-0.01703559048473835,-0.0343373604118824
18390386644650,0.1496376097202301,-9.707290649414062,1.3742717504501343,-0.0508405901491642,-0.015438503585755825,-0.02901373989880085
18390387881837,0.0933738648891449,-9.700108528137207,1.4089877605438232,-0.0497758649289608,-0.0191650390625,-0.0306108258664608
18390389118987,0.08499415963888168,-9.709685325622559,1.4030022621154785,-0.0535023994743824,-0.015438503585755825,-0.0399271659553051
18390390356150,0.0802057608962059,-9.697713851928711,1.3982137441635132,-0.0516391322016716,-0.01650322787463665,-0.0388624407351017
18390391593325,0.12210428714752197,-9.718064308166504,1.3934253454208374,-0.0500420443713665,-0.013309055007994175,-0.0388624407351017
18390392830500,0.07781155407428741,-9.740809440612793,1.4101848602294922,-0.0473802350461483,-0.013309055007994175,-0.0391286201775074
18390394067662,0.10055647045373917,-9.757569313049316,1.3539210557937622,-0.0449846051633358,-0.00984870083630085,-0.0372653529047966
18390395304825,0.1364694982767105,-9.734824180603027,1.4197616577148438,-0.0484449602663517,-0.010913425125181675,-0.0425889752805233
18390396542000,0.13048399984836578,-9.709685325622559,1.4113819599151611,-0.04791259765625,-0.01117960549890995,-0.0372653529047966
18390397779150,0.12928690016269684,-9.706093788146973,1.413776159286499,-0.0492435023188591,-0.00692070834338665,-0.0417904332280159
18390399016350,0.10534487664699554,-9.68574333190918,1.4233529567718506,-0.0449846051633358,-0.0071868896484375,-0.0439198799431324
18390400253487,0.11013327538967133,-9.700108528137207,1.43532395362854,-0.0495096817612648,-0.0114457868039608,-0.0423227921128273
18390401490662,0.12210428714752197,-9.695320129394531,1.4077906608581543,-0.047646414488554,-0.0090501569211483,-0.0463155098259449
18390402727850,0.11971008777618408,-9.712079048156738,1.4006080627441406,-0.0463155098259449,-0.0007985432748682797,-0.0425889752805233
18390403965012,0.07900865375995636,-9.695320129394531,1.4006080627441406,-0.0455169677734375,0.0007985432748682797,-0.0420566126704216
18390405202162,0.13407529890537262,-9.708487510681152,1.3922282457351685,-0.0433875173330307,-0.0039927163161337376,-0.0399271659553051
18390406439350,0.12210428714752197,-9.6989107131958,1.3658920526504517,-0.0484449602663517,-0.0023956298828125,-0.0412580706179142
18390407676487,0.10534487664699554,-9.680954933166504,1.414973258972168,-0.04791259765625,0.0026618109550327063,-0.0457831472158432
18390408913687,0.06584054976701736,-9.6989107131958,1.380257248878479,-0.0412580706179142,0.005855984054505825,-0.0415242500603199
18390410150837,0.18555063009262085,-9.68574333190918,1.3778630495071411,-0.0401933453977108,0.0007985432748682797,-0.0412580706179142
18390411388000,0.1735796183347702,-9.679757118225098,1.4233529567718506,-0.0463155098259449,0.0039927163161337376,-0.0439198799431324
18390412625162,0.1412578970193863,-9.676166534423828,1.3515268564224243,-0.043121337890625,0.004791259765625,-0.0436537005007267
18390413862350,0.14484921097755432,-9.709685325622559,1.380257248878479,-0.0417904332280159,0.0026618109550327063,-0.0439198799431324
18390415099500,0.1173158809542656,-9.697713851928711,1.4269442558288574,-0.0415242500603199,0.004791259765625,-0.0377977155148983
18390416336687,0.152031809091568,-9.736021041870117,1.3958195447921753,-0.0375315360724926,0.010913425125181675,-0.038063894957304
18390417573850,0.13407529890537262,-9.757569313049316,1.380257248878479,-0.0354020856320858,0.008517795242369175,-0.0407257080078125
18390418811025,0.1604115217924118,-9.744400978088379,1.3982137441635132,-0.0359344482421875,0.007453070487827063,-0.033538818359375
18390420048187,0.14604631066322327,-9.763554573059082,1.3754688501358032,-0.0420566126704216,0.010114881210029125,-0.0393948033452034
18390421285350,0.09576807171106339,-9.750386238098145,1.3491326570510864,-0.047646414488554,0.0138414166867733,-0.0447184219956398
18390422522512,0.1412578970193863,-9.767146110534668,1.3946224451065063,-0.0441860631108284,0.01463996060192585,-0.0423227921128273
18390423759700,0.1280897855758667,-9.732430458068848,1.3742717504501343,-0.0417904332280159,0.01171196810901165,-0.0385962575674057
18390424996862,0.10295067727565765,-9.768342971801758,1.3491326570510864,-0.0404595248401165,0.01703559048473835,-0.0420566126704216
18390426234025,0.09217676520347595,-9.800664901733398,1.3611036539077759,-0.0407257080078125,0.0196974016726017,-0.0444522425532341
18390427471187,0.14844051003456116,-9.803058624267578,1.3623007535934448,-0.0417904332280159,0.02022976242005825,-0.0460493303835392
18390428708362,0.1173158809542656,-9.787496566772461,1.3527239561080933,-0.0407257080078125,0.0191650390625,-0.0417904332280159
18390429945525,0.19632454216480255,-9.793481826782227,1.3611036539077759,-0.0404595248401165,0.02129448764026165,-0.0420566126704216
18390431182687,0.1364694982767105,-9.81024169921875,1.3850456476211548,-0.0420566126704216,0.02848137728869915,-0.0449846051633358
18390432419875,0.14006079733371735,-9.819818496704102,1.3718775510787964,-0.0396609827876091,0.02901373989880085,-0.042855154722929
18390433657025,0.12330138683319092,-9.807847023010254,1.3455413579940796,-0.0444522425532341,0.023956298828125,-0.0407257080078125
18390434894200,0.11851298809051514,-9.81143856048584,1.3946224451065063,-0.0441860631108284,0.02981228195130825,-0.0415242500603199
18390436131350,0.15682020783424377,-9.806650161743164,1.37906014919281,-0.0436537005007267,0.0340711809694767,-0.0407257080078125
18390437368537,0.19033904373645782,-9.794679641723633,1.3910311460494995,-0.0457831472158432,0.0356682650744915,-0.0460493303835392
18390438605687,0.12689268589019775,-9.780314445495605,1.4089877605438232,-0.047646414488554,0.0314093679189682,-0.0409918874502182
18390439842862,0.16639702022075653,-9.785102844238281,1.3778630495071411,-0.047646414488554,0.033538818359375,-0.0409918874502182
18390441080037,0.1711854189634323,-9.763554573059082,1.380257248878479,-0.0449846051633358,0.0343373604118824,-0.0415242500603199
18390442317212,0.181959331035614,-9.768342971801758,1.357512354850769,-0.0500420443713665,0.0364668108522892,-0.0423227921128273
18390443554362,0.14484921097755432,-9.75397777557373,1.359906554222107,-0.0468478724360466,0.0393948033452034,-0.043121337890625
18390444791537,0.1604115217924118,-9.75397777557373,1.3634978532791138,-0.0492435023188591,0.0364668108522892,-0.0412580706179142
18390446028700,0.16879121959209442,-9.737218856811523,1.3958195447921753,-0.0503082275390625,0.0393948033452034,-0.0425889752805233
18390447265887,0.17477671802043915,-9.728838920593262,1.3982137441635132,-0.0457831472158432,0.0412580706179142,-0.0391286201775074
18390448503037,0.15921440720558167,-9.745597839355469,1.3742717504501343,-0.0484449602663517,0.0481787770986557,-0.0449846051633358
18390449740225,0.14365209639072418,-9.715670585632324,1.37906014919281,-0.0473802350461483,0.0460493303835392,-0.038330078125
18390450977387,0.18555063009262085,-9.716867446899414,1.3479355573654175,-0.0439198799431324,0.0449846051633358,-0.0393948033452034
18390452214537,0.2214636653661728,-9.732430458068848,1.3443442583084106,-0.0468478724360466,0.0481787770986557,-0.0425889752805233
18390453451725,0.20111294090747833,-9.710882186889648,1.3742717504501343,-0.0505744069814682,0.0465816929936409,-0.0369991734623909
18390454688887,0.1759738326072693,-9.730035781860352,1.3694833517074585,-0.0495096817612648,0.0508405901491642,-0.0372653529047966
18390455926062,0.1951274424791336,-9.745597839355469,1.3694833517074585,-0.0455169677734375,0.0473802350461483,-0.038330078125
18390457163237,0.19871874153614044,-9.690531730651855,1.337161660194397,-0.0473802350461483,0.0511067695915699,-0.0433875173330307
18390458400375,0.18794482946395874,-9.714473724365234,1.3946224451065063,-0.0449846051633358,0.0550994873046875,-0.0415242500603199
18390459637550,0.1843535304069519,-9.726444244384766,1.3742717504501343,-0.0455169677734375,0.0540347620844841,-0.033272635191679
18390460874725,0.20709845423698425,-9.736021041870117,1.3742717504501343,-0.0468478724360466,0.0574951171875,-0.0340711809694767
18390462111900,0.2322375625371933,-9.702502250671387,1.3275848627090454,-0.0500420443713665,0.0580274797976017,-0.0338049978017807
18390463349050,0.24181437492370605,-9.676166534423828,1.3766659498214722,-0.0460493303835392,0.0590922012925148,-0.0330064557492733
18390464586212,0.21667525172233582,-9.703699111938477,1.337161660194397,-0.0425889752805233,0.0612216517329216,-0.0362006276845932
18390465823400,0.19393034279346466,-9.692925453186035,1.3862427473068237,-0.0471140518784523,0.0617540143430233,-0.0330064557492733
18390467060562,0.21308395266532898,-9.716867446899414,1.3611036539077759,-0.0460493303835392,0.057228934019804,-0.0377977155148983
18390468297737,0.20111294090747833,-9.708487510681152,1.3299790620803833,-0.0497758649289608,0.0606892891228199,-0.0362006276845932
18390469534900,0.23942017555236816,-9.683348655700684,1.3455413579940796,-0.04791259765625,0.0625525563955307,-0.038330078125
18390470772062,0.24181437492370605,-9.737218856811523,1.3623007535934448,-0.0439198799431324,0.0641496405005455,-0.0316755510866642
18390472009237,0.22026655077934265,-9.701305389404297,1.3874398469924927,-0.0449846051633358,0.0668114572763443,-0.03034464456140995
18390473246387,0.243011474609375,-9.731232643127441,1.338358759880066,-0.0468478724360466,0.0662790909409523,-0.02874755859375
18390474483562,0.24660277366638184,-9.732430458068848,1.358709454536438,-0.0471140518784523,0.0606892891228199,-0.0327402763068676
18390475720737,0.2322375625371933,-9.714473724365234,1.4101848602294922,-0.0412580706179142,0.0676099956035614,-0.0348697230219841
18390476957887,0.21547815203666687,-9.72165584564209,1.358709454536438,-0.0423227921128273,0.066545270383358,-0.0354020856320858
18390478195062,0.25019407272338867,-9.718064308166504,1.37906014919281,-0.0415242500603199,0.0638834610581398,-0.0338049978017807
18390479432225,0.2513911724090576,-9.68574333190918,1.3395558595657349,-0.038330078125,0.0708041712641716,-0.03034464456140995
18390480669400,0.2513911724090576,-9.694122314453125,1.3886369466781616,-0.0375315360724926,0.0649481862783432,-0.02981228195130825
18390481906575,0.272938996553421,-9.659406661987305,1.416170358657837,-0.0346035435795784,0.0662790909409523,-0.0364668108522892
18390483143750,0.2849099934101105,-9.670180320739746,1.3718775510787964,-0.0364668108522892,0.071336530148983,-0.038330078125
18390484380887,0.2777273952960968,-9.635464668273926,1.334767460823059,-0.0338049978017807,0.0689409002661705,-0.0338049978017807
18390485618062,0.22505496442317963,-9.607931137084961,1.3874398469924927,-0.02741665206849575,0.0694732666015625,-0.0306108258664608
18390486855237,0.31124621629714966,-9.619902610778809,1.3670891523361206,-0.02981228195130825,0.0686747208237648,-0.0327402763068676
18390488092400,0.2908955216407776,-9.637859344482422,1.359906554222107,-0.0354020856320858,0.0662790909409523,-0.0300784632563591
18390489329562,0.2885012924671173,-9.588777542114258,1.3910311460494995,-0.02981228195130825,0.0700056254863739,-0.0348697230219841
18390490566762,0.2908955216407776,-9.585186958312988,1.381454348564148,-0.0276828333735466,0.0689409002661705,-0.0351359061896801
18390491803912,0.3172317147254944,-9.563638687133789,1.3682862520217896,-0.0234239362180233,0.0644158273935318,-0.0316755510866642
18390493041087,0.27054479718208313,-9.549273490905762,1.3994109630584717,-0.02555338479578495,0.076127789914608,-0.0338049978017807
18390494278250,0.3100491166114807,-9.566033363342285,1.3778630495071411,-0.023956298828125,0.0710703507065773,-0.0348697230219841
18390495515412,0.2885012924671173,-9.556456565856934,1.3778630495071411,-0.01836649514734745,0.0734659805893898,-0.0327402763068676
18390496752587,0.29807811975479126,-9.587580680847168,1.3491326570510864,-0.01410759799182415,0.0737321600317955,-0.0314093679189682
18390497989750,0.29209262132644653,-9.534908294677734,1.358709454536438,-0.0191650390625,0.0721350759267807,-0.0314093679189682
18390499226925,0.2537853717803955,-9.564835548400879,1.41257905960083,-0.0173017717897892,0.0710703507065773,-0.0351359061896801
18390500464100,0.2849099934101105,-9.555258750915527,1.358709454536438,-0.012776692397892475,0.0739983469247818,-0.033272635191679
18390501701262,0.25258827209472656,-9.582792282104492,1.3491326570510864,-0.0114457868039608,0.0737321600317955,-0.0362006276845932
18390502938425,0.2753331959247589,-9.593565940856934,1.3431471586227417,-0.01171196810901165,0.0737321600317955,-0.0367329902946949
18390504175587,0.3100491166114807,-9.581595420837402,1.359906554222107,-0.01357523538172245,0.0721350759267807,-0.0330064557492733
18390505412750,0.26815059781074524,-9.57441234588623,1.3634978532791138,-0.008251613937318325,0.0785234197974205,-0.0330064557492733
18390506649937,0.31364041566848755,-9.57321548461914,1.3682862520217896,-0.0042588976211845875,0.0769263356924057,-0.038063894957304
18390507887087,0.27054479718208313,-9.57201862335205,1.3874398469924927,-0.00692070834338665,0.0737321600317955,-0.0377977155148983
18390509124275,0.2908955216407776,-9.604340553283691,1.3563152551651,-0.005057440605014563,0.0755954310297966,-0.0377977155148983
18390510361412,0.27413609623908997,-9.647436141967773,1.3634978532791138,-0.0042588976211845875,0.0737321600317955,-0.0356682650744915
18390511598600,0.28730419278144836,-9.605537414550781,1.3395558595657349,-0.003460354171693325,0.0747968852519989,-0.038330078125
18390512835762,0.3232172429561615,-9.624691009521484,1.3706804513931274,-0.0031941730994731188,0.0731998011469841,-0.0404595248401165
18390514072925,0.3315969407558441,-9.659406661987305,1.3838485479354858,0.0026618109550327063,0.07666015625,-0.038063894957304
18390515310100,0.2753331959247589,-9.659406661987305,1.3706804513931274,0.004791259765625,0.0758616104722023,-0.033272635191679
18390516547275,0.35075056552886963,-9.645041465759277,1.3958195447921753,0.003460354171693325,0.0734659805893898,-0.0369991734623909
18390517784450,0.3124433159828186,-9.627084732055664,1.4006080627441406,0.0066545275039970875,0.0750630721449852,-0.0385962575674057
18390519021612,0.3100491166114807,-9.622296333312988,1.3754688501358032,0.00692070834338665,0.0785234197974205,-0.0404595248401165
18390520258762,0.35075056552886963,-9.660603523254395,1.3910311460494995,0.00931633822619915,0.0739983469247818,-0.0364668108522892
18390521495950,0.33279404044151306,-9.667786598205566,1.380257248878479,0.01171196810901165,0.0779910609126091,-0.0322079136967659
18390522733100,0.33518823981285095,-9.666589736938477,1.3778630495071411,0.0114457868039608,0.0747968852519989,-0.0348697230219841
18390523970287,0.35434186458587646,-9.636661529541016,1.3910311460494995,0.015172322280704975,0.0763939768075943,-0.0404595248401165
18390525207450,0.33279404044151306,-9.65222454071045,1.3850456476211548,0.01597086526453495,0.0769263356924057,-0.0367329902946949
18390526444612,0.37469255924224854,-9.658209800720215,1.4089877605438232,0.01650322787463665,0.0763939768075943,-0.0369991734623909
18390527681787,0.3974374830722809,-9.579200744628906,1.4520833492279053,0.02022976242005825,0.0745307058095932,-0.038063894957304
18390528918975,0.3734954595565796,-9.640253067016602,1.4413094520568848,0.0220930315554142,0.07666015625,-0.0372653529047966
18390530156112,0.3687070608139038,-9.617507934570312,1.4221558570861816,0.0247548408806324,0.0827823206782341,-0.0340711809694767
18390531393275,0.3579331636428833,-9.65222454071045,1.3970166444778442,0.02369011752307415,0.0726674422621727,-0.0356682650744915
18390532630450,0.3627215623855591,-9.660603523254395,1.4065935611724854,0.02422248013317585,0.0747968852519989,-0.0399271659553051
18390533867637,0.3495534360408783,-9.62828254699707,1.43532395362854,0.0295461006462574,0.0774587020277977,-0.0348697230219841
18390535104800,0.3064578175544739,-9.635464668273926,1.460463047027588,0.0282151959836483,0.080919049680233,-0.0441860631108284
18390536341950,0.34356793761253357,-9.648633003234863,1.4006080627441406,0.0322079136967659,0.0787896066904068,-0.0404595248401165
18390537579137,0.31603461503982544,-9.646238327026367,1.3611036539077759,0.0322079136967659,0.0750630721449852,-0.0377977155148983
18390538816287,0.3411737382411957,-9.635464668273926,1.3970166444778442,0.0327402763068676,0.0777248814702034,-0.0396609827876091
18390540053462,0.3315969407558441,-9.653421401977539,1.4221558570861816,0.0351359061896801,0.0747968852519989,-0.0348697230219841
18390541290625,0.3124433159828186,-9.707290649414062,1.4077906608581543,0.0340711809694767,0.071868896484375,-0.0367329902946949
18390542527812,0.3148375153541565,-9.715670585632324,1.434126853942871,0.0354020856320858,0.0795881450176239,-0.0420566126704216
18390543764962,0.30286651849746704,-9.708487510681152,1.41257905960083,0.0372653529047966,0.0774587020277977,-0.042855154722929
18390545002137,0.30885201692581177,-9.700108528137207,1.3934253454208374,0.0354020856320858,0.0753292515873909,-0.0401933453977108
18390546239312,0.2825157940387726,-9.715670585632324,1.3634978532791138,0.0372653529047966,0.0787896066904068,-0.0415242500603199
18390547476475,0.28131869435310364,-9.771934509277344,1.4030022621154785,0.0364668108522892,0.080919049680233,-0.0364668108522892
18390548713625,0.2885012924671173,-9.782708168029785,1.4269442558288574,0.0348697230219841,0.0771925151348114,-0.0444522425532341
18390549950812,0.32202014327049255,-9.761160850524902,1.357512354850769,0.033272635191679,0.0817175954580307,-0.043121337890625
18390551187962,0.272938996553421,-9.7420072555542,1.4089877605438232,0.0354020856320858,0.0753292515873909,-0.0447184219956398
18390552425137,0.3100491166114807,-9.767146110534668,1.4245500564575195,0.0401933453977108,0.0771925151348114,-0.0511067695915699
18390553662312,0.31124621629714966,-9.781511306762695,1.4173674583435059,0.0343373604118824,0.0841132253408432,-0.0513729527592659
18390554899475,0.32441434264183044,-9.774328231811523,1.4484920501708984,0.0356682650744915,0.081451416015625,-0.043121337890625
18390556136662,0.35075056552886963,-9.799468040466309,1.4484920501708984,0.0375315360724926,0.0841132253408432,-0.0492435023188591
18390557373837,0.3124433159828186,-9.81024169921875,1.3958195447921753,0.038330078125,0.0854441300034523,-0.043121337890625
18390558611000,0.3447650372982025,-9.822212219238281,1.4089877605438232,0.0391286201775074,0.0833146795630455,-0.038063894957304
18390559848150,0.3172317147254944,-9.804256439208984,1.43532395362854,0.0396609827876091,0.0819837749004364,-0.0369991734623909
18390561085312,0.35075056552886963,-9.782708168029785,1.4676456451416016,0.0420566126704216,0.0843794047832489,-0.0348697230219841
18390562322475,0.3124433159828186,-9.804256439208984,1.4772224426269531,0.0396609827876091,0.0846455842256546,-0.0330064557492733
18390563559662,0.35673606395721436,-9.832986831665039,1.456871747970581,0.0375315360724926,0.0859764963388443,-0.0351359061896801
18390564796825,0.3495534360408783,-9.836577415466309,1.455674648284912,0.0391286201775074,0.0825161412358284,-0.0369991734623909
18390566034000,0.3280056416988373,-9.81024169921875,1.4245500564575195,0.0439198799431324,0.0833146795630455,-0.0351359061896801
18390567271150,0.3423708379268646,-9.804256439208984,1.4449007511138916,0.0415242500603199,0.090501569211483,-0.0362006276845932
18390568508325,0.37229835987091064,-9.855731010437012,1.4879963397979736,0.0367329902946949,0.0902353897690773,-0.0356682650744915
18390569745500,0.3447650372982025,-9.847352027893066,1.4616601467132568,0.0377977155148983,0.0841132253408432,-0.03034464456140995
18390570982650,0.37469255924224854,-9.824606895446777,1.4101848602294922,0.0362006276845932,0.0859764963388443,-0.0292799212038517
18390572219825,0.3471592366695404,-9.803058624267578,1.4257471561431885,0.0377977155148983,0.0846455842256546,-0.02741665206849575
18390573457000,0.39384618401527405,-9.80904483795166,1.4748282432556152,0.0396609827876091,0.0849117711186409,-0.0204959437251091
18390574694175,0.4034229815006256,-9.803058624267578,1.4030022621154785,0.0385962575674057,0.0873074010014534,-0.0258195661008358
18390575931337,0.3447650372982025,-9.817423820495605,1.4449007511138916,0.0396609827876091,0.0976884588599205,-0.0258195661008358
18390577168512,0.3519476652145386,-9.821015357971191,1.4676456451416016,0.0377977155148983,0.0886383056640625,-0.02076212503015995
18390578405675,0.3711012601852417,-9.791088104248047,1.460463047027588,0.0396609827876091,0.0819837749004364,-0.0181003138422966
18390579642825,0.35673606395721436,-9.825803756713867,1.4688427448272705,0.033272635191679,0.0889044851064682,-0.0223592109978199
18390580880000,0.3519476652145386,-9.801861763000488,1.4257471561431885,0.03087700717151165,0.0873074010014534,-0.0258195661008358
18390582117162,0.3687070608139038,-9.783905029296875,1.479616641998291,0.033538818359375,0.0891706645488739,-0.02182685025036335
18390583354337,0.3447650372982025,-9.798270225524902,1.482010841369629,0.0340711809694767,0.085710309445858,-0.02369011752307415
18390584591525,0.3280056416988373,-9.815030097961426,1.4449007511138916,0.033538818359375,0.0803866907954216,-0.0162370465695858
18390585828662,0.3076549172401428,-9.794679641723633,1.4879963397979736,0.0322079136967659,0.0886383056640625,-0.01756795309484005
18390587065837,0.3603273630142212,-9.798270225524902,1.4425065517425537,0.0311431884765625,0.0918324738740921,-0.0244886614382267
18390588303012,0.3447650372982025,-9.825803756713867,1.437718152999878,0.02874755859375,0.0830485001206398,-0.0271504707634449
18390589540187,0.3148375153541565,-9.782708168029785,1.4951789379119873,0.0282151959836483,0.0822499617934227,-0.01943122036755085
18390590777337,0.35673606395721436,-9.786299705505371,1.4700398445129395,0.02741665206849575,0.0889044851064682,-0.01703559048473835
18390592014512,0.3926490843296051,-9.874884605407715,1.4640543460845947,0.0300784632563591,0.0920986607670784,-0.0204959437251091
18390593251712,0.3531447649002075,-9.823410034179688,1.4664485454559326,0.02741665206849575,0.0878397598862648,-0.01996358297765255
18390594488837,0.33997663855552673,-9.865307807922363,1.4544775485992432,0.0258195661008358,0.0883721262216568,-0.0167694091796875
18390595726037,0.36152446269989014,-9.883264541625977,1.436521053314209,0.0268842913210392,0.0907677561044693,-0.01756795309484005
18390596963175,0.3411737382411957,-9.852140426635742,1.43532395362854,0.0292799212038517,0.0907677561044693,-0.01410759799182415
18390598200362,0.34596213698387146,-9.84495735168457,1.4472949504852295,0.0210283063352108,0.0902353897690773,-0.01410759799182415
18390599437537,0.3711012601852417,-9.882067680358887,1.4640543460845947,0.02262539230287075,0.0891706645488739,-0.0167694091796875
18390600674687,0.3531447649002075,-9.86650562286377,1.4664485454559326,0.02315775491297245,0.0854441300034523,-0.0167694091796875
18390601911862,0.3555389642715454,-9.884461402893066,1.4233529567718506,0.015438503585755825,0.0875735804438591,-0.02022976242005825
18390603149025,0.3902548849582672,-9.835380554199219,1.5107412338256836,0.01783413253724575,0.0897030308842659,-0.0173017717897892
18390604386200,0.3998316824436188,-9.819818496704102,1.5203181505203247,0.023956298828125,0.0889044851064682,-0.01463996060192585
18390605623350,0.3627215623855591,-9.819818496704102,1.5251065492630005,0.01756795309484005,0.0902353897690773,-0.010647243820130825
18390606860537,0.3902548849582672,-9.858125686645508,1.4832079410552979,0.0138414166867733,0.0913001149892807,-0.0162370465695858
18390608097700,0.3998316824436188,-9.832986831665039,1.455674648284912,0.0173017717897892,0.091033935546875,-0.0138414166867733
18390609334875,0.395043283700943,-9.84376049041748,1.4676456451416016,0.01836649514734745,0.0897030308842659,-0.0071868896484375
18390610572050,0.40940847992897034,-9.84256362915039,1.4915876388549805,0.01703559048473835,0.0846455842256546,-0.0119781494140625
18390611809200,0.4225766062736511,-9.84376049041748,1.413776159286499,0.01756795309484005,0.0825161412358284,-0.0077192517928779125
18390613046375,0.395043283700943,-9.865307807922363,1.4616601467132568,0.010647243820130825,0.0891706645488739,-0.005855984054505825
18390614283525,0.38905778527259827,-9.86650562286377,1.459265947341919,0.01171196810901165,0.0936957448720932,-0.0037265352439135313
18390615520712,0.41778820753097534,-9.84376049041748,1.4425065517425537,0.01410759799182415,0.0878397598862648,-0.00452507846057415
18390616757875,0.36152446269989014,-9.822212219238281,1.4700398445129395,0.012510511092841625,0.0867750346660614,-0.0042588976211845875
18390617995050,0.4010287821292877,-9.827000617980957,1.5119383335113525,0.0119781494140625,0.0891706645488739,-0.0021294488105922937
18390619232212,0.3818751871585846,-9.815030097961426,1.4688427448272705,0.01117960549890995,0.0897030308842659,-0.0023956298828125
18390620469387,0.4082113802433014,-9.87967300415039,1.5143325328826904,0.00931633822619915,0.0889044851064682,-0.0031941730994731188
18390621706537,0.395043283700943,-9.84256362915039,1.45806884765625,0.01357523538172245,0.0873074010014534,0.0023956298828125
18390622943712,0.3974374830722809,-9.849745750427246,1.437718152999878,0.013042873702943325,0.0851779505610466,0.0
18390624180887,0.41778820753097534,-9.889249801635742,1.4963760375976562,0.010381062515079975,0.0827823206782341,0.0018632676219567657
18390625418075,0.4321534037590027,-9.832986831665039,1.4856021404266357,0.0114457868039608,0.0843794047832489,0.004791259765625
18390626655237,0.38307228684425354,-9.827000617980957,1.4449007511138916,0.008783976547420025,0.0859764963388443,0.0026618109550327063
18390627892387,0.4141969084739685,-9.84256362915039,1.4317326545715332,0.00931633822619915,0.0838470458984375,0.0071868896484375
18390629129537,0.41778820753097534,-9.816226959228516,1.5131354331970215,0.00984870083630085,0.080919049680233,0.00958251953125
18390630366712,0.40222588181495667,-9.86650562286377,1.479616641998291,0.00931633822619915,0.0785234197974205,0.0077192517928779125
18390631603912,0.40940847992897034,-9.841365814208984,1.4856021404266357,0.00931633822619915,0.0803866907954216,0.00958251953125
18390632841062,0.4034229815006256,-9.817423820495605,1.4389152526855469,0.008783976547420025,0.0801205113530159,0.006122165359556675
18390634078237,0.41060560941696167,-9.800664901733398,1.4867992401123047,0.0063883461989462376,0.0806528702378273,0.00958251953125
18390635315387,0.4405331015586853,-9.798270225524902,1.4987702369689941,0.0066545275039970875,0.0867750346660614,0.00692070834338665
18390636552587,0.4082113802433014,-9.783905029296875,1.4616601467132568,0.01224433071911335,0.0806528702378273,0.01171196810901165
18390637789725,0.4572925269603729,-9.81263542175293,1.502361536026001,0.00931633822619915,0.07666015625,0.02129448764026165
18390639026912,0.44771572947502136,-9.78869342803955,1.48081374168396,0.0063883461989462376,0.0793219655752182,0.015172322280704975
18390640264075,0.4213795065879822,-9.764751434326172,1.4891934394836426,0.00692070834338665,0.081451416015625,0.0162370465695858
18390641501250,0.424970805644989,-9.749189376831055,1.4664485454559326,0.00692070834338665,0.0745307058095932,0.015438503585755825
18390642738412,0.4273650050163269,-9.81263542175293,1.4903905391693115,0.0039927163161337376,0.0731998011469841,0.01889885775744915
18390643975575,0.424970805644989,-9.792284965515137,1.4939818382263184,0.0031941730994731188,0.0771925151348114,0.0167694091796875
18390645212750,0.4225766062736511,-9.737218856811523,1.4640543460845947,0.0053236219100654125,0.0737321600317955,0.01703559048473835
18390646449925,0.40701428055763245,-9.7420072555542,1.4879963397979736,0.00452507846057415,0.0731998011469841,0.0204959437251091
18390647687075,0.4357447028160095,-9.765949249267578,1.4724340438842773,0.0029279920272529125,0.0737321600317955,0.01756795309484005
18390648924262,0.43694180250167847,-9.804256439208984,1.4676456451416016,0.0023956298828125,0.0689409002661705,0.01650322787463665
18390650161412,0.46327802538871765,-9.835380554199219,1.4413094520568848,0.0013309054775163531,0.0705379918217659,0.01996358297765255
18390651398600,0.45250412821769714,-9.792284965515137,1.4329297542572021,-0.0002661811013240367,0.0676099956035614,0.02422248013317585
18390652635750,0.40222588181495667,-9.806650161743164,1.4305355548858643,-0.0010647244052961469,0.0652143657207489,0.02129448764026165
18390653872937,0.4034229815006256,-9.824606895446777,1.4616601467132568,-0.0031941730994731188,0.0625525563955307,0.0215606689453125
18390655110100,0.40462008118629456,-9.847352027893066,1.499967336654663,-0.0023956298828125,0.0668114572763443,0.0223592109978199
18390656347262,0.37828385829925537,-9.816226959228516,1.4724340438842773,0.0002661811013240367,0.0668114572763443,0.02076212503015995
18390657584425,0.41539400815963745,-9.827000617980957,1.4413094520568848,-0.005589802749454975,0.0678761824965477,0.02369011752307415
18390658821587,0.4058171808719635,-9.86770248413086,1.4209587574005127,-0.0010647244052961469,0.06707763671875,0.0300784632563591
18390660058762,0.4165911078453064,-9.84495735168457,1.4221558570861816,-0.0021294488105922937,0.0649481862783432,0.02369011752307415
18390661295950,0.3866635859012604,-9.84376049041748,1.416170358657837,-0.005057440605014563,0.0617540143430233,0.0234239362180233
18390662533112,0.40701428055763245,-9.841365814208984,1.456871747970581,-0.005057440605014563,0.0612216517329216,0.02502102218568325
18390663770275,0.4213795065879822,-9.861717224121094,1.478419542312622,-0.00692070834338665,0.0609554722905159,0.0244886614382267
18390665007450,0.42856210470199585,-9.838972091674805,1.4269442558288574,-0.007985432632267475,0.0582936592400074,0.02369011752307415
18390666244600,0.39145198464393616,-9.854534149169922,1.41257905960083,-0.007453070487827063,0.0612216517329216,0.0258195661008358
18390667481787,0.39384618401527405,-9.859322547912598,1.4879963397979736,-0.0037265352439135313,0.0588260218501091,0.02502102218568325
18390668718950,0.4141969084739685,-9.824606895446777,1.4293384552001953,-0.01117960549890995,0.0569627545773983,0.02182685025036335
18390669956112,0.3926490843296051,-9.870096206665039,1.4688427448272705,-0.01171196810901165,0.0561642125248909,0.02022976242005825
18390671193300,0.38307228684425354,-9.86650562286377,1.4233529567718506,-0.00984870083630085,0.0574951171875,0.01889885775744915
18390672430450,0.4082113802433014,-9.895236015319824,1.455674648284912,-0.010647243820130825,0.0566965714097023,0.02262539230287075
18390673667637,0.3758896589279175,-9.861717224121094,1.436521053314209,-0.012510511092841625,0.0529700368642807,0.02741665206849575
18390674904800,0.3758896589279175,-9.848548889160156,1.434126853942871,-0.0204959437251091,0.0548333041369915,0.0223592109978199
18390676141962,0.38307228684425354,-9.872490882873535,1.4209587574005127,-0.01756795309484005,0.0532362200319767,0.0234239362180233
18390677379125,0.37828385829925537,-9.883264541625977,1.4197616577148438,-0.014373779296875,0.0521714948117733,0.02129448764026165
18390678616300,0.4034229815006256,-9.885659217834473,1.4065935611724854,-0.012776692397892475,0.0495096817612648,0.0157046839594841
18390679853450,0.39863458275794983,-9.865307807922363,1.4305355548858643,-0.02262539230287075,0.0481787770986557,0.0173017717897892
18390681090625,0.4357447028160095,-9.852140426635742,1.4676456451416016,-0.0215606689453125,0.0516391322016716,0.02315775491297245
18390682327800,0.36990416049957275,-9.829395294189453,1.4018051624298096,-0.02076212503015995,0.0455169677734375,0.02661811001598835
18390683564975,0.3878606855869293,-9.841365814208984,1.413776159286499,-0.0215606689453125,0.047646414488554,0.0204959437251091
18390684802150,0.41539400815963745,-9.835380554199219,1.4401123523712158,-0.03034464456140995,0.0508405901491642,0.02262539230287075
18390686039312,0.37469255924224854,-9.80904483795166,1.4257471561431885,-0.02741665206849575,0.0452507846057415,0.02608574740588665
18390687276487,0.3998316824436188,-9.774328231811523,1.4269442558288574,-0.0228915736079216,0.0436537005007267,0.02422248013317585
18390688513637,0.41299980878829956,-9.791088104248047,1.5059528350830078,-0.0196974016726017,0.0452507846057415,0.0210283063352108
18390689750812,0.40462008118629456,-9.803058624267578,1.4496891498565674,-0.02661811001598835,0.0449846051633358,0.01783413253724575
18390690987975,0.3711012601852417,-9.801861763000488,1.4065935611724854,-0.0252872034907341,0.0452507846057415,0.02076212503015995
18390692225150,0.4034229815006256,-9.792284965515137,1.3946224451065063,-0.0258195661008358,0.043121337890625,0.014906140975654125
18390693462312,0.39863458275794983,-9.793481826782227,1.4401123523712158,-0.02874755859375,0.0401933453977108,0.0204959437251091
18390694699500,0.36152446269989014,-9.781511306762695,1.381454348564148,-0.02848137728869915,0.0401933453977108,0.01650322787463665
18390695936637,0.3926490843296051,-9.792284965515137,1.380257248878479,-0.0271504707634449,0.0393948033452034,0.0162370465695858
18390697173825,0.35673606395721436,-9.739612579345703,1.4101848602294922,-0.02608574740588665,0.0393948033452034,0.0157046839594841
18390698410987,0.3627215623855591,-9.7420072555542,1.4329297542572021,-0.0306108258664608,0.0385962575674057,0.0138414166867733
18390699648162,0.37229835987091064,-9.77552604675293,1.3994109630584717,-0.0322079136967659,0.0367329902946949,0.01357523538172245
18390700885337,0.37469255924224854,-9.765949249267578,1.416170358657837,-0.0359344482421875,0.0415242500603199,0.0162370465695858
18390702122512,0.3411737382411957,-9.782708168029785,1.3970166444778442,-0.0362006276845932,0.0388624407351017,0.02022976242005825
18390703359662,0.3411737382411957,-9.793481826782227,1.3682862520217896,-0.0330064557492733,0.0388624407351017,0.01943122036755085
18390704596825,0.32680854201316833,-9.740809440612793,1.3611036539077759,-0.0319417305290699,0.0362006276845932,0.012776692397892475
18390705834000,0.3423708379268646,-9.792284965515137,1.3503297567367554,-0.02901373989880085,0.03087700717151165,0.01756795309484005
18390707071162,0.29209262132644653,-9.78869342803955,1.4077906608581543,-0.0340711809694767,0.0364668108522892,0.0210283063352108
18390708308350,0.3363853394985199,-9.771934509277344,1.3694833517074585,-0.0348697230219841,0.0375315360724926,0.010913425125181675
18390709545500,0.3363853394985199,-9.817423820495605,1.3658920526504517,-0.0346035435795784,0.0324740931391716,0.01357523538172245
18390710782675,0.33997663855552673,-9.806650161743164,1.3180080652236938,-0.0316755510866642,0.02901373989880085,0.0181003138422966
18390712019850,0.3016694188117981,-9.77552604675293,1.3670891523361206,-0.0377977155148983,0.0343373604118824,0.0157046839594841
18390713257012,0.30526071786880493,-9.81143856048584,1.3838485479354858,-0.0354020856320858,0.0316755510866642,0.013309055007994175
18390714494187,0.3471592366695404,-9.785102844238281,1.382651448249817,-0.033272635191679,0.02661811001598835,0.015172322280704975
18390715731337,0.34356793761253357,-9.77552604675293,1.414973258972168,-0.033538818359375,0.0338049978017807,0.01410759799182415
18390716968512,0.3531447649002075,-9.797073364257812,1.3850456476211548,-0.0311431884765625,0.0316755510866642,0.012776692397892475
18390718205675,0.3387795388698578,-9.780314445495605,1.3946224451065063,-0.0356682650744915,0.0354020856320858,0.010913425125181675
18390719442862,0.34356793761253357,-9.817423820495605,1.313219666481018,-0.03087700717151165,0.0372653529047966,0.01889885775744915
18390720680025,0.3471592366695404,-9.806650161743164,1.3180080652236938,-0.02422248013317585,0.033272635191679,0.02129448764026165
18390721917200,0.3280056416988373,-9.832986831665039,1.3706804513931274,-0.03034464456140995,0.03034464456140995,0.01889885775744915
18390723154362,0.34835633635520935,-9.840168952941895,1.3670891523361206,-0.0306108258664608,0.0282151959836483,0.0196974016726017
18390724391512,0.32441434264183044,-9.794679641723633,1.3886369466781616,-0.0300784632563591,0.0316755510866642,0.01650322787463665
18390725628687,0.32202014327049255,-9.783905029296875,1.3886369466781616,-0.02848137728869915,0.02874755859375,0.014906140975654125
18390726865875,0.3124433159828186,-9.75517463684082,1.3874398469924927,-0.0271504707634449,0.0271504707634449,0.01463996060192585
18390728103025,0.3100491166114807,-9.77552604675293,1.3754688501358032,-0.0314093679189682,0.0314093679189682,0.01597086526453495
18390729340187,0.3519476652145386,-9.732430458068848,1.4065935611724854,-0.0356682650744915,0.03087700717151165,0.01889885775744915
18390730577375,0.32441434264183044,-9.726444244384766,1.4413094520568848,-0.0306108258664608,0.0295461006462574,0.01650322787463665
18390731814537,0.3411737382411957,-9.702502250671387,1.416170358657837,-0.0322079136967659,0.0276828333735466,0.0173017717897892
18390733051687,0.3172317147254944,-9.720458984375,1.3958195447921753,-0.0338049978017807,0.0252872034907341,0.01836649514734745
18390734288862,0.304063618183136,-9.701305389404297,1.3515268564224243,-0.0362006276845932,0.0244886614382267,0.013042873702943325
18390735526025,0.32441434264183044,-9.714473724365234,1.358709454536438,-0.0282151959836483,0.02608574740588665,0.014906140975654125
18390736763200,0.3292027413845062,-9.706093788146973,1.358709454536438,-0.02741665206849575,0.02502102218568325,0.0162370465695858
18390738000362,0.31124621629714966,-9.680954933166504,1.3180080652236938,-0.0244886614382267,0.0196974016726017,0.02129448764026165
18390739237562,0.3663128614425659,-9.701305389404297,1.3227964639663696,-0.02608574740588665,0.02262539230287075,0.0204959437251091
18390740474712,0.3770867586135864,-9.691728591918945,1.3311761617660522,-0.0292799212038517,0.02741665206849575,0.0162370465695858
18390741711887,0.35075056552886963,-9.695320129394531,1.3479355573654175,-0.03087700717151165,0.02848137728869915,0.012510511092841625
18390742949037,0.31124621629714966,-9.712079048156738,1.359906554222107,-0.02502102218568325,0.0252872034907341,0.012510511092841625
18390744186200,0.3172317147254944,-9.736021041870117,1.3479355573654175,-0.02555338479578495,0.03034464456140995,0.010114881210029125
18390745423387,0.3256114423274994,-9.738415718078613,1.314416766166687,-0.02741665206849575,0.0311431884765625,0.008783976547420025
18390746660550,0.31603461503982544,-9.757569313049316,1.3539210557937622,-0.02874755859375,0.02794901467859745,0.0053236219100654125
18390747897725,0.30286651849746704,-9.787496566772461,1.3467384576797485,-0.0228915736079216,0.02874755859375,0.008517795242369175
18390749134900,0.32680854201316833,-9.791088104248047,1.3239935636520386,-0.023956298828125,0.02422248013317585,0.00958251953125
18390750372062,0.3232172429561615,-9.744400978088379,1.357512354850769,-0.0263519287109375,0.01836649514734745,0.01117960549890995
18390751609225,0.29209262132644653,-9.795876502990723,1.3395558595657349,-0.02502102218568325,0.0210283063352108,0.007453070487827063
18390752846387,0.2885012924671173,-9.81143856048584,1.3431471586227417,-0.02422248013317585,0.02608574740588665,0.007985432632267475
18390754083562,0.2777273952960968,-9.852140426635742,1.337161660194397,-0.023956298828125,0.0276828333735466,0.0015970865497365594
18390755320737,0.3076549172401428,-9.800664901733398,1.3060370683670044,-0.0263519287109375,0.0228915736079216,-0.0021294488105922937
18390756557887,0.30286651849746704,-9.827000617980957,1.3491326570510864,-0.0292799212038517,0.0220930315554142,0.0039927163161337376
18390757795050,0.3471592366695404,-9.859322547912598,1.315613865852356,-0.0362006276845932,0.02661811001598835,-0.0021294488105922937
18390759032237,0.35673606395721436,-9.824606895446777,1.3527239561080933,-0.02874755859375,0.02661811001598835,0.0013309054775163531
18390760269400,0.36750996112823486,-9.823410034179688,1.4185645580291748,-0.03087700717151165,0.01943122036755085,-0.0042588976211845875
18390761506562,0.31842881441116333,-9.84376049041748,1.3539210557937622,-0.0343373604118824,0.0173017717897892,-0.010913425125181675
18390762743737,0.3315969407558441,-9.86650562286377,1.3275848627090454,-0.0292799212038517,0.0244886614382267,-0.0114457868039608
18390763980912,0.3292027413845062,-9.854534149169922,1.3634978532791138,-0.0314093679189682,0.013309055007994175,-0.007985432632267475
18390765218075,0.34596213698387146,-9.840168952941895,1.4006080627441406,-0.0292799212038517,0.01597086526453495,-0.007985432632267475
18390766455262,0.32680854201316833,-9.823410034179688,1.3994109630584717,-0.0258195661008358,0.0210283063352108,-0.010647243820130825
18390767692400,0.3627215623855591,-9.828198432922363,1.3634978532791138,-0.0276828333735466,0.0228915736079216,-0.0119781494140625
18390768929562,0.35075056552886963,-9.84615421295166,1.3778630495071411,-0.0330064557492733,0.02022976242005825,-0.0114457868039608
18390770166750,0.3232172429561615,-9.789891242980957,1.3706804513931274,-0.0311431884765625,0.01836649514734745,-0.012776692397892475
18390771403912,0.3363853394985199,-9.805453300476074,1.3611036539077759,-0.0319417305290699,0.02182685025036335,-0.01171196810901165
18390772641087,0.3292027413845062,-9.75278091430664,1.3227964639663696,-0.0252872034907341,0.0223592109978199,-0.013309055007994175
18390773878262,0.3902548849582672,-9.767146110534668,1.3287819623947144,-0.02741665206849575,0.01836649514734745,-0.0157046839594841
18390775115437,0.3531447649002075,-9.731232643127441,1.3850456476211548,-0.0319417305290699,0.01783413253724575,-0.02022976242005825
18390776352587,0.3974374830722809,-9.6989107131958,1.3982137441635132,-0.033538818359375,0.01996358297765255,-0.0157046839594841
18390777589750,0.3878606855869293,-9.745597839355469,1.3407529592514038,-0.02901373989880085,0.0167694091796875,-0.01783413253724575
18390778826950,0.3770867586135864,-9.732430458068848,1.338358759880066,-0.0252872034907341,0.01650322787463665,-0.01836649514734745
18390780064087,0.39863458275794983,-9.743204116821289,1.314416766166687,-0.0271504707634449,0.0138414166867733,-0.0234239362180233
18390781301262,0.3998316824436188,-9.726444244384766,1.3515268564224243,-0.0247548408806324,0.01889885775744915,-0.02022976242005825
18390782538450,0.35434186458587646,-9.726444244384766,1.3299790620803833,-0.0258195661008358,0.01756795309484005,-0.02129448764026165
18390783775600,0.3770867586135864,-9.738415718078613,1.3539210557937622,-0.02502102218568325,0.0173017717897892,-0.02129448764026165
18390785012775,0.3627215623855591,-9.746795654296875,1.3503297567367554,-0.0276828333735466,0.0162370465695858,-0.0244886614382267
18390786249937,0.3627215623855591,-9.737218856811523,1.3275848627090454,-0.02422248013317585,0.00958251953125,-0.0181003138422966
18390787487087,0.36750996112823486,-9.746795654296875,1.3096283674240112,-0.02608574740588665,0.0066545275039970875,-0.01836649514734745
18390788724275,0.3292027413845062,-9.745597839355469,1.2892776727676392,-0.0234239362180233,0.0114457868039608,-0.02182685025036335
18390789961437,0.3148375153541565,-9.807847023010254,1.3108254671096802,-0.02369011752307415,0.01463996060192585,-0.0210283063352108
18390791198625,0.363918662071228,-9.828198432922363,1.2880805730819702,-0.0263519287109375,0.014373779296875,-0.0173017717897892
18390792435775,0.3734954595565796,-9.794679641723633,1.315613865852356,-0.02661811001598835,0.0119781494140625,-0.0157046839594841
18390793672950,0.36750996112823486,-9.799468040466309,1.2844892740249634,-0.02422248013317585,0.015172322280704975,-0.01996358297765255
18390794910112,0.3842693865299225,-9.807847023010254,1.2964602708816528,-0.02262539230287075,0.010647243820130825,-0.0186326764523983
18390796147287,0.3687070608139038,-9.800664901733398,1.3227964639663696,-0.023956298828125,0.0071868896484375,-0.01597086526453495
18390797384462,0.395043283700943,-9.838972091674805,1.294066071510315,-0.0234239362180233,0.006122165359556675,-0.0157046839594841
18390798621612,0.3579331636428833,-9.828198432922363,1.3299790620803833,-0.02555338479578495,0.010114881210029125,-0.02369011752307415
18390799858787,0.40462008118629456,-9.825803756713867,1.3060370683670044,-0.02555338479578495,0.0053236219100654125,-0.01996358297765255
18390801095962,0.3818751871585846,-9.823410034179688,1.2725181579589844,-0.0271504707634449,0.00958251953125,-0.00984870083630085
18390802333137,0.3579331636428833,-9.827000617980957,1.260547161102295,-0.0268842913210392,0.00692070834338665,-0.015438503585755825
18390803570300,0.35673606395721436,-9.827000617980957,1.3192051649093628,-0.02661811001598835,0.004791259765625,-0.01783413253724575
18390804807462,0.3411737382411957,-9.823410034179688,1.2880805730819702,-0.0220930315554142,0.0029279920272529125,-0.0138414166867733
18390806044637,0.3423708379268646,-9.81143856048584,1.291671872138977,-0.02661811001598835,0.0029279920272529125,-0.0090501569211483
18390807281800,0.33758243918418884,-9.816226959228516,1.315613865852356,-0.0282151959836483,0.003460354171693325,-0.00958251953125
18390808518950,0.33758243918418884,-9.864110946655273,1.3000515699386597,-0.0268842913210392,0.0023956298828125,-0.010913425125181675
18390809756150,0.3495534360408783,-9.86770248413086,1.2832921743392944,-0.0292799212038517,0.0029279920272529125,-0.01410759799182415
18390810993325,0.2825157940387726,-9.81143856048584,1.335964560508728,-0.0300784632563591,-0.0005323622026480734,-0.0090501569211483
18390812230462,0.36990416049957275,-9.84495735168457,1.3000515699386597,-0.0276828333735466,0.0002661811013240367,-0.010647243820130825
18390813467650,0.3555389642715454,-9.848548889160156,1.2234370708465576,-0.02262539230287075,0.0026618109550327063,-0.008783976547420025
18390814704812,0.3495534360408783,-9.856928825378418,1.259350061416626,-0.0268842913210392,0.0018632676219567657,-0.0039927163161337376
18390815942000,0.3663128614425659,-9.880870819091797,1.290474772453308,-0.0276828333735466,-0.0015970865497365594,-0.00692070834338665
18390817179137,0.333991140127182,-9.852140426635742,1.2856863737106323,-0.0295461006462574,-0.0015970865497365594,-0.0018632676219567657
18390818416312,0.3687070608139038,-9.841365814208984,1.2617442607879639,-0.02848137728869915,-0.0018632676219567657,-0.0031941730994731188
18390819653500,0.37229835987091064,-9.81024169921875,1.2964602708816528,-0.0319417305290699,0.0013309054775163531,-0.0077192517928779125
18390820890662,0.30526071786880493,-9.81263542175293,1.259350061416626,-0.0354020856320858,0.003460354171693325,-0.0063883461989462376
18390822127825,0.30286651849746704,-9.813833236694336,1.2509703636169434,-0.0292799212038517,0.0026618109550327063,-0.0039927163161337376
18390823364987,0.3555389642715454,-9.806650161743164,1.3192051649093628,-0.0319417305290699,0.0005323622026480734,-0.0018632676219567657
18390824602162,0.35913026332855225,-9.78869342803955,1.2737152576446533,-0.0367329902946949,-0.0015970865497365594,0.0
18390825839325,0.3447650372982025,-9.830592155456543,1.2808979749679565,-0.0327402763068676,0.0015970865497365594,-0.0042588976211845875
18390827076500,0.31603461503982544,-9.804256439208984,1.2880805730819702,-0.0327402763068676,-0.0037265352439135313,-0.0026618109550327063
18390828313662,0.34835633635520935,-9.797073364257812,1.3084312677383423,-0.0362006276845932,-0.0029279920272529125,0.0031941730994731188
18390829550862,0.33997663855552673,-9.736021041870117,1.2773066759109497,-0.0367329902946949,-0.0010647244052961469,0.0002661811013240367
18390830788012,0.3256114423274994,-9.738415718078613,1.2725181579589844,-0.0351359061896801,-0.0026618109550327063,0.0002661811013240367
18390832025187,0.36750996112823486,-9.725247383117676,1.259350061416626,-0.0343373604118824,0.0007985432748682797,-0.0039927163161337376
18390833262350,0.2908955216407776,-9.731232643127441,1.2078747749328613,-0.033272635191679,-0.0023956298828125,0.0
18390834499525,0.3208230435848236,-9.7420072555542,1.2006921768188477,-0.0340711809694767,-0.0018632676219567657,0.0037265352439135313
18390835736687,0.2992752194404602,-9.734824180603027,1.2773066759109497,-0.0324740931391716,-0.0042588976211845875,0.0021294488105922937
18390836973850,0.304063618183136,-9.731232643127441,1.2785037755966187,-0.0351359061896801,-0.0037265352439135313,0.0010647244052961469
18390838211012,0.32441434264183044,-9.756372451782227,1.2270283699035645,-0.0388624407351017,-0.0029279920272529125,0.0042588976211845875
18390839448200,0.33758243918418884,-9.72285270690918,1.294066071510315,-0.0348697230219841,-0.004791259765625,-0.0005323622026480734
18390840685375,0.3519476652145386,-9.709685325622559,1.2246341705322266,-0.0327402763068676,-0.0018632676219567657,0.0
18390841922525,0.3256114423274994,-9.696516990661621,1.2485761642456055,-0.0346035435795784,-0.0063883461989462376,0.0042588976211845875
18390843159700,0.34596213698387146,-9.749189376831055,1.1827356815338135,-0.0372653529047966,-0.006122165359556675,0.005589802749454975
18390844396875,0.3172317147254944,-9.72165584564209,1.259350061416626,-0.0306108258664608,-0.005855984054505825,0.00452507846057415
18390845634025,0.33758243918418884,-9.710882186889648,1.2701239585876465,-0.0292799212038517,-0.0037265352439135313,0.0031941730994731188
18390846871200,0.3423708379268646,-9.794679641723633,1.2533645629882812,-0.02848137728869915,-0.005855984054505825,0.003460354171693325
18390848108375,0.35434186458587646,-9.77672290802002,1.2545616626739502,-0.0300784632563591,-0.0063883461989462376,0.0018632676219567657
18390849345537,0.35075056552886963,-9.761160850524902,1.2198457717895508,-0.02901373989880085,-0.0066545275039970875,0.0015970865497365594
18390850582700,0.3579331636428833,-9.781511306762695,1.2485761642456055,-0.0282151959836483,-0.0026618109550327063,0.005589802749454975
18390851819875,0.34356793761253357,-9.737218856811523,1.2533645629882812,-0.02874755859375,-0.0066545275039970875,0.0031941730994731188
18390853057062,0.3866635859012604,-9.780314445495605,1.2725181579589844,-0.0268842913210392,-0.013309055007994175,-0.0010647244052961469
18390854294225,0.3734954595565796,-9.791088104248047,1.2761094570159912,-0.02608574740588665,-0.010913425125181675,0.0002661811013240367
18390855531387,0.39863458275794983,-9.749189376831055,1.2533645629882812,-0.0263519287109375,-0.0066545275039970875,-0.0010647244052961469
18390856768562,0.4058171808719635,-9.726444244384766,1.3036428689956665,-0.02422248013317585,-0.010913425125181675,0.0
18390858005725,0.4141969084739685,-9.72165584564209,1.3036428689956665,-0.02262539230287075,-0.00931633822619915,0.0002661811013240367
18390859242887,0.4010287821292877,-9.712079048156738,1.2689268589019775,-0.0196974016726017,-0.010647243820130825,0.0031941730994731188
18390860480050,0.395043283700943,-9.72165584564209,1.2545616626739502,-0.02022976242005825,-0.01117960549890995,0.0023956298828125
18390861717225,0.4082113802433014,-9.701305389404297,1.3204022645950317,-0.02502102218568325,-0.010913425125181675,-0.0031941730994731188
18390862954375,0.37828385829925537,-9.635464668273926,1.3060370683670044,-0.02182685025036335,-0.01224433071911335,-0.0007985432748682797
18390864191562,0.3818751871585846,-9.633070945739746,1.313219666481018,-0.02422248013317585,-0.012776692397892475,-0.0010647244052961469
18390865428737,0.42616790533065796,-9.625887870788574,1.2677297592163086,-0.01996358297765255,-0.013309055007994175,-0.0026618109550327063
18390866665900,0.3926490843296051,-9.586383819580078,1.3287819623947144,-0.010647243820130825,-0.0090501569211483,0.0013309054775163531
18390867903087,0.38067808747291565,-9.583989143371582,1.3072341680526733,-0.00958251953125,-0.0157046839594841,0.0002661811013240367
18390869140250,0.4118027091026306,-9.586383819580078,1.2952631711959839,-0.012510511092841625,-0.01703559048473835,-0.004791259765625
18390870377400,0.395043283700943,-9.50737476348877,1.3036428689956665,-0.00692070834338665,-0.015172322280704975,-0.0007985432748682797
18390871614562,0.3794809579849243,-9.520543098449707,1.2976573705673218,-0.008783976547420025,-0.0157046839594841,-0.0031941730994731188
18390872851750,0.4141969084739685,-9.489418983459473,1.2461819648742676,-0.0031941730994731188,-0.01597086526453495,-0.005057440605014563
18390874088912,0.42377370595932007,-9.532514572143555,1.2964602708816528,0.0002661811013240367,-0.0162370465695858,-0.0023956298828125
18390875326075,0.363918662071228,-9.53969669342041,1.258152961730957,0.0029279920272529125,-0.0210283063352108,-0.0037265352439135313
18390876563237,0.42018240690231323,-9.476250648498535,1.2198457717895508,-0.0015970865497365594,-0.01463996060192585,-0.010647243820130825
18390877800425,0.39863458275794983,-9.530119895935059,1.193509578704834,0.0053236219100654125,-0.015438503585755825,-0.010381062515079975
18390879037600,0.41539400815963745,-9.526528358459473,1.2617442607879639,0.012776692397892475,-0.02076212503015995,-0.008517795242369175
18390880274762,0.37828385829925537,-9.518149375915527,1.260547161102295,0.00984870083630085,-0.0220930315554142,-0.008251613937318325
18390881511937,0.4213795065879822,-9.513360977172852,1.292868971824646,0.010381062515079975,-0.01836649514734745,-0.014373779296875
18390882749075,0.4058171808719635,-9.550470352172852,1.2749123573303223,0.0186326764523983,-0.0173017717897892,-0.013042873702943325
18390883986250,0.38905778527259827,-9.526528358459473,1.2952631711959839,0.0191650390625,-0.02076212503015995,-0.012776692397892475
18390885223425,0.3926490843296051,-9.498995780944824,1.2761094570159912,0.01996358297765255,-0.01943122036755085,-0.012510511092841625
18390886460587,0.3818751871585846,-9.53849983215332,1.3120225667953491,0.0258195661008358,-0.0215606689453125,-0.0181003138422966
18390887697762,0.41299980878829956,-9.556456565856934,1.2665326595306396,0.0244886614382267,-0.01783413253724575,-0.01463996060192585
18390888934925,0.41539400815963745,-9.536105155944824,1.2832921743392944,0.0282151959836483,-0.0204959437251091,-0.0220930315554142
18390890172100,0.42616790533065796,-9.549273490905762,1.290474772453308,0.0306108258664608,-0.02182685025036335,-0.0220930315554142
18390891409275,0.43335050344467163,-9.558850288391113,1.3227964639663696,0.033538818359375,-0.0215606689453125,-0.0244886614382267
18390892646437,0.4058171808719635,-9.5408935546875,1.3000515699386597,0.0316755510866642,-0.0223592109978199,-0.0204959437251091
18390893883625,0.40462008118629456,-9.567230224609375,1.3204022645950317,0.0316755510866642,-0.02129448764026165,-0.02262539230287075
18390895120775,0.4405331015586853,-9.604340553283691,1.3407529592514038,0.038063894957304,-0.0247548408806324,-0.0204959437251091
18390896357937,0.37828385829925537,-9.606734275817871,1.3455413579940796,0.038330078125,-0.023956298828125,-0.0244886614382267
18390897595125,0.4058171808719635,-9.544485092163086,1.3335703611373901,0.0433875173330307,-0.023956298828125,-0.0244886614382267
18390898832287,0.4165911078453064,-9.543288230895996,1.3455413579940796,0.0500420443713665,-0.0324740931391716,-0.0204959437251091
18390900069462,0.424970805644989,-9.592369079589844,1.3204022645950317,0.0543009415268898,-0.0263519287109375,-0.02794901467859745
18390901306625,0.40701428055763245,-9.621099472045898,1.3431471586227417,0.0508405901491642,-0.02369011752307415,-0.02608574740588665
18390902543800,0.4273650050163269,-9.587580680847168,1.3012486696243286,0.052703857421875,-0.023956298828125,-0.0252872034907341
18390903780975,0.41060560941696167,-9.569623947143555,1.3503297567367554,0.0553656667470932,-0.02555338479578495,-0.0282151959836483
18390905018125,0.39624038338661194,-9.59835433959961,1.3455413579940796,0.0503082275390625,-0.0271504707634449,-0.0258195661008358
18390906255312,0.4429273307323456,-9.585186958312988,1.338358759880066,0.0558980293571949,-0.0276828333735466,-0.0252872034907341
18390907492462,0.3926490843296051,-9.57321548461914,1.337161660194397,0.0628187358379364,-0.0282151959836483,-0.02369011752307415
18390908729650,0.40701428055763245,-9.635464668273926,1.3060370683670044,0.0588260218501091,-0.0244886614382267,-0.0330064557492733
18390909966825,0.4141969084739685,-9.625887870788574,1.3263877630233765,0.0612216517329216,-0.02555338479578495,-0.0263519287109375
18390911203950,0.4225766062736511,-9.604340553283691,1.3407529592514038,0.0668114572763443,-0.02874755859375,-0.02661811001598835
18390912441150,0.4189853072166443,-9.59715747833252,1.3491326570510864,0.062286376953125,-0.02502102218568325,-0.02981228195130825
18390913678337,0.424970805644989,-9.587580680847168,1.3287819623947144,0.062286376953125,-0.0276828333735466,-0.02848137728869915
18390914915500,0.4441244304180145,-9.619902610778809,1.3287819623947144,0.0649481862783432,-0.0314093679189682,-0.03034464456140995
18390916152650,0.4572925269603729,-9.609128952026367,1.3251906633377075,0.0710703507065773,-0.03087700717151165,-0.0348697230219841
18390917389812,0.4668693244457245,-9.587580680847168,1.3443442583084106,0.0673438161611557,-0.02901373989880085,-0.0314093679189682
18390918626987,0.42616790533065796,-9.587580680847168,1.3623007535934448,0.0705379918217659,-0.0295461006462574,-0.0316755510866642
18390919864175,0.3926490843296051,-9.62828254699707,1.3766659498214722,0.0724012553691864,-0.0247548408806324,-0.02981228195130825
18390921101325,0.43095630407333374,-9.655815124511719,1.3670891523361206,0.0724012553691864,-0.0292799212038517,-0.0316755510866642
18390922338487,0.43095630407333374,-9.611522674560547,1.3192051649093628,0.07666015625,-0.03034464456140995,-0.02848137728869915
18390923575662,0.4429273307323456,-9.615114212036133,1.3419500589370728,0.0825161412358284,-0.0319417305290699,-0.0295461006462574
18390924812850,0.4165911078453064,-9.634267807006836,1.3443442583084106,0.07666015625,-0.02848137728869915,-0.0322079136967659
18390926049987,0.4034229815006256,-9.618705749511719,1.381454348564148,0.0787896066904068,-0.0300784632563591,-0.0282151959836483
18390927287175,0.42856210470199585,-9.66299819946289,1.3670891523361206,0.0801205113530159,-0.033538818359375,-0.0244886614382267
18390928524337,0.4405331015586853,-9.659406661987305,1.4065935611724854,0.0801205113530159,-0.02981228195130825,-0.0263519287109375
18390929761525,0.40701428055763245,-9.659406661987305,1.3862427473068237,0.0825161412358284,-0.0311431884765625,-0.02874755859375
18390930998687,0.4381389021873474,-9.658209800720215,1.3563152551651,0.0865088552236557,-0.0324740931391716,-0.02502102218568325
18390932235862,0.42856210470199585,-9.639056205749512,1.3874398469924927,0.0838470458984375,-0.0300784632563591,-0.0234239362180233
18390933473037,0.395043283700943,-9.680954933166504,1.3682862520217896,0.0825161412358284,-0.0311431884765625,-0.02848137728869915
18390934710175,0.4441244304180145,-9.68574333190918,1.4006080627441406,0.0851779505610466,-0.033272635191679,-0.02555338479578495
18390935947350,0.456095427274704,-9.712079048156738,1.3694833517074585,0.0854441300034523,-0.0343373604118824,-0.02608574740588665
18390937184525,0.39384618401527405,-9.679757118225098,1.4041993618011475,0.08624267578125,-0.033538818359375,-0.02661811001598835
18390938421687,0.395043283700943,-9.724050521850586,1.3910311460494995,0.0894368439912796,-0.0319417305290699,-0.0258195661008358
18390939658875,0.4010287821292877,-9.7420072555542,1.3922282457351685,0.0883721262216568,-0.0295461006462574,-0.02315775491297245
18390940896037,0.43335050344467163,-9.75397777557373,1.3611036539077759,0.0891706645488739,-0.0295461006462574,-0.02422248013317585
18390942133200,0.41778820753097534,-9.732430458068848,1.359906554222107,0.0851779505610466,-0.0271504707634449,-0.023956298828125
18390943370375,0.39863458275794983,-9.77791976928711,1.3682862520217896,0.0889044851064682,-0.02848137728869915,-0.0234239362180233
18390944607537,0.424970805644989,-9.780314445495605,1.3970166444778442,0.0859764963388443,-0.0271504707634449,-0.0234239362180233
18390945844700,0.424970805644989,-9.727641105651855,1.4113819599151611,0.0878397598862648,-0.0292799212038517,-0.0204959437251091
18390947081875,0.41778820753097534,-9.739612579345703,1.4209587574005127,0.0846455842256546,-0.03034464456140995,-0.02129448764026165
18390948319050,0.4620809257030487,-9.734824180603027,1.4173674583435059,0.0881059393286705,-0.0247548408806324,-0.0181003138422966
18390949556225,0.4704606235027313,-9.739612579345703,1.4532804489135742,0.0875735804438591,-0.023956298828125,-0.0186326764523983
18390950793400,0.5207388997077942,-9.757569313049316,1.4221558570861816,0.0870412141084671,-0.0292799212038517,-0.02369011752307415
18390952030550,0.4537012279033661,-9.737218856811523,1.4197616577148438,0.0891706645488739,-0.0268842913210392,-0.0181003138422966
18390953267750,0.43095630407333374,-9.728838920593262,1.3934253454208374,0.08624267578125,-0.0316755510866642,-0.014906140975654125
18390954504875,0.4381389021873474,-9.759963035583496,1.4544775485992432,0.0849117711186409,-0.0319417305290699,-0.015438503585755825
18390955742075,0.44173023104667664,-9.739612579345703,1.43532395362854,0.090501569211483,-0.02981228195130825,-0.01889885775744915
18390956979225,0.4489128291606903,-9.726444244384766,1.4389152526855469,0.0955590158700943,-0.03034464456140995,-0.0173017717897892
18390958216400,0.43694180250167847,-9.75158405303955,1.4329297542572021,0.090501569211483,-0.0348697230219841,-0.0167694091796875
18390959453575,0.4225766062736511,-9.739612579345703,1.436521053314209,0.0897030308842659,-0.0354020856320858,-0.01171196810901165
18390960690737,0.45010992884635925,-9.728838920593262,1.4903905391693115,0.0907677561044693,-0.02741665206849575,-0.0114457868039608
18390961927900,0.43335050344467163,-9.724050521850586,1.45806884765625,0.0889044851064682,-0.02901373989880085,-0.010114881210029125
18390963165062,0.4405331015586853,-9.734824180603027,1.4640543460845947,0.091033935546875,-0.02981228195130825,-0.0090501569211483
18390964402225,0.46567222476005554,-9.745597839355469,1.4185645580291748,0.0899692103266716,-0.02555338479578495,-0.005855984054505825
18390965639425,0.424970805644989,-9.794679641723633,1.4736311435699463,0.0899692103266716,-0.02981228195130825,-0.013309055007994175
18390966876587,0.41778820753097534,-9.75517463684082,1.4867992401123047,0.0928971990942955,-0.0252872034907341,-0.00692070834338665
18390968113762,0.4441244304180145,-9.72285270690918,1.4401123523712158,0.0883721262216568,-0.02874755859375,-0.007453070487827063
18390969350937,0.41539400815963745,-9.767146110534668,1.4484920501708984,0.08624267578125,-0.0319417305290699,-0.00984870083630085
18390970588087,0.4537012279033661,-9.764751434326172,1.4532804489135742,0.0881059393286705,-0.0314093679189682,-0.005589802749454975
18390971825275,0.43933600187301636,-9.731232643127441,1.478419542312622,0.0859764963388443,-0.02608574740588665,-0.010114881210029125
18390973062412,0.4321534037590027,-9.746795654296875,1.479616641998291,0.0902353897690773,-0.0316755510866642,-0.0063883461989462376
18390974299587,0.3998316824436188,-9.805453300476074,1.4700398445129395,0.0849117711186409,-0.0327402763068676,-0.008251613937318325
18390975536762,0.4429273307323456,-9.765949249267578,1.5131354331970215,0.0830485001206398,-0.02981228195130825,-0.007985432632267475
18390976773950,0.4776432514190674,-9.782708168029785,1.4413094520568848,0.0883721262216568,-0.02901373989880085,0.0
18390978011112,0.43933600187301636,-9.801861763000488,1.4437036514282227,0.0894368439912796,-0.02608574740588665,-0.0002661811013240367
18390979248262,0.424970805644989,-9.769539833068848,1.48081374168396,0.08624267578125,-0.02901373989880085,0.0
18390980485462,0.4441244304180145,-9.838972091674805,1.534683346748352,0.0841132253408432,-0.0271504707634449,-0.0042588976211845875
18390981722612,0.44173023104667664,-9.848548889160156,1.4688427448272705,0.0867750346660614,-0.0282151959836483,-0.0026618109550327063
18390982959775,0.43335050344467163,-9.81143856048584,1.482010841369629,0.091033935546875,-0.0314093679189682,0.004791259765625
18390984196962,0.42377370595932007,-9.870096206665039,1.4951789379119873,0.0851779505610466,-0.0295461006462574,0.00452507846057415
18390985434125,0.46327802538871765,-9.883264541625977,1.5119383335113525,0.0873074010014534,-0.02901373989880085,0.008517795242369175
18390986671300,0.4596867263317108,-9.871294021606445,1.4772224426269531,0.0849117711186409,-0.0300784632563591,0.0071868896484375
18390987908475,0.4357447028160095,-9.877279281616211,1.4915876388549805,0.0867750346660614,-0.0311431884765625,0.010913425125181675
18390989145637,0.424970805644989,-9.876082420349121,1.4449007511138916,0.0825161412358284,-0.0292799212038517,0.010913425125181675
18390990382812,0.4357447028160095,-9.938331604003906,1.459265947341919,0.0825161412358284,-0.0295461006462574,0.007985432632267475
18390991619950,0.4357447028160095,-9.923966407775879,1.5047557353973389,0.0830485001206398,-0.0300784632563591,0.008517795242369175
18390992857137,0.44173023104667664,-9.93354320526123,1.53707754611969,0.0825161412358284,-0.0292799212038517,0.00958251953125
18390994094312,0.45489832758903503,-9.910798072814941,1.5825673341751099,0.0830485001206398,-0.0319417305290699,0.008783976547420025
18390995331450,0.4381389021873474,-9.9000244140625,1.5119383335113525,0.0817175954580307,-0.03087700717151165,0.00984870083630085
18390996568650,0.41539400815963745,-9.884461402893066,1.5119383335113525,0.0803866907954216,-0.02608574740588665,0.01117960549890995
18390997805812,0.46327802538871765,-9.890447616577148,1.5466543436050415,0.0827823206782341,-0.02262539230287075,0.013309055007994175
18390999042987,0.45489832758903503,-9.855731010437012,1.5298949480056763,0.0822499617934227,-0.0271504707634449,0.0167694091796875
18391000280150,0.4513070285320282,-9.847352027893066,1.5286978483200073,0.07666015625,-0.033272635191679,0.0173017717897892
18391001517325,0.44771572947502136,-9.854534149169922,1.5514427423477173,0.07666015625,-0.0263519287109375,0.01463996060192585
18391002754500,0.4812345504760742,-9.883264541625977,1.5167267322540283,0.0750630721449852,-0.02901373989880085,0.014373779296875
18391003991662,0.44173023104667664,-9.855731010437012,1.5514427423477173,0.0750630721449852,-0.0311431884765625,0.0119781494140625
18391005228825,0.4489128291606903,-9.84495735168457,1.534683346748352,0.0753292515873909,-0.0306108258664608,0.02129448764026165
18391006466000,0.42616790533065796,-9.840168952941895,1.5322891473770142,0.0755954310297966,-0.0276828333735466,0.0220930315554142
18391007703187,0.4213795065879822,-9.84615421295166,1.5897499322891235,0.0747968852519989,-0.0276828333735466,0.0228915736079216
18391008940337,0.41539400815963745,-9.825803756713867,1.5191209316253662,0.0721350759267807,-0.0292799212038517,0.0220930315554142
18391010177500,0.39145198464393616,-9.831789016723633,1.5430630445480347,0.0700056254863739,-0.02794901467859745,0.0215606689453125
18391011414662,0.3878606855869293,-9.847352027893066,1.5705963373184204,0.0716027170419693,-0.02315775491297245,0.01996358297765255
18391012651825,0.4118027091026306,-9.860519409179688,1.5155296325683594,0.0697394460439682,-0.0282151959836483,0.02315775491297245
18391013889000,0.4489128291606903,-9.854534149169922,1.4951789379119873,0.066545270383358,-0.02661811001598835,0.0228915736079216
18391015126175,0.39624038338661194,-9.852140426635742,1.5119383335113525,0.0662790909409523,-0.02981228195130825,0.0220930315554142
18391016363337,0.38905778527259827,-9.84495735168457,1.482010841369629,0.0646820068359375,-0.02848137728869915,0.02076212503015995
18391017600512,0.3770867586135864,-9.906009674072266,1.4760253429412842,0.0684085413813591,-0.0276828333735466,0.02315775491297245
18391018837687,0.3926490843296051,-9.93474006652832,1.4832079410552979,0.0649481862783432,-0.0268842913210392,0.02555338479578495
18391020074850,0.35913026332855225,-9.907206535339355,1.4891934394836426,0.0609554722905159,-0.02848137728869915,0.02874755859375
18391021312025,0.3603273630142212,-9.931148529052734,1.5095441341400146,0.0644158273935318,-0.02874755859375,0.0247548408806324
18391022549200,0.3878606855869293,-9.951498985290527,1.4832079410552979,0.0646820068359375,-0.03087700717151165,0.0322079136967659
18391023786362,0.4058171808719635,-9.913191795349121,1.5275007486343384,0.0582936592400074,-0.0276828333735466,0.0311431884765625
18391025023537,0.4034229815006256,-9.93354320526123,1.5394717454910278,0.0590922012925148,-0.02741665206849575,0.0319417305290699
18391026260700,0.3902548849582672,-9.928754806518555,1.5263036489486694,0.0604231096804142,-0.0244886614382267,0.0276828333735466
18391027497887,0.4034229815006256,-9.926360130310059,1.4927847385406494,0.0609554722905159,-0.023956298828125,0.0324740931391716
18391028735050,0.4118027091026306,-9.953893661499023,1.5203181505203247,0.0561642125248909,-0.0215606689453125,0.0356682650744915
18391029972212,0.33997663855552673,-9.949105262756348,1.558625340461731,0.0500420443713665,-0.02901373989880085,0.0364668108522892
18391031209387,0.3627215623855591,-9.955090522766113,1.5203181505203247,0.0503082275390625,-0.0244886614382267,0.0375315360724926
18391032446550,0.41299980878829956,-9.981427192687988,1.5454572439193726,0.0473802350461483,-0.02741665206849575,0.0423227921128273
18391033683725,0.3866635859012604,-9.967061996459961,1.578976035118103,0.0481787770986557,-0.02981228195130825,0.0425889752805233
18391034920887,0.38067808747291565,-9.940725326538086,1.4951789379119873,0.0473802350461483,-0.02661811001598835,0.0412580706179142
18391036158050,0.3842693865299225,-9.943120002746582,1.5406688451766968,0.0455169677734375,-0.0271504707634449,0.0447184219956398
18391037395212,0.37828385829925537,-9.888052940368652,1.5239094495773315,0.042855154722929,-0.02555338479578495,0.0465816929936409
18391038632375,0.3734954595565796,-9.922768592834473,1.5490485429763794,0.0404595248401165,-0.0234239362180233,0.0455169677734375
18391039869562,0.42856210470199585,-9.910798072814941,1.5442601442337036,0.0351359061896801,-0.0263519287109375,0.0417904332280159
18391041106750,0.35075056552886963,-9.9371337890625,1.577778935432434,0.0377977155148983,-0.023956298828125,0.0457831472158432
18391042343912,0.3663128614425659,-9.964667320251465,1.5275007486343384,0.0364668108522892,-0.0282151959836483,0.0484449602663517
18391043581075,0.3734954595565796,-9.920374870300293,1.5442601442337036,0.0348697230219841,-0.0258195661008358,0.052703857421875
18391044818250,0.3555389642715454,-9.915586471557617,1.5239094495773315,0.0322079136967659,-0.02262539230287075,0.0465816929936409
18391046055400,0.38067808747291565,-9.928754806518555,1.499967336654663,0.03034464456140995,-0.0252872034907341,0.04791259765625
18391047292575,0.38307228684425354,-9.928754806518555,1.4903905391693115,0.033538818359375,-0.02901373989880085,0.04791259765625
18391048529750,0.3315969407558441,-9.931148529052734,1.5634137392044067,0.0282151959836483,-0.0247548408806324,0.0489773228764534
18391049766925,0.32202014327049255,-9.940725326538086,1.5191209316253662,0.02874755859375,-0.0244886614382267,0.0511067695915699
18391051004087,0.363918662071228,-9.926360130310059,1.4903905391693115,0.0282151959836483,-0.02502102218568325,0.0511067695915699
18391052241250,0.3280056416988373,-9.895236015319824,1.4927847385406494,0.02502102218568325,-0.02502102218568325,0.0463155098259449
18391053478425,0.35434186458587646,-9.927556991577148,1.5502456426620483,0.0263519287109375,-0.02369011752307415,0.0473802350461483
18391054715612,0.3315969407558441,-9.9371337890625,1.4915876388549805,0.0204959437251091,-0.02262539230287075,0.0460493303835392
18391055952762,0.34835633635520935,-9.949105262756348,1.5095441341400146,0.01410759799182415,-0.0247548408806324,0.0497758649289608
18391057189937,0.304063618183136,-9.938331604003906,1.5382746458053589,0.01889885775744915,-0.0244886614382267,0.0503082275390625
18391058427112,0.3016694188117981,-9.907206535339355,1.5119383335113525,0.015438503585755825,-0.0215606689453125,0.0473802350461483
18391059664275,0.3232172429561615,-9.915586471557617,1.4987702369689941,0.01224433071911335,-0.0196974016726017,0.0492435023188591
18391060901412,0.30526071786880493,-9.876082420349121,1.501164436340332,0.00931633822619915,-0.01996358297765255,0.0519053116440773
18391062138600,0.37469255924224854,-9.8784761428833,1.556231141090393,0.0063883461989462376,-0.0220930315554142,0.052703857421875
18391063375787,0.35673606395721436,-9.870096206665039,1.5239094495773315,0.0053236219100654125,-0.0181003138422966,0.0481787770986557
18391064612950,0.34835633635520935,-9.859322547912598,1.5059528350830078,0.0002661811013240367,-0.01463996060192585,0.0463155098259449
18391065850125,0.2932897210121155,-9.86650562286377,1.4975731372833252,0.00452507846057415,-0.01996358297765255,0.0463155098259449
18391067087287,0.3076549172401428,-9.815030097961426,1.5083470344543457,0.003460354171693325,-0.01463996060192585,0.0503082275390625
18391068324475,0.3315969407558441,-9.847352027893066,1.50355863571167,0.0015970865497365594,-0.01597086526453495,0.0505744069814682
18391069561625,0.3495534360408783,-9.80904483795166,1.499967336654663,0.0037265352439135313,-0.02129448764026165,0.052437674254179
18391070798812,0.3280056416988373,-9.781511306762695,1.499967336654663,0.0031941730994731188,-0.0181003138422966,0.04791259765625
18391072035987,0.29568392038345337,-9.793481826782227,1.5286978483200073,-0.0039927163161337376,-0.014906140975654125,0.0516391322016716
18391073273125,0.3232172429561615,-9.789891242980957,1.5155296325683594,0.0023956298828125,-0.0119781494140625,0.0553656667470932
18391074510300,0.33758243918418884,-9.7791166305542,1.5286978483200073,0.0039927163161337376,-0.012510511092841625,0.0519053116440773
18391075747475,0.3447650372982025,-9.767146110534668,1.5047557353973389,0.0042588976211845875,-0.01117960549890995,0.0569627545773983
18391076984625,0.2717418968677521,-9.734824180603027,1.482010841369629,0.0053236219100654125,-0.00984870083630085,0.0505744069814682
18391078221825,0.2944868206977844,-9.805453300476074,1.5203181505203247,0.0013309054775163531,-0.0114457868039608,0.0511067695915699
18391079458975,0.30286651849746704,-9.773131370544434,1.4951789379119873,-0.0005323622026480734,-0.010381062515079975,0.0556318499147892
18391080696137,0.304063618183136,-9.774328231811523,1.4748282432556152,0.0031941730994731188,-0.015438503585755825,0.0564303919672966
18391081933325,0.2885012924671173,-9.77791976928711,1.502361536026001,0.0029279920272529125,-0.010381062515079975,0.0516391322016716
18391083170487,0.2861070930957794,-9.819818496704102,1.4772224426269531,0.0015970865497365594,-0.010114881210029125,0.0529700368642807
18391084407662,0.26815059781074524,-9.774328231811523,1.4628572463989258,0.0023956298828125,-0.0071868896484375,0.0543009415268898
18391085644825,0.31124621629714966,-9.803058624267578,1.4891934394836426,0.003460354171693325,-0.008517795242369175,0.0545671246945858
18391086882012,0.2932897210121155,-9.794679641723633,1.4903905391693115,0.0010647244052961469,-0.008517795242369175,0.0564303919672966
18391088119162,0.2454056739807129,-9.749189376831055,1.4856021404266357,0.0039927163161337376,-0.0053236219100654125,0.0580274797976017
18391089356325,0.28969842195510864,-9.762357711791992,1.4927847385406494,0.0018632676219567657,-0.0066545275039970875,0.0558980293571949
18391090593512,0.28969842195510864,-9.750386238098145,1.4736311435699463,0.0018632676219567657,-0.0053236219100654125,0.0513729527592659
18391091830687,0.3148375153541565,-9.761160850524902,1.456871747970581,0.0021294488105922937,-0.004791259765625,0.0537685826420784
18391093067837,0.29807811975479126,-9.749189376831055,1.4688427448272705,0.0021294488105922937,-0.00692070834338665,0.0548333041369915
18391094305025,0.30286651849746704,-9.794679641723633,1.502361536026001,0.00452507846057415,-0.0042588976211845875,0.0582936592400074
18391095542200,0.2992752194404602,-9.702502250671387,1.5167267322540283,0.005855984054505825,-0.005589802749454975,0.0601569265127182
18391096779337,0.3172317147254944,-9.702502250671387,1.50355863571167,0.0053236219100654125,-0.0002661811013240367,0.0566965714097023
18391098016525,0.2968810200691223,-9.695320129394531,1.4987702369689941,0.006122165359556675,-0.0005323622026480734,0.0588260218501091
18391099253700,0.28969842195510864,-9.726444244384766,1.50355863571167,0.005589802749454975,-0.0053236219100654125,0.0641496405005455
18391100490862,0.33279404044151306,-9.706093788146973,1.4963760375976562,0.0031941730994731188,-0.0002661811013240367,0.0609554722905159
18391101728037,0.3100491166114807,-9.696516990661621,1.4975731372833252,0.0029279920272529125,0.0015970865497365594,0.0588260218501091
18391102965200,0.30286651849746704,-9.692925453186035,1.4975731372833252,0.006122165359556675,0.0007985432748682797,0.0633511021733284
18391104202362,0.3531447649002075,-9.674968719482422,1.45806884765625,0.008251613937318325,-0.0021294488105922937,0.0625525563955307
18391105439550,0.2885012924671173,-9.713275909423828,1.499967336654663,0.00958251953125,-0.00452507846057415,0.0625525563955307
18391106676712,0.31842881441116333,-9.68694019317627,1.4712369441986084,0.0181003138422966,-0.0018632676219567657,0.0628187358379364
18391107913900,0.30286651849746704,-9.709685325622559,1.4903905391693115,0.01463996060192585,0.0015970865497365594,0.0668114572763443
18391109151037,0.28131869435310364,-9.679757118225098,1.4903905391693115,0.010114881210029125,-0.0029279920272529125,0.0686747208237648
18391110388225,0.30286651849746704,-9.657012939453125,1.4688427448272705,0.012510511092841625,0.0013309054775163531,0.062020193785429
18391111625400,0.3076549172401428,-9.672574996948242,1.4449007511138916,0.012776692397892475,0.0026618109550327063,0.0625525563955307
18391112862575,0.2585738003253937,-9.619902610778809,1.4915876388549805,0.01889885775744915,0.0015970865497365594,0.0628187358379364
18391114099737,0.2944868206977844,-9.623494148254395,1.4425065517425537,0.0220930315554142,0.0021294488105922937,0.0654805526137352
18391115336887,0.272938996553421,-9.676166534423828,1.4700398445129395,0.0196974016726017,-0.0026618109550327063,0.0652143657207489
18391116574062,0.29209262132644653,-9.692925453186035,1.4772224426269531,0.0204959437251091,0.0026618109550327063,0.0604231096804142
18391117811250,0.3531447649002075,-9.677363395690918,1.460463047027588,0.01650322787463665,0.005855984054505825,0.0633511021733284
18391119048412,0.3208230435848236,-9.659406661987305,1.4221558570861816,0.01943122036755085,0.0037265352439135313,0.0657467320561409
18391120285575,0.27054479718208313,-9.704896926879883,1.437718152999878,0.02608574740588665,0.004791259765625,0.0681423619389534
18391121522737,0.3232172429561615,-9.704896926879883,1.4413094520568848,0.02369011752307415,-0.0015970865497365594,0.0705379918217659
18391122759925,0.3172317147254944,-9.743204116821289,1.437718152999878,0.01756795309484005,0.0013309054775163531,0.062020193785429
18391123997087,0.2513911724090576,-9.757569313049316,1.4449007511138916,0.01783413253724575,0.0026618109550327063,0.0646820068359375
18391125234262,0.24899697303771973,-9.785102844238281,1.4700398445129395,0.01943122036755085,0.0063883461989462376,0.0625525563955307
18391126471425,0.29568392038345337,-9.740809440612793,1.4664485454559326,0.02182685025036335,0.004791259765625,0.0625525563955307
18391127708587,0.2885012924671173,-9.750386238098145,1.4173674583435059,0.0234239362180233,0.0021294488105922937,0.0614878311753273
18391128945762,0.22625206410884857,-9.7791166305542,1.4257471561431885,0.0258195661008358,0.0031941730994731188,0.062286376953125
18391130182925,0.23582887649536133,-9.824606895446777,1.43532395362854,0.02369011752307415,0.005057440605014563,0.0678761824965477
18391131420100,0.243011474609375,-9.794679641723633,1.4257471561431885,0.0263519287109375,0.0053236219100654125,0.0644158273935318
18391132657275,0.23343466222286224,-9.780314445495605,1.4460978507995605,0.0252872034907341,0.0021294488105922937,0.0601569265127182
18391133894425,0.24660277366638184,-9.75397777557373,1.4496891498565674,0.02422248013317585,0.00931633822619915,0.0660129114985466
18391135131612,0.2861070930957794,-9.773131370544434,1.436521053314209,0.0244886614382267,0.0029279920272529125,0.0633511021733284
18391136368787,0.2753331959247589,-9.832986831665039,1.4472949504852295,0.0252872034907341,0.0039927163161337376,0.0596245639026165
18391137605950,0.31603461503982544,-9.80904483795166,1.4724340438842773,0.02502102218568325,0.0031941730994731188,0.0588260218501091
18391138843112,0.26575639843940735,-9.798270225524902,1.4449007511138916,0.02369011752307415,0.005057440605014563,0.0596245639026165
18391140080300,0.29807811975479126,-9.81143856048584,1.437718152999878,0.02555338479578495,0.0063883461989462376,0.0580274797976017
18391141317462,0.28371289372444153,-9.77791976928711,1.4305355548858643,0.02182685025036335,0.004791259765625,0.0580274797976017
18391142554625,0.24420857429504395,-9.782708168029785,1.37906014919281,0.014373779296875,0.0066545275039970875,0.0564303919672966
18391143791800,0.32202014327049255,-9.816226959228516,1.4772224426269531,0.0162370465695858,0.007453070487827063,0.0519053116440773
18391145028962,0.30526071786880493,-9.81024169921875,1.4712369441986084,0.01996358297765255,0.0039927163161337376,0.0535023994743824
18391146266137,0.27054479718208313,-9.81024169921875,1.4281413555145264,0.02262539230287075,0.00452507846057415,0.052703857421875
18391147503312,0.27892449498176575,-9.81143856048584,1.4676456451416016,0.02608574740588665,0.0026618109550327063,0.057228934019804
18391148740475,0.28730419278144836,-9.77672290802002,1.4652514457702637,0.01996358297765255,0.0021294488105922937,0.0588260218501091
18391149977650,0.28969842195510864,-9.795876502990723,1.456871747970581,0.0186326764523983,0.0063883461989462376,0.0532362200319767
18391151214800,0.27413609623908997,-9.7791166305542,1.437718152999878,0.01756795309484005,0.00452507846057415,0.0516391322016716
18391152452012,0.24420857429504395,-9.75158405303955,1.4305355548858643,0.01836649514734745,0.0063883461989462376,0.0577612966299057
18391153689137,0.25258827209472656,-9.794679641723633,1.43532395362854,0.02076212503015995,0.0013309054775163531,0.0545671246945858
18391154926325,0.29209262132644653,-9.769539833068848,1.4269442558288574,0.02262539230287075,0.00452507846057415,0.0564303919672966
18391156163487,0.31124621629714966,-9.783905029296875,1.5083470344543457,0.01783413253724575,0.005057440605014563,0.0556318499147892
18391157400662,0.2777273952960968,-9.767146110534668,1.5059528350830078,0.0215606689453125,0.0007985432748682797,0.0487111397087574
18391158637837,0.33279404044151306,-9.747992515563965,1.4484920501708984,0.01703559048473835,0.0015970865497365594,0.0447184219956398
18391159875000,0.3076549172401428,-9.745597839355469,1.4676456451416016,0.01463996060192585,0.0002661811013240367,0.0492435023188591
18391161112162,0.2777273952960968,-9.724050521850586,1.4472949504852295,0.01996358297765255,0.0010647244052961469,0.04791259765625
18391162349337,0.2944868206977844,-9.731232643127441,1.459265947341919,0.0186326764523983,0.003460354171693325,0.0439198799431324
18391163586525,0.23822307586669922,-9.756372451782227,1.4963760375976562,0.0191650390625,0.0026618109550327063,0.0436537005007267
18391164823675,0.2992752194404602,-9.771934509277344,1.5119383335113525,0.0173017717897892,0.0013309054775163531,0.0455169677734375
18391166060850,0.2561795711517334,-9.727641105651855,1.482010841369629,0.02262539230287075,0.0071868896484375,0.0481787770986557
18391167298012,0.25498247146606445,-9.730035781860352,1.5071499347686768,0.02608574740588665,0.0066545275039970875,0.0492435023188591
18391168535200,0.2513911724090576,-9.715670585632324,1.5107412338256836,0.02129448764026165,-0.0007985432748682797,0.0452507846057415
18391169772337,0.29568392038345337,-9.707290649414062,1.5155296325683594,0.0173017717897892,0.0042588976211845875,0.0463155098259449
18391171009525,0.30526071786880493,-9.690531730651855,1.478419542312622,0.014906140975654125,0.003460354171693325,0.0425889752805233
18391172246700,0.243011474609375,-9.737218856811523,1.5394717454910278,0.01650322787463665,0.004791259765625,0.042855154722929
18391173483875,0.26336219906806946,-9.7420072555542,1.50355863571167,0.01597086526453495,0.0031941730994731188,0.0473802350461483
18391174721037,0.26575639843940735,-9.709685325622559,1.4628572463989258,0.02129448764026165,0.0013309054775163531,0.0449846051633358
18391175958200,0.27413609623908997,-9.708487510681152,1.4832079410552979,0.01783413253724575,0.005057440605014563,0.0385962575674057
18391177195387,0.2454056739807129,-9.739612579345703,1.5047557353973389,0.0215606689453125,0.0005323622026480734,0.0401933453977108
18391178432562,0.2801215946674347,-9.718064308166504,1.45806884765625,0.0234239362180233,-0.0013309054775163531,0.0423227921128273
18391179669725,0.2406172752380371,-9.767146110534668,1.4712369441986084,0.0204959437251091,-0.0021294488105922937,0.047646414488554
18391180906887,0.2621650993824005,-9.807847023010254,1.4401123523712158,0.0215606689453125,-0.0021294488105922937,0.0441860631108284
18391182144050,0.2777273952960968,-9.80904483795166,1.4389152526855469,0.02022976242005825,-0.0007985432748682797,0.0409918874502182
18391183381225,0.26575639843940735,-9.86889934539795,1.4891934394836426,0.0228915736079216,0.0005323622026480734,0.0460493303835392
18391184618400,0.24899697303771973,-9.87967300415039,1.4867992401123047,0.0263519287109375,-0.0042588976211845875,0.0436537005007267
18391185855562,0.27892449498176575,-9.898826599121094,1.4927847385406494,0.0204959437251091,-0.005855984054505825,0.0439198799431324
18391187092725,0.24420857429504395,-9.884461402893066,1.4676456451416016,0.0220930315554142,0.0010647244052961469,0.0420566126704216
18391188329900,0.24420857429504395,-9.932345390319824,1.5251065492630005,0.0268842913210392,0.0010647244052961469,0.0489773228764534
18391189567075,0.2717418968677521,-9.921571731567383,1.5550340414047241,0.02661811001598835,-0.0039927163161337376,0.0500420443713665
18391190804262,0.26575639843940735,-9.889249801635742,1.4987702369689941,0.01996358297765255,0.0002661811013240367,0.0487111397087574
18391192041400,0.30526071786880493,-9.90241813659668,1.5502456426620483,0.023956298828125,-0.0002661811013240367,0.0535023994743824
18391193278600,0.2801215946674347,-9.876082420349121,1.5251065492630005,0.0210283063352108,-0.0066545275039970875,0.057228934019804
18391194515762,0.3100491166114807,-9.896432876586914,1.5394717454910278,0.01650322787463665,-0.0002661811013240367,0.0529700368642807
18391195752925,0.2753331959247589,-9.86770248413086,1.5622166395187378,0.01756795309484005,-0.0015970865497365594,0.0492435023188591
18391196990087,0.28371289372444153,-9.861717224121094,1.5179238319396973,0.0191650390625,-0.0002661811013240367,0.0521714948117733
18391198227287,0.3280056416988373,-9.830592155456543,1.5059528350830078,0.01650322787463665,-0.0013309054775163531,0.0519053116440773
18391199464437,0.2992752194404602,-9.780314445495605,1.5646108388900757,0.013042873702943325,-0.0037265352439135313,0.0553656667470932
18391200701600,0.2825157940387726,-9.803058624267578,1.5167267322540283,0.007985432632267475,-0.0071868896484375,0.0580274797976017
18391201938775,0.26336219906806946,-9.837775230407715,1.502361536026001,0.0167694091796875,-0.008517795242369175,0.0596245639026165
18391203175950,0.2992752194404602,-9.81263542175293,1.5490485429763794,0.01650322787463665,-0.007453070487827063,0.0590922012925148
18391204413100,0.25737667083740234,-9.827000617980957,1.5155296325683594,0.015172322280704975,-0.0029279920272529125,0.0593583844602108
18391205650287,0.2621650993824005,-9.813833236694336,1.5251065492630005,0.015438503585755825,-0.0031941730994731188,0.0604231096804142
18391206887437,0.2513911724090576,-9.825803756713867,1.4927847385406494,0.013042873702943325,-0.006122165359556675,0.062020193785429
18391208124625,0.21547815203666687,-9.821015357971191,1.4736311435699463,0.0119781494140625,-0.008251613937318325,0.0617540143430233
18391209361800,0.2597709000110626,-9.817423820495605,1.50355863571167,0.012776692397892475,-0.007985432632267475,0.0598907470703125
18391210598975,0.24420857429504395,-9.856928825378418,1.5394717454910278,0.0077192517928779125,-0.0031941730994731188,0.0601569265127182
18391211836125,0.24181437492370605,-9.855731010437012,1.4867992401123047,0.00452507846057415,-0.0037265352439135313,0.0582936592400074
18391213073300,0.27054479718208313,-9.8784761428833,1.4975731372833252,0.004791259765625,-0.0010647244052961469,0.0585598424077034
18391214310475,0.243011474609375,-9.932345390319824,1.4472949504852295,0.008251613937318325,-0.007453070487827063,0.0652143657207489
18391215547637,0.22266076505184174,-9.921571731567383,1.4748282432556152,0.0114457868039608,-0.0090501569211483,0.0617540143430233
18391216784825,0.24660277366638184,-9.955090522766113,1.4927847385406494,0.007985432632267475,-0.008783976547420025,0.062020193785429
18391218021987,0.2597709000110626,-9.983820915222168,1.4927847385406494,0.0005323622026480734,-0.005589802749454975,0.0596245639026165
18391219259137,0.2298433631658554,-9.977835655212402,1.4856021404266357,0.0015970865497365594,-0.0071868896484375,0.0585598424077034
18391220496325,0.22625206410884857,-9.9371337890625,1.4879963397979736,0.00452507846057415,-0.01171196810901165,0.0676099956035614
18391221733500,0.16759411990642548,-9.93474006652832,1.5322891473770142,0.0010647244052961469,-0.00958251953125,0.0652143657207489
18391222970662,0.22505496442317963,-9.941922187805176,1.5215152502059937,-0.005057440605014563,-0.00984870083630085,0.0641496405005455
18391224207837,0.2082955539226532,-9.940725326538086,1.533486247062683,-0.007453070487827063,-0.0138414166867733,0.0644158273935318
18391225445012,0.22385786473751068,-9.949105262756348,1.5131354331970215,-0.008517795242369175,-0.014373779296875,0.0628187358379364
18391226682162,0.2059013545513153,-9.98980712890625,1.5382746458053589,-0.0063883461989462376,-0.010913425125181675,0.0649481862783432
18391227919337,0.2059013545513153,-9.939528465270996,1.4951789379119873,-0.010114881210029125,-0.00931633822619915,0.0630849227309227
18391229156512,0.21188685297966003,-9.985018730163574,1.535880446434021,-0.0157046839594841,-0.00931633822619915,0.0644158273935318
18391230393687,0.19871874153614044,-9.9371337890625,1.4975731372833252,-0.01410759799182415,-0.0042588976211845875,0.0705379918217659
18391231630850,0.2082955539226532,-9.963470458984375,1.4628572463989258,-0.014906140975654125,-0.01171196810901165,0.0697394460439682
18391232868025,0.21547815203666687,-9.927556991577148,1.5286978483200073,-0.01703559048473835,-0.008517795242369175,0.0676099956035614
18391234105187,0.2298433631658554,-9.959878921508789,1.5203181505203247,-0.01943122036755085,-0.005855984054505825,0.0614878311753273
18391235342375,0.20709845423698425,-9.986215591430664,1.5203181505203247,-0.0191650390625,-0.010647243820130825,0.0609554722905159
18391236579525,0.18555063009262085,-9.953893661499023,1.5155296325683594,-0.02369011752307415,-0.0114457868039608,0.0660129114985466
18391237816700,0.19871874153614044,-9.979032516479492,1.533486247062683,-0.0258195661008358,-0.008517795242369175,0.0662790909409523
18391239053875,0.20231004059314728,-9.986215591430664,1.5382746458053589,-0.02129448764026165,-0.00931633822619915,0.062286376953125
18391240291025,0.22026655077934265,-9.945513725280762,1.5095441341400146,-0.02741665206849575,-0.008251613937318325,0.0585598424077034
18391241528237,0.23582887649536133,-9.971850395202637,1.4927847385406494,-0.02874755859375,-0.00931633822619915,0.0686747208237648
18391242765375,0.22864626348018646,-9.928754806518555,1.4879963397979736,-0.033272635191679,-0.012510511092841625,0.0708041712641716
18391244002575,0.21547815203666687,-9.940725326538086,1.4652514457702637,-0.0314093679189682,-0.012776692397892475,0.0641496405005455
18391245239725,0.23702597618103027,-9.904812812805176,1.5059528350830078,-0.0369991734623909,-0.007985432632267475,0.0644158273935318
18391246476900,0.21547815203666687,-9.913191795349121,1.5286978483200073,-0.0330064557492733,-0.0066545275039970875,0.0697394460439682
18391247714062,0.23343466222286224,-9.8784761428833,1.5430630445480347,-0.0343373604118824,-0.0114457868039608,0.0724012553691864
18391248951237,0.22505496442317963,-9.86889934539795,1.5167267322540283,-0.0433875173330307,-0.00984870083630085,0.0726674422621727
18391250188412,0.17836803197860718,-9.84256362915039,1.5119383335113525,-0.0433875173330307,-0.0066545275039970875,0.0710703507065773
18391251425562,0.21547815203666687,-9.828198432922363,1.5322891473770142,-0.0441860631108284,-0.01171196810901165,0.0742645263671875
18391252662737,0.20350714027881622,-9.837775230407715,1.4496891498565674,-0.0393948033452034,-0.01117960549890995,0.0737321600317955
18391253899925,0.19153614342212677,-9.8784761428833,1.4903905391693115,-0.043121337890625,-0.00931633822619915,0.0753292515873909
18391255137075,0.20470423996448517,-9.834183692932129,1.4700398445129395,-0.0452507846057415,-0.010647243820130825,0.071336530148983
18391256374237,0.14365209639072418,-9.825803756713867,1.478419542312622,-0.04791259765625,-0.0077192517928779125,0.071868896484375
18391257611437,0.19393034279346466,-9.822212219238281,1.4688427448272705,-0.0447184219956398,-0.007985432632267475,0.0724012553691864
18391258848600,0.21428105235099792,-9.835380554199219,1.4413094520568848,-0.047646414488554,-0.008517795242369175,0.0745307058095932
18391260085750,0.15562310814857483,-9.873687744140625,1.4185645580291748,-0.0511067695915699,-0.01357523538172245,0.0758616104722023
18391261322937,0.19273324310779572,-9.813833236694336,1.4544775485992432,-0.04791259765625,-0.010913425125181675,0.0785234197974205
18391262560112,0.16759411990642548,-9.804256439208984,1.4748282432556152,-0.0463155098259449,-0.00452507846057415,0.0771925151348114
18391263797250,0.15562310814857483,-9.797073364257812,1.4736311435699463,-0.0516391322016716,-0.010913425125181675,0.0779910609126091
18391265034437,0.1735796183347702,-9.81263542175293,1.4927847385406494,-0.0606892891228199,-0.0077192517928779125,0.0787896066904068
18391266271612,0.18555063009262085,-9.768342971801758,1.456871747970581,-0.0582936592400074,-0.01224433071911335,0.0787896066904068
18391267508787,0.2322375625371933,-9.767146110534668,1.4401123523712158,-0.0516391322016716,-0.01117960549890995,0.0769263356924057
18391268745950,0.1867477297782898,-9.794679641723633,1.459265947341919,-0.052437674254179,-0.007985432632267475,0.0811852365732193
18391269983137,0.18555063009262085,-9.769539833068848,1.436521053314209,-0.0558980293571949,-0.010647243820130825,0.0798543319106102
18391271220287,0.16639702022075653,-9.799468040466309,1.4185645580291748,-0.0561642125248909,-0.010913425125181675,0.0833146795630455
18391272457462,0.16160862147808075,-9.75397777557373,1.4449007511138916,-0.0574951171875,-0.010381062515079975,0.0865088552236557
18391273694625,0.18555063009262085,-9.786299705505371,1.4724340438842773,-0.0588260218501091,-0.01117960549890995,0.0833146795630455
18391274931800,0.17717093229293823,-9.7791166305542,1.4401123523712158,-0.0569627545773983,-0.010647243820130825,0.0841132253408432
18391276168962,0.1711854189634323,-9.774328231811523,1.434126853942871,-0.0617540143430233,-0.010913425125181675,0.0833146795630455
18391277406150,0.14006079733371735,-9.77672290802002,1.4281413555145264,-0.0596245639026165,-0.014373779296875,0.0835808664560318
18391278643312,0.17238251864910126,-9.822212219238281,1.4101848602294922,-0.0577612966299057,-0.0138414166867733,0.0843794047832489
18391279880500,0.15562310814857483,-9.792284965515137,1.4532804489135742,-0.0609554722905159,-0.014906140975654125,0.08624267578125
18391281117662,0.152031809091568,-9.780314445495605,1.434126853942871,-0.0588260218501091,-0.00984870083630085,0.0891706645488739
18391282354825,0.12689268589019775,-9.75517463684082,1.4281413555145264,-0.0673438161611557,-0.0090501569211483,0.0899692103266716
18391283591987,0.1412578970193863,-9.77791976928711,1.4329297542572021,-0.0609554722905159,-0.0138414166867733,0.090501569211483
18391284829175,0.12689268589019775,-9.739612579345703,1.4508862495422363,-0.062286376953125,-0.01943122036755085,0.0913001149892807
18391286066337,0.11372458189725876,-9.743204116821289,1.4472949504852295,-0.0561642125248909,-0.015438503585755825,0.0928971990942955
18391287303512,0.17477671802043915,-9.763554573059082,1.479616641998291,-0.0633511021733284,-0.010647243820130825,0.0889044851064682
18391288540662,0.1975216418504715,-9.747992515563965,1.4065935611724854,-0.0668114572763443,-0.0119781494140625,0.0886383056640625
18391289777837,0.1472434103488922,-9.72165584564209,1.4006080627441406,-0.06707763671875,-0.013309055007994175,0.0920986607670784
18391291015037,0.16998831927776337,-9.758766174316406,1.4173674583435059,-0.06707763671875,-0.007985432632267475,0.090501569211483
18391292252175,0.152031809091568,-9.72165584564209,1.4221558570861816,-0.0646820068359375,-0.008783976547420025,0.0920986607670784
18391293489350,0.14245499670505524,-9.68813705444336,1.4413094520568848,-0.0636172816157341,-0.01357523538172245,0.085710309445858
18391294726525,0.1735796183347702,-9.700108528137207,1.4209587574005127,-0.0678761824965477,-0.01224433071911335,0.0881059393286705
18391295963700,0.15083470940589905,-9.718064308166504,1.4185645580291748,-0.0686747208237648,-0.00984870083630085,0.0974222794175148
18391297200862,0.18076223134994507,-9.740809440612793,1.4089877605438232,-0.0684085413813591,-0.010647243820130825,0.095292828977108
18391298438037,0.1628057211637497,-9.670180320739746,1.4065935611724854,-0.0668114572763443,-0.015172322280704975,0.0942281037569046
18391299675200,0.13766659796237946,-9.701305389404297,1.4245500564575195,-0.0644158273935318,-0.010913425125181675,0.0963575541973114
18391300912375,0.1280897855758667,-9.68574333190918,1.3850456476211548,-0.0649481862783432,-0.0138414166867733,0.0984870046377182
18391302149550,0.12330138683319092,-9.701305389404297,1.357512354850769,-0.0641496405005455,-0.0119781494140625,0.100084088742733
18391303386700,0.14844051003456116,-9.66299819946289,1.3994109630584717,-0.062020193785429,-0.0066545275039970875,0.0899692103266716
18391304623887,0.11013327538967133,-9.646238327026367,1.3862427473068237,-0.0654805526137352,-0.01410759799182415,0.0942281037569046
18391305861050,0.11252748221158981,-9.66299819946289,1.3551181554794312,-0.066545270383358,-0.013309055007994175,0.0928971990942955
18391307098225,0.14844051003456116,-9.66299819946289,1.3874398469924927,-0.0673438161611557,-0.010913425125181675,0.0926310196518898
18391308335400,0.18914192914962769,-9.670180320739746,1.335964560508728,-0.0649481862783432,-0.008783976547420025,0.0931633859872818
18391309572562,0.12090718746185303,-9.65222454071045,1.3754688501358032,-0.066545270383358,-0.008517795242369175,0.0878397598862648
18391310809737,0.090979665517807,-9.653421401977539,1.3838485479354858,-0.0617540143430233,-0.012510511092841625,0.0920986607670784
18391312046912,0.08738835901021957,-9.640253067016602,1.359906554222107,-0.066545270383358,-0.00958251953125,0.0920986607670784
18391313284087,0.10893617570400238,-9.643844604492188,1.37906014919281,-0.0689409002661705,-0.01171196810901165,0.0931633859872818
18391314521237,0.15083470940589905,-9.643844604492188,1.358709454536438,-0.0657467320561409,-0.015438503585755825,0.0947604700922966
18391315758412,0.10175357013940811,-9.63067626953125,1.3946224451065063,-0.0598907470703125,-0.01171196810901165,0.0920986607670784
18391316995575,0.08858546614646912,-9.63067626953125,1.3634978532791138,-0.062286376953125,-0.010913425125181675,0.0915662944316864
18391318232750,0.07900865375995636,-9.654618263244629,1.3838485479354858,-0.0609554722905159,-0.010114881210029125,0.0955590158700943
18391319469925,0.12928690016269684,-9.668983459472656,1.3204022645950317,-0.0596245639026165,-0.0071868896484375,0.0928971990942955
18391320707100,0.10055647045373917,-9.643844604492188,1.3479355573654175,-0.0652143657207489,-0.010114881210029125,0.0907677561044693
18391321944262,0.11133038252592087,-9.658209800720215,1.3850456476211548,-0.0561642125248909,-0.0181003138422966,0.0931633859872818
18391323181425,0.13766659796237946,-9.670180320739746,1.3311761617660522,-0.0588260218501091,-0.01357523538172245,0.091033935546875
18391324418612,0.1149216815829277,-9.709685325622559,1.3778630495071411,-0.0601569265127182,-0.012776692397892475,0.0859764963388443
18391325655775,0.1041477769613266,-9.673771858215332,1.3922282457351685,-0.0596245639026165,-0.01703559048473835,0.085710309445858
18391326892937,0.05506663769483566,-9.700108528137207,1.3634978532791138,-0.0561642125248909,-0.0138414166867733,0.0891706645488739
18391328130112,0.09457096457481384,-9.68694019317627,1.3658920526504517,-0.0588260218501091,-0.0077192517928779125,0.090501569211483
18391329367275,0.08379705995321274,-9.697713851928711,1.3670891523361206,-0.0582936592400074,-0.008517795242369175,0.0923648402094841
18391330604450,0.1256955862045288,-9.746795654296875,1.3682862520217896,-0.0545671246945858,-0.013309055007994175,0.0918324738740921
18391331841625,0.12689268589019775,-9.733627319335938,1.3958195447921753,-0.0548333041369915,-0.00958251953125,0.0886383056640625
18391333078800,0.1628057211637497,-9.697713851928711,1.4053964614868164,-0.0561642125248909,-0.00984870083630085,0.0897030308842659
18391334315975,0.1604115217924118,-9.712079048156738,1.3742717504501343,-0.0553656667470932,-0.014373779296875,0.0883721262216568
18391335553137,0.16400282084941864,-9.736021041870117,1.3778630495071411,-0.0553656667470932,-0.01117960549890995,0.0875735804438591
18391336790300,0.12330138683319092,-9.744400978088379,1.3395558595657349,-0.0580274797976017,-0.01117960549890995,0.0883721262216568
18391338027475,0.14484921097755432,-9.715670585632324,1.3694833517074585,-0.0558980293571949,-0.010114881210029125,0.0918324738740921
18391339264625,0.1759738326072693,-9.720458984375,1.382651448249817,-0.0580274797976017,-0.00931633822619915,0.0899692103266716
18391340501812,0.12928690016269684,-9.718064308166504,1.3563152551651,-0.0548333041369915,-0.012776692397892475,0.0897030308842659
18391341738975,0.12928690016269684,-9.678560256958008,1.3706804513931274,-0.0521714948117733,-0.01357523538172245,0.0942281037569046
18391342976150,0.16639702022075653,-9.695320129394531,1.3958195447921753,-0.0558980293571949,-0.01117960549890995,0.0920986607670784
18391344213312,0.17238251864910126,-9.702502250671387,1.3778630495071411,-0.0553656667470932,-0.01224433071911335,0.0923648402094841
18391345450500,0.17238251864910126,-9.68694019317627,1.3251906633377075,-0.0532362200319767,-0.02182685025036335,0.0928971990942955
18391346687662,0.14006079733371735,-9.66539192199707,1.3754688501358032,-0.052437674254179,-0.012510511092841625,0.0899692103266716
18391347924837,0.1951274424791336,-9.673771858215332,1.3838485479354858,-0.0548333041369915,-0.010114881210029125,0.0968899205327034
18391349161987,0.17238251864910126,-9.696516990661621,1.3958195447921753,-0.0500420443713665,-0.014373779296875,0.0987531840801239
18391350399187,0.2106897532939911,-9.684545516967773,1.4030022621154785,-0.0468478724360466,-0.013309055007994175,0.0976884588599205
18391351636350,0.16519992053508759,-9.713275909423828,1.382651448249817,-0.0489773228764534,-0.0167694091796875,0.0939619243144989
18391352873512,0.1735796183347702,-9.670180320739746,1.3922282457351685,-0.0457831472158432,-0.0181003138422966,0.095292828977108
18391354110675,0.19153614342212677,-9.673771858215332,1.4089877605438232,-0.0495096817612648,-0.0162370465695858,0.0939619243144989
18391355347837,0.19871874153614044,-9.68813705444336,1.3970166444778442,-0.0508405901491642,-0.01836649514734745,0.0968899205327034
18391356585012,0.19871874153614044,-9.712079048156738,1.414973258972168,-0.0481787770986557,-0.02076212503015995,0.1016811802983284
18391357822175,0.181959331035614,-9.702502250671387,1.3682862520217896,-0.0455169677734375,-0.0186326764523983,0.1014149934053421
18391359059375,0.181959331035614,-9.679757118225098,1.3694833517074585,-0.0463155098259449,-0.01410759799182415,0.1027459055185318
18391360296525,0.14365209639072418,-9.71926212310791,1.3443442583084106,-0.04791259765625,-0.0157046839594841,0.0992855504155159
18391361533700,0.21188685297966003,-9.701305389404297,1.3646949529647827,-0.0449846051633358,-0.02076212503015995,0.1011488139629364
18391362770862,0.19153614342212677,-9.724050521850586,1.4030022621154785,-0.0449846051633358,-0.02182685025036335,0.1016811802983284
18391364008037,0.18914192914962769,-9.762357711791992,1.3874398469924927,-0.04791259765625,-0.0191650390625,0.0995517298579216
18391365245225,0.1999158412218094,-9.718064308166504,1.3754688501358032,-0.0484449602663517,-0.02022976242005825,0.1008826345205307
18391366482387,0.22266076505184174,-9.703699111938477,1.3754688501358032,-0.0460493303835392,-0.0167694091796875,0.1046091690659523
18391367719562,0.21547815203666687,-9.769539833068848,1.3527239561080933,-0.0473802350461483,-0.0196974016726017,0.0990193635225296
18391368956725,0.2082955539226532,-9.743204116821289,1.3922282457351685,-0.0455169677734375,-0.02262539230287075,0.0984870046377182
18391370193887,0.17836803197860718,-9.727641105651855,1.4269442558288574,-0.0441860631108284,-0.02502102218568325,0.0987531840801239
18391371431050,0.181959331035614,-9.761160850524902,1.3910311460494995,-0.0417904332280159,-0.02022976242005825,0.0987531840801239
18391372668225,0.1735796183347702,-9.747992515563965,1.3910311460494995,-0.0439198799431324,-0.0258195661008358,0.1011488139629364
18391373905400,0.22385786473751068,-9.769539833068848,1.3946224451065063,-0.0391286201775074,-0.0311431884765625,0.095292828977108
18391375142575,0.2214636653661728,-9.712079048156738,1.3910311460494995,-0.0385962575674057,-0.0306108258664608,0.104875348508358
18391376379725,0.2106897532939911,-9.737218856811523,1.3958195447921753,-0.0407257080078125,-0.0258195661008358,0.1059400737285614
18391377616900,0.2621650993824005,-9.745597839355469,1.3611036539077759,-0.038330078125,-0.02741665206849575,0.1035444438457489
18391378854075,0.24779987335205078,-9.713275909423828,1.3766659498214722,-0.0372653529047966,-0.02981228195130825,0.1019473597407341
18391380091237,0.24181437492370605,-9.709685325622559,1.4281413555145264,-0.0391286201775074,-0.0369991734623909,0.10540771484375
18391381328425,0.2190694510936737,-9.724050521850586,1.4006080627441406,-0.0393948033452034,-0.0338049978017807,0.1062062531709671
18391382565587,0.27413609623908997,-9.774328231811523,1.4018051624298096,-0.0346035435795784,-0.02901373989880085,0.1046091690659523
18391383802775,0.2645592987537384,-9.750386238098145,1.3874398469924927,-0.033272635191679,-0.0300784632563591,0.1040768101811409
18391385039925,0.26096799969673157,-9.744400978088379,1.4018051624298096,-0.0364668108522892,-0.03087700717151165,0.1035444438457489
18391386277100,0.2561795711517334,-9.731232643127441,1.3886369466781616,-0.0375315360724926,-0.0375315360724926,0.1032782644033432
18391387514275,0.27892449498176575,-9.744400978088379,1.4077906608581543,-0.0385962575674057,-0.0391286201775074,0.1043429896235466
18391388751425,0.29807811975479126,-9.720458984375,1.4006080627441406,-0.0343373604118824,-0.0367329902946949,0.1019473597407341
18391389988612,0.3292027413845062,-9.715670585632324,1.3958195447921753,-0.03087700717151165,-0.0385962575674057,0.1094004288315773
18391391225775,0.29209262132644653,-9.727641105651855,1.416170358657837,-0.033272635191679,-0.0372653529047966,0.1078033447265625
18391392462950,0.2561795711517334,-9.713275909423828,1.460463047027588,-0.0377977155148983,-0.0399271659553051,0.1043429896235466
18391393700112,0.3076549172401428,-9.72165584564209,1.4018051624298096,-0.0340711809694767,-0.0441860631108284,0.1056738942861557
18391394937287,0.31962594389915466,-9.677363395690918,1.37906014919281,-0.02901373989880085,-0.0473802350461483,0.1075371652841568
18391396174450,0.25258827209472656,-9.733627319335938,1.414973258972168,-0.0300784632563591,-0.0489773228764534,0.1038106232881546
18391397411625,0.243011474609375,-9.684545516967773,1.381454348564148,-0.02794901467859745,-0.0460493303835392,0.1094004288315773
18391398648800,0.24899697303771973,-9.696516990661621,1.4018051624298096,-0.0306108258664608,-0.0457831472158432,0.1032782644033432
18391399885975,0.2944868206977844,-9.712079048156738,1.4101848602294922,-0.0324740931391716,-0.0516391322016716,0.0992855504155159
18391401123162,0.27413609623908997,-9.682151794433594,1.4006080627441406,-0.0292799212038517,-0.0548333041369915,0.1078033447265625
18391402360312,0.24420857429504395,-9.679757118225098,1.4018051624298096,-0.0258195661008358,-0.0566965714097023,0.1136593297123909
18391403597487,0.2753331959247589,-9.684545516967773,1.4077906608581543,-0.0244886614382267,-0.0553656667470932,0.1067386195063591
18391404834650,0.27892449498176575,-9.668983459472656,1.357512354850769,-0.0244886614382267,-0.0585598424077034,0.1067386195063591
18391406071825,0.2645592987537384,-9.682151794433594,1.3467384576797485,-0.0271504707634449,-0.0593583844602108,0.1059400737285614
18391407309025,0.27892449498176575,-9.68933391571045,1.3910311460494995,-0.01996358297765255,-0.0582936592400074,0.1088680699467659
18391408546150,0.24899697303771973,-9.706093788146973,1.3886369466781616,-0.0220930315554142,-0.0582936592400074,0.1088680699467659
18391409783350,0.2777273952960968,-9.709685325622559,1.4113819599151611,-0.02182685025036335,-0.0580274797976017,0.1019473597407341
18391411020512,0.2717418968677521,-9.683348655700684,1.4077906608581543,-0.0220930315554142,-0.0638834610581398,0.1014149934053421
18391412257662,0.30047231912612915,-9.75517463684082,1.4401123523712158,-0.0191650390625,-0.0678761824965477,0.1030120849609375
18391413494862,0.2753331959247589,-9.714473724365234,1.4245500564575195,-0.0173017717897892,-0.0710703507065773,0.100084088742733
18391414732012,0.2908955216407776,-9.671378135681152,1.4616601467132568,-0.015438503585755825,-0.0686747208237648,0.1064724400639534
18391415969187,0.2645592987537384,-9.6618013381958,1.3982137441635132,-0.013309055007994175,-0.0697394460439682,0.100084088742733
18391417206337,0.2585738003253937,-9.695320129394531,1.4101848602294922,-0.014906140975654125,-0.0753292515873909,0.1014149934053421
18391418443525,0.27892449498176575,-9.68813705444336,1.3742717504501343,-0.014906140975654125,-0.0729336217045784,0.1027459055185318
18391419680687,0.28730419278144836,-9.703699111938477,1.4437036514282227,-0.013042873702943325,-0.0787896066904068,0.0995517298579216
18391420917850,0.2861070930957794,-9.71926212310791,1.413776159286499,-0.010647243820130825,-0.0787896066904068,0.1016811802983284
18391422155050,0.26096799969673157,-9.679757118225098,1.4616601467132568,-0.0114457868039608,-0.0817175954580307,0.1008826345205307
18391423392200,0.23582887649536133,-9.75517463684082,1.4496891498565674,-0.0119781494140625,-0.0811852365732193,0.1022135391831398
18391424629362,0.23582887649536133,-9.668983459472656,1.37906014919281,-0.01117960549890995,-0.0833146795630455,0.0968899205327034
18391425866537,0.21428105235099792,-9.677363395690918,1.437718152999878,-0.0077192517928779125,-0.0891706645488739,0.0955590158700943
18391427103712,0.27054479718208313,-9.667786598205566,1.4041993618011475,-0.00984870083630085,-0.0899692103266716,0.0979546457529068
18391428340900,0.2717418968677521,-9.682151794433594,1.3886369466781616,-0.006122165359556675,-0.0889044851064682,0.100616455078125
18391429578050,0.2753331959247589,-9.710882186889648,1.37906014919281,-0.003460354171693325,-0.0881059393286705,0.0963575541973114
18391430815237,0.24660277366638184,-9.674968719482422,1.4089877605438232,-0.00452507846057415,-0.091033935546875,0.0992855504155159
18391432052387,0.22266076505184174,-9.641449928283691,1.4113819599151611,0.0010647244052961469,-0.0968899205327034,0.100084088742733
18391433289575,0.26336219906806946,-9.612719535827637,1.4041993618011475,-0.005057440605014563,-0.1008826345205307,0.0968899205327034
18391434526737,0.2693476974964142,-9.651026725769043,1.3958195447921753,-0.0002661811013240367,-0.1027459055185318,0.0995517298579216
18391435763900,0.22266076505184174,-9.622296333312988,1.4041993618011475,0.0005323622026480734,-0.1019473597407341,0.1011488139629364
18391437001062,0.20111294090747833,-9.592369079589844,1.4233529567718506,0.0013309054775163531,-0.100616455078125,0.1032782644033432
18391438238250,0.21428105235099792,-9.617507934570312,1.4245500564575195,0.00452507846057415,-0.1022135391831398,0.0968899205327034
18391439475412,0.1975216418504715,-9.625887870788574,1.4113819599151611,0.005057440605014563,-0.1019473597407341,0.0923648402094841
18391440712587,0.15801730751991272,-9.604340553283691,1.4018051624298096,0.00692070834338665,-0.1030120849609375,0.0915662944316864
18391441949762,0.19632454216480255,-9.62828254699707,1.4185645580291748,0.00452507846057415,-0.1043429896235466,0.0955590158700943
18391443186937,0.15562310814857483,-9.63187313079834,1.4233529567718506,0.006122165359556675,-0.1032782644033432,0.0963575541973114
18391444424087,0.181959331035614,-9.667786598205566,1.3970166444778442,0.005589802749454975,-0.1080695241689682,0.0886383056640625
18391445661250,0.17238251864910126,-9.607931137084961,1.4173674583435059,0.01117960549890995,-0.1064724400639534,0.0934295654296875
18391446898425,0.17477671802043915,-9.678560256958008,1.4041993618011475,0.013042873702943325,-0.1070047989487648,0.0928971990942955
18391448135612,0.11013327538967133,-9.674968719482422,1.4425065517425537,0.01463996060192585,-0.1107313334941864,0.090501569211483
18391449372787,0.15083470940589905,-9.647436141967773,1.416170358657837,0.00984870083630085,-0.1091342493891716,0.0859764963388443
18391450609950,0.14844051003456116,-9.666589736938477,1.4101848602294922,0.010114881210029125,-0.1141916885972023,0.0918324738740921
18391451847125,0.16400282084941864,-9.682151794433594,1.4053964614868164,0.0157046839594841,-0.1115298792719841,0.0907677561044693
18391453084287,0.1280897855758667,-9.690531730651855,1.4257471561431885,0.0173017717897892,-0.1115298792719841,0.0897030308842659
18391454321450,0.12210428714752197,-9.672574996948242,1.4616601467132568,0.015172322280704975,-0.1080695241689682,0.0886383056640625
18391455558612,0.12210428714752197,-9.696516990661621,1.4389152526855469,0.0157046839594841,-0.1133931428194046,0.0886383056640625
18391456795800,0.1173158809542656,-9.68933391571045,1.434126853942871,0.01836649514734745,-0.1173858642578125,0.0865088552236557
18391458032975,0.1472434103488922,-9.690531730651855,1.4018051624298096,0.01996358297765255,-0.1120622381567955,0.0825161412358284
18391459270137,0.11971008777618408,-9.682151794433594,1.436521053314209,0.023956298828125,-0.1147240549325943,0.090501569211483
18391460507312,0.13168109953403473,-9.666589736938477,1.434126853942871,0.02315775491297245,-0.1176520437002182,0.0889044851064682
18391461744487,0.12449848651885986,-9.691728591918945,1.4760253429412842,0.0268842913210392,-0.1221771240234375,0.0854441300034523
18391462981650,0.1041477769613266,-9.690531730651855,1.4233529567718506,0.0282151959836483,-0.1208462193608284,0.0878397598862648
18391464218825,0.14484921097755432,-9.680954933166504,1.4413094520568848,0.02555338479578495,-0.119781494140625,0.085710309445858
18391465455975,0.07661445438861847,-9.715670585632324,1.43532395362854,0.03034464456140995,-0.1205800324678421,0.08624267578125
18391466693162,0.07062894850969315,-9.691728591918945,1.4484920501708984,0.0322079136967659,-0.1211123988032341,0.0833146795630455
18391467930325,0.06823474913835526,-9.6618013381958,1.4628572463989258,0.0322079136967659,-0.119249127805233,0.080919049680233
18391469167500,0.08259996026754379,-9.680954933166504,1.4832079410552979,0.0295461006462574,-0.1216447576880455,0.0881059393286705
18391470404675,0.04668693244457245,-9.679757118225098,1.4389152526855469,0.0292799212038517,-0.1237742081284523,0.0878397598862648
18391471641837,0.0454898327589035,-9.672574996948242,1.4389152526855469,0.0295461006462574,-0.1243065744638443,0.0835808664560318
18391472879012,0.015562310814857483,-9.66299819946289,1.4257471561431885,0.02874755859375,-0.1200476735830307,0.0822499617934227
18391474116187,0.06703764945268631,-9.658209800720215,1.413776159286499,0.0343373604118824,-0.1213785782456398,0.0787896066904068
18391475353337,0.05386953800916672,-9.640253067016602,1.4508862495422363,0.0330064557492733,-0.1184505894780159,0.0721350759267807
18391476590525,0.033518824726343155,-9.678560256958008,1.4197616577148438,0.0369991734623909,-0.1219109445810318,0.0779910609126091
18391477827712,-0.023942017927765846,-9.702502250671387,1.3874398469924927,0.0401933453977108,-0.1200476735830307,0.0737321600317955
18391479064875,0.004788403399288654,-9.703699111938477,1.4496891498565674,0.0327402763068676,-0.1168534979224205,0.0785234197974205
18391480302037,-0.011971008963882923,-9.679757118225098,1.4437036514282227,0.033538818359375,-0.1232418492436409,0.071868896484375
18391481539212,-0.021547814831137657,-9.679757118225098,1.4101848602294922,0.0372653529047966,-0.1200476735830307,0.0716027170419693
18391482776375,-0.020350715145468712,-9.715670585632324,1.4437036514282227,0.0415242500603199,-0.1216447576880455,0.071868896484375
