timestamp_ns,accel_x,accel_y,accel_z,gyro_x,gyro_y,gyro_z
18667345101737,-0.021547814831137657,-9.835380554199219,-0.03950432687997818,0.033272635191679,-0.0377977155148983,-0.0002661811013240367
18667346338812,-0.02992752194404602,-9.835380554199219,-0.04788403585553169,0.02848137728869915,-0.0409918874502182,-0.0007985432748682797
18667347575887,0.031124621629714966,-9.886856079101562,-0.05985504388809204,0.02901373989880085,-0.0407257080078125,-0.0039927163161337376
18667348812950,0.02513911761343479,-9.858125686645508,-0.020350715145468712,0.0343373604118824,-0.043121337890625,0.0007985432748682797
18667350050025,0.004788403399288654,-9.849745750427246,-0.0586579404771328,0.03034464456140995,-0.0391286201775074,0.0007985432748682797
18667351287100,0.033518824726343155,-9.821015357971191,-0.03232172504067421,0.02608574740588665,-0.02741665206849575,-0.0053236219100654125
18667352524175,-0.033518824726343155,-9.815030097961426,-0.04908113554120064,0.02608574740588665,-0.0399271659553051,-0.003460354171693325
18667353761262,-0.03950432687997818,-9.84495735168457,-0.017956512048840523,0.0292799212038517,-0.0396609827876091,-0.0021294488105922937
18667354998312,0.0071826050989329815,-9.824606895446777,-0.06703764945268631,0.0306108258664608,-0.0375315360724926,-0.00692070834338665
18667356235400,-0.009576806798577309,-9.841365814208984,-0.05267243832349777,0.0343373604118824,-0.0354020856320858,-0.00984870083630085
18667357472450,-0.026336219161748886,-9.838972091674805,-0.04668693244457245,0.0354020856320858,-0.0322079136967659,-0.0066545275039970875
18667358709537,-0.03950432687997818,-9.822212219238281,-0.061052143573760986,0.0316755510866642,-0.0409918874502182,-0.0018632676219567657
18667359946600,-0.0071826050989329815,-9.836577415466309,-0.02992752194404602,0.0330064557492733,-0.0377977155148983,0.0007985432748682797
18667361183687,-0.028730420395731926,-9.865307807922363,-0.03232172504067421,0.0295461006462574,-0.0300784632563591,-0.005057440605014563
18667362420750,-0.013168109580874443,-9.872490882873535,-0.06584054976701736,0.0271504707634449,-0.03034464456140995,-0.008251613937318325
18667363657825,-0.031124621629714966,-9.787496566772461,-0.05386953800916672,0.0295461006462574,-0.0300784632563591,-0.008251613937318325
18667364894900,-0.014365210197865963,-9.821015357971191,-0.021547814831137657,0.0338049978017807,-0.0348697230219841,-0.005589802749454975
18667366131987,0.0059855044819414616,-9.858125686645508,-0.02274491637945175,0.03034464456140995,-0.0314093679189682,-0.004791259765625
18667367369050,0.004788403399288654,-9.823410034179688,-0.0347159244120121,0.0348697230219841,-0.02608574740588665,-0.00692070834338665
18667368606125,-0.017956512048840523,-9.859322547912598,-0.016759412363171577,0.0343373604118824,-0.02874755859375,-0.00984870083630085
18667369843200,0.008379706181585789,-9.874884605407715,-0.04429273307323456,0.0372653529047966,-0.0346035435795784,-0.00692070834338665
18667371080262,-0.009576806798577309,-9.888052940368652,-0.04429273307323456,0.0348697230219841,-0.0306108258664608,-0.0063883461989462376
18667372317337,0.017956512048840523,-9.864110946655273,-0.04788403585553169,0.0306108258664608,-0.0276828333735466,-0.005589802749454975
18667373554425,0.040701430290937424,-9.891644477844238,-0.05386953800916672,0.0330064557492733,-0.03087700717151165,-0.006122165359556675
18667374791487,0.019153613597154617,-9.891644477844238,-0.07661445438861847,0.0314093679189682,-0.0319417305290699,-0.005589802749454975
18667376028562,0.043095629662275314,-9.865307807922363,-0.04189852997660637,0.03034464456140995,-0.033272635191679,-0.00452507846057415
18667377265625,0.028730420395731926,-9.841365814208984,-0.04429273307323456,0.0343373604118824,-0.0369991734623909,-0.005855984054505825
18667378502700,0.04788403585553169,-9.850942611694336,-0.08259996026754379,0.033272635191679,-0.0351359061896801,-0.008251613937318325
18667379739775,0.03711012750864029,-9.888052940368652,-0.06823474913835526,0.0300784632563591,-0.0314093679189682,-0.005855984054505825
18667380976862,0.06703764945268631,-9.882067680358887,-0.09217676520347595,0.0356682650744915,-0.0316755510866642,-0.0071868896484375
18667382213937,0.05506663769483566,-9.856928825378418,-0.035913024097681046,0.0292799212038517,-0.0348697230219841,-0.0090501569211483
18667383451012,0.03711012750864029,-9.871294021606445,-0.08858546614646912,0.0258195661008358,-0.0324740931391716,-0.005855984054505825
18667384688075,0.07900865375995636,-9.853337287902832,-0.06823474913835526,0.0322079136967659,-0.0306108258664608,-0.008517795242369175
18667385925150,0.016759412363171577,-9.854534149169922,-0.02992752194404602,0.0322079136967659,-0.033272635191679,-0.01357523538172245
18667387162225,0.06344634294509888,-9.836577415466309,-0.019153613597154617,0.0295461006462574,-0.03087700717151165,-0.010114881210029125
18667388399312,0.03711012750864029,-9.816226959228516,-0.019153613597154617,0.02848137728869915,-0.0306108258664608,-0.012776692397892475
18667389636362,0.038307227194309235,-9.861717224121094,-0.07541735470294952,0.0377977155148983,-0.0343373604118824,-0.010647243820130825
18667390873450,0.033518824726343155,-9.84495735168457,-0.07541735470294952,0.0351359061896801,-0.0351359061896801,-0.0066545275039970875
18667392110500,0.014365210197865963,-9.815030097961426,-0.05626374110579491,0.0324740931391716,-0.0346035435795784,-0.00692070834338665
18667393347600,0.028730420395731926,-9.816226959228516,-0.06823474913835526,0.0311431884765625,-0.0324740931391716,-0.015438503585755825
18667394584675,0.031124621629714966,-9.852140426635742,-0.08978256583213806,0.0327402763068676,-0.03034464456140995,-0.01357523538172245
18667395821725,0.05746084079146385,-9.807847023010254,-0.09217676520347595,0.033272635191679,-0.0292799212038517,-0.01171196810901165
18667397058812,0.05147533863782883,-9.804256439208984,-0.08499415963888168,0.0351359061896801,-0.0340711809694767,-0.01410759799182415
18667398295887,0.06703764945268631,-9.806650161743164,-0.07302315533161163,0.033272635191679,-0.0327402763068676,-0.01224433071911335
18667399532950,0.040701430290937424,-9.80904483795166,-0.04668693244457245,0.0359344482421875,-0.0356682650744915,-0.01224433071911335
18667400770025,0.0011971008498221636,-9.836577415466309,-0.08499415963888168,0.0369991734623909,-0.0364668108522892,-0.010913425125181675
18667402007112,0.026336219161748886,-9.815030097961426,-0.06823474913835526,0.033538818359375,-0.0306108258664608,-0.0119781494140625
18667403244175,0.004788403399288654,-9.805453300476074,-0.040701430290937424,0.0343373604118824,-0.0340711809694767,-0.013042873702943325
18667404481250,0.015562310814857483,-9.817423820495605,-0.10893617570400238,0.0343373604118824,-0.033538818359375,-0.01703559048473835
18667405718337,0.021547814831137657,-9.81143856048584,-0.033518824726343155,0.0372653529047966,-0.02981228195130825,-0.0138414166867733
18667406955412,0.05985504388809204,-9.856928825378418,-0.04788403585553169,0.0316755510866642,-0.0314093679189682,-0.01597086526453495
18667408192487,0.04668693244457245,-9.910798072814941,-0.07900865375995636,0.0354020856320858,-0.038063894957304,-0.0173017717897892
18667409429550,0.06584054976701736,-9.84256362915039,0.0011971008498221636,0.0372653529047966,-0.0377977155148983,-0.013042873702943325
18667410666625,0.07781155407428741,-9.831789016723633,-0.05386953800916672,0.033538818359375,-0.0359344482421875,-0.014373779296875
18667411903687,0.06344634294509888,-9.8784761428833,-0.05506663769483566,0.0369991734623909,-0.0367329902946949,-0.00958251953125
18667413140775,0.0586579404771328,-9.837775230407715,-0.07781155407428741,0.0404595248401165,-0.0362006276845932,-0.01224433071911335
18667414377837,0.040701430290937424,-9.880870819091797,-0.06344634294509888,0.0372653529047966,-0.0314093679189682,-0.0162370465695858
18667415614925,0.09217676520347595,-9.872490882873535,-0.010773907415568829,0.0388624407351017,-0.0348697230219841,-0.01463996060192585
18667416851987,0.11133038252592087,-9.840168952941895,-0.040701430290937424,0.0375315360724926,-0.0407257080078125,-0.01410759799182415
18667418089062,0.07422025501728058,-9.904812812805176,-0.061052143573760986,0.0409918874502182,-0.038330078125,-0.015172322280704975
18667419326137,0.033518824726343155,-9.861717224121094,-0.05267243832349777,0.0412580706179142,-0.038063894957304,-0.014906140975654125
18667420563212,0.07302315533161163,-9.847352027893066,-0.06344634294509888,0.0385962575674057,-0.0401933453977108,-0.00984870083630085
18667421800275,0.03232172504067421,-9.847352027893066,-0.033518824726343155,0.0401933453977108,-0.043121337890625,-0.01357523538172245
18667423037337,0.03711012750864029,-9.884461402893066,-0.05746084079146385,0.0372653529047966,-0.0377977155148983,-0.01117960549890995
18667424274450,0.04788403585553169,-9.84376049041748,-0.021547814831137657,0.0367329902946949,-0.0399271659553051,-0.01357523538172245
18667425511487,0.015562310814857483,-9.870096206665039,-0.06344634294509888,0.0396609827876091,-0.0396609827876091,-0.01703559048473835
18667426748587,0.04788403585553169,-9.832986831665039,-0.05746084079146385,0.0354020856320858,-0.0364668108522892,-0.01597086526453495
18667427985650,0.08379705995321274,-9.818621635437012,-0.08858546614646912,0.0385962575674057,-0.0375315360724926,-0.010381062515079975
18667429222725,0.09457096457481384,-9.821015357971191,-0.06224924325942993,0.0364668108522892,-0.0393948033452034,-0.0157046839594841
18667430459800,0.0586579404771328,-9.817423820495605,-0.040701430290937424,0.0364668108522892,-0.0425889752805233,-0.012776692397892475
18667431696875,0.031124621629714966,-9.823410034179688,-0.05147533863782883,0.0330064557492733,-0.0385962575674057,-0.0167694091796875
18667432933950,0.07781155407428741,-9.853337287902832,-0.07302315533161163,0.0338049978017807,-0.0396609827876091,-0.01836649514734745
18667434171025,0.05147533863782883,-9.850942611694336,-0.06584054976701736,0.0396609827876091,-0.0404595248401165,-0.015172322280704975
18667435408087,0.061052143573760986,-9.818621635437012,-0.06703764945268631,0.0401933453977108,-0.0425889752805233,-0.0173017717897892
18667436645162,0.02513911761343479,-9.840168952941895,-0.023942017927765846,0.0385962575674057,-0.0420566126704216,-0.0138414166867733
18667437882237,0.05267243832349777,-9.829395294189453,-0.040701430290937424,0.0367329902946949,-0.0407257080078125,-0.01357523538172245
18667439119300,0.04788403585553169,-9.832986831665039,-0.09696517139673233,0.0362006276845932,-0.0377977155148983,-0.015438503585755825
18667440356387,0.03950432687997818,-9.836577415466309,-0.07781155407428741,0.0351359061896801,-0.0417904332280159,-0.0210283063352108
18667441593475,0.0586579404771328,-9.807847023010254,-0.0454898327589035,0.0354020856320858,-0.0495096817612648,-0.01756795309484005
18667442830525,0.06344634294509888,-9.780314445495605,-0.09696517139673233,0.0348697230219841,-0.0495096817612648,-0.0167694091796875
18667444067600,0.013168109580874443,-9.827000617980957,-0.05267243832349777,0.0369991734623909,-0.0465816929936409,-0.00984870083630085
18667445304687,0.07422025501728058,-9.86770248413086,-0.02753331884741783,0.0369991734623909,-0.0481787770986557,-0.0090501569211483
18667446541762,0.07541735470294952,-9.880870819091797,-0.028730420395731926,0.0364668108522892,-0.0468478724360466,-0.01650322787463665
18667447778825,0.033518824726343155,-9.858125686645508,-0.033518824726343155,0.038063894957304,-0.0473802350461483,-0.01756795309484005
18667449015887,0.06344634294509888,-9.81263542175293,-0.0347159244120121,0.0377977155148983,-0.0455169677734375,-0.00958251953125
18667450252975,0.07182604819536209,-9.854534149169922,-0.05506663769483566,0.0324740931391716,-0.0487111397087574,-0.01783413253724575
18667451490037,0.07422025501728058,-9.78869342803955,-0.031124621629714966,0.0377977155148983,-0.0447184219956398,-0.0220930315554142
18667452727137,0.0933738648891449,-9.832986831665039,-0.019153613597154617,0.0407257080078125,-0.0465816929936409,-0.01224433071911335
18667453964200,0.07781155407428741,-9.818621635437012,-0.0454898327589035,0.0369991734623909,-0.0489773228764534,-0.010647243820130825
18667455201275,0.04788403585553169,-9.78869342803955,-0.013168109580874443,0.0377977155148983,-0.0460493303835392,-0.01996358297765255
18667456438350,0.04189852997660637,-9.829395294189453,-0.014365210197865963,0.0399271659553051,-0.0436537005007267,-0.0181003138422966
18667457675425,0.08619125932455063,-9.803058624267578,0.010773907415568829,0.038330078125,-0.0497758649289608,-0.01117960549890995
18667458912462,0.07302315533161163,-9.824606895446777,-0.028730420395731926,0.0425889752805233,-0.0516391322016716,-0.01410759799182415
18667460149562,0.10773907601833344,-9.81024169921875,-0.020350715145468712,0.0409918874502182,-0.0484449602663517,-0.01357523538172245
18667461386637,0.07900865375995636,-9.837775230407715,-0.06344634294509888,0.0396609827876091,-0.0460493303835392,-0.01463996060192585
18667462623737,0.03232172504067421,-9.831789016723633,-0.05985504388809204,0.0404595248401165,-0.0452507846057415,-0.0162370465695858
18667463860775,0.07900865375995636,-9.804256439208984,-0.02753331884741783,0.0423227921128273,-0.0481787770986557,-0.012510511092841625
18667465097862,0.026336219161748886,-9.794679641723633,-0.04788403585553169,0.0425889752805233,-0.0505744069814682,-0.01117960549890995
18667466334937,0.061052143573760986,-9.84495735168457,-0.020350715145468712,0.0420566126704216,-0.0495096817612648,-0.01463996060192585
18667467572012,0.07422025501728058,-9.834183692932129,-0.026336219161748886,0.0404595248401165,-0.047646414488554,-0.01756795309484005
18667468809087,0.06464345008134842,-9.865307807922363,-0.04429273307323456,0.038330078125,-0.0449846051633358,-0.01650322787463665
18667470046137,0.07781155407428741,-9.801861763000488,-0.05746084079146385,0.0436537005007267,-0.0460493303835392,-0.01171196810901165
18667471283237,0.06584054976701736,-9.848548889160156,-0.08259996026754379,0.0409918874502182,-0.0460493303835392,-0.01463996060192585
18667472520287,0.0694318488240242,-9.834183692932129,-0.019153613597154617,0.0415242500603199,-0.0487111397087574,-0.012510511092841625
18667473757375,0.08259996026754379,-9.816226959228516,-0.06464345008134842,0.0441860631108284,-0.0473802350461483,-0.010647243820130825
18667474994437,0.06584054976701736,-9.853337287902832,-0.04668693244457245,0.0436537005007267,-0.0465816929936409,-0.0181003138422966
18667476231525,0.1041477769613266,-9.81263542175293,-0.026336219161748886,0.0425889752805233,-0.0497758649289608,-0.010647243820130825
18667477468600,0.06823474913835526,-9.822212219238281,-0.026336219161748886,0.0423227921128273,-0.0511067695915699,-0.01117960549890995
18667478705662,0.08499415963888168,-9.834183692932129,-0.06823474913835526,0.0359344482421875,-0.052437674254179,-0.015438503585755825
18667479942737,0.10175357013940811,-9.832986831665039,-0.033518824726343155,0.0375315360724926,-0.0511067695915699,-0.0157046839594841
18667481179825,0.0802057608962059,-9.859322547912598,-0.05027823522686958,0.0439198799431324,-0.0487111397087574,-0.0119781494140625
18667482416887,0.033518824726343155,-9.860519409179688,-0.03950432687997818,0.0404595248401165,-0.052437674254179,-0.0138414166867733
18667483653962,0.08259996026754379,-9.876082420349121,-0.033518824726343155,0.0407257080078125,-0.0561642125248909,-0.01224433071911335
18667484891025,0.07541735470294952,-9.855731010437012,-0.040701430290937424,0.038330078125,-0.0532362200319767,-0.014906140975654125
18667486128100,0.07302315533161163,-9.9000244140625,-0.014365210197865963,0.0393948033452034,-0.0537685826420784,-0.01171196810901165
18667487365187,0.0694318488240242,-9.888052940368652,-0.013168109580874443,0.0388624407351017,-0.0521714948117733,-0.01224433071911335
18667488602250,0.08499415963888168,-9.895236015319824,-0.011971008963882923,0.0415242500603199,-0.0500420443713665,-0.01171196810901165
18667489839325,0.07302315533161163,-9.877279281616211,-0.019153613597154617,0.0351359061896801,-0.0540347620844841,-0.013309055007994175
18667491076412,0.090979665517807,-9.886856079101562,-0.038307227194309235,0.0369991734623909,-0.0558980293571949,-0.010647243820130825
18667492313475,0.038307227194309235,-9.906009674072266,-0.02753331884741783,0.0375315360724926,-0.0556318499147892,-0.0090501569211483
18667493550562,0.03232172504067421,-9.862914085388184,-0.04429273307323456,0.0377977155148983,-0.0516391322016716,-0.012510511092841625
18667494787637,0.07062894850969315,-9.917980194091797,-0.014365210197865963,0.0412580706179142,-0.0535023994743824,-0.01463996060192585
18667496024712,0.09576807171106339,-9.90122127532959,-0.0454898327589035,0.0415242500603199,-0.0553656667470932,-0.013042873702943325
18667497261775,0.07541735470294952,-9.852140426635742,0.0011971008498221636,0.033272635191679,-0.0569627545773983,-0.01783413253724575
18667498498850,0.061052143573760986,-9.914389610290527,-0.020350715145468712,0.0367329902946949,-0.0529700368642807,-0.01463996060192585
18667499735925,0.05506663769483566,-9.86770248413086,-0.013168109580874443,0.0385962575674057,-0.0566965714097023,-0.015438503585755825
18667500973012,0.06344634294509888,-9.919178009033203,0.0035913025494664907,0.0367329902946949,-0.0540347620844841,-0.0162370465695858
18667502210062,0.061052143573760986,-9.861717224121094,-0.014365210197865963,0.0396609827876091,-0.0553656667470932,-0.0173017717897892
18667503447150,0.035913024097681046,-9.87967300415039,0.016759412363171577,0.0391286201775074,-0.0585598424077034,-0.01783413253724575
18667504684225,0.02274491637945175,-9.885659217834473,-0.026336219161748886,0.0399271659553051,-0.0481787770986557,-0.0173017717897892
18667505921300,0.0454898327589035,-9.871294021606445,-0.016759412363171577,0.038063894957304,-0.0521714948117733,-0.0162370465695858
18667507158350,0.0454898327589035,-9.858125686645508,-0.04668693244457245,0.0327402763068676,-0.0569627545773983,-0.02076212503015995
18667508395437,0.008379706181585789,-9.885659217834473,0.0035913025494664907,0.0356682650744915,-0.0596245639026165,-0.01783413253724575
18667509632512,0.04788403585553169,-9.849745750427246,-0.03711012750864029,0.0346035435795784,-0.0574951171875,-0.0157046839594841
18667510869587,0.0802057608962059,-9.885659217834473,-0.05626374110579491,0.03087700717151165,-0.0513729527592659,-0.0167694091796875
18667512106650,0.04788403585553169,-9.871294021606445,-0.06224924325942993,0.02901373989880085,-0.0521714948117733,-0.01703559048473835
18667513343737,0.038307227194309235,-9.8784761428833,-0.06584054976701736,0.0364668108522892,-0.0548333041369915,-0.0173017717897892
18667514580812,0.04189852997660637,-9.870096206665039,-0.06823474913835526,0.0404595248401165,-0.052437674254179,-0.014373779296875
18667515817887,0.03950432687997818,-9.854534149169922,-0.019153613597154617,0.033538818359375,-0.0500420443713665,-0.01357523538172245
18667517054962,0.019153613597154617,-9.862914085388184,-0.043095629662275314,0.02901373989880085,-0.0489773228764534,-0.0157046839594841
18667518292025,0.05626374110579491,-9.862914085388184,0.013168109580874443,0.02874755859375,-0.0505744069814682,-0.015172322280704975
18667519529087,0.10295067727565765,-9.86650562286377,0.008379706181585789,0.0292799212038517,-0.0529700368642807,-0.015172322280704975
18667520766175,0.05746084079146385,-9.888052940368652,-0.031124621629714966,0.0316755510866642,-0.0564303919672966,-0.01836649514734745
18667522003262,0.04429273307323456,-9.927556991577148,0.0011971008498221636,0.02874755859375,-0.0540347620844841,-0.02182685025036335
18667523240325,0.07182604819536209,-9.943120002746582,-0.02753331884741783,0.02741665206849575,-0.0492435023188591,-0.0196974016726017
18667524477400,0.05386953800916672,-9.895236015319824,-0.02992752194404602,0.0292799212038517,-0.052703857421875,-0.01756795309484005
18667525714462,0.04429273307323456,-9.929951667785645,-0.03232172504067421,0.0282151959836483,-0.0511067695915699,-0.02262539230287075
18667526951550,0.008379706181585789,-9.920374870300293,-0.05746084079146385,0.0263519287109375,-0.0481787770986557,-0.0196974016726017
18667528188600,0.020350715145468712,-9.940725326538086,-0.019153613597154617,0.0311431884765625,-0.0481787770986557,-0.01650322787463665
18667529425700,0.02753331884741783,-9.921571731567383,-0.0059855044819414616,0.0292799212038517,-0.0505744069814682,-0.01943122036755085
18667530662762,0.05985504388809204,-9.888052940368652,-0.015562310814857483,0.0234239362180233,-0.0516391322016716,-0.01996358297765255
18667531899825,0.0454898327589035,-9.913191795349121,-0.013168109580874443,0.02422248013317585,-0.0484449602663517,-0.01703559048473835
18667533136900,0.05267243832349777,-9.915586471557617,-0.08140286058187485,0.02129448764026165,-0.0487111397087574,-0.01836649514734745
18667534373975,0.03950432687997818,-9.923966407775879,-0.013168109580874443,0.0186326764523983,-0.0508405901491642,-0.0228915736079216
18667535611075,0.06823474913835526,-9.922768592834473,-0.015562310814857483,0.0186326764523983,-0.0489773228764534,-0.02502102218568325
18667536848137,0.07781155407428741,-9.904812812805176,-0.035913024097681046,0.01756795309484005,-0.0441860631108284,-0.02262539230287075
18667538085200,0.04189852997660637,-9.889249801635742,-0.040701430290937424,0.0196974016726017,-0.0449846051633358,-0.02369011752307415
18667539322300,0.06703764945268631,-9.904812812805176,0.014365210197865963,0.0204959437251091,-0.0455169677734375,-0.0196974016726017
18667540559362,0.11013327538967133,-9.86650562286377,-0.008379706181585789,0.0173017717897892,-0.047646414488554,-0.02315775491297245
18667541796450,0.1041477769613266,-9.865307807922363,-0.031124621629714966,0.0173017717897892,-0.0468478724360466,-0.02661811001598835
18667543033512,0.07182604819536209,-9.865307807922363,-0.03711012750864029,0.01703559048473835,-0.04791259765625,-0.0210283063352108
18667544270587,0.12928690016269684,-9.81143856048584,-0.028730420395731926,0.01996358297765255,-0.0492435023188591,-0.0173017717897892
18667545507662,0.1173158809542656,-9.877279281616211,-0.004788403399288654,0.0204959437251091,-0.0455169677734375,-0.02555338479578495
18667546744725,0.10175357013940811,-9.883264541625977,-0.0059855044819414616,0.0173017717897892,-0.0452507846057415,-0.0252872034907341
18667547981812,0.07062894850969315,-9.860519409179688,-0.04189852997660637,0.01889885775744915,-0.0465816929936409,-0.02022976242005825
18667549218875,0.0802057608962059,-9.84376049041748,-0.05027823522686958,0.01836649514734745,-0.0463155098259449,-0.0223592109978199
18667550455937,0.09935937076807022,-9.817423820495605,-0.04908113554120064,0.01463996060192585,-0.038330078125,-0.0263519287109375
18667551693037,0.08259996026754379,-9.797073364257812,-0.02274491637945175,0.0204959437251091,-0.0409918874502182,-0.0276828333735466
18667552930112,0.12090718746185303,-9.801861763000488,0.016759412363171577,0.0228915736079216,-0.0457831472158432,-0.02741665206849575
18667554167175,0.08259996026754379,-9.819818496704102,-0.0011971008498221636,0.02315775491297245,-0.0457831472158432,-0.02555338479578495
18667555404237,0.12090718746185303,-9.84376049041748,0.0011971008498221636,0.01889885775744915,-0.0505744069814682,-0.0263519287109375
18667556641312,0.10055647045373917,-9.852140426635742,0.0011971008498221636,0.0186326764523983,-0.0441860631108284,-0.0263519287109375
18667557878387,0.12449848651885986,-9.854534149169922,-0.0454898327589035,0.0181003138422966,-0.0447184219956398,-0.02848137728869915
18667559115475,0.12090718746185303,-9.847352027893066,0.013168109580874443,0.0119781494140625,-0.0452507846057415,-0.0314093679189682
18667560352537,0.09457096457481384,-9.877279281616211,-0.0071826050989329815,0.01650322787463665,-0.0473802350461483,-0.02369011752307415
18667561589625,0.0694318488240242,-9.84256362915039,-0.05626374110579491,0.0181003138422966,-0.0396609827876091,-0.0263519287109375
18667562826687,0.11013327538967133,-9.821015357971191,-0.06464345008134842,0.0157046839594841,-0.0420566126704216,-0.0276828333735466
18667564063775,0.09457096457481384,-9.835380554199219,-0.02513911761343479,0.0157046839594841,-0.0449846051633358,-0.02369011752307415
18667565300837,0.1173158809542656,-9.84495735168457,-0.07900865375995636,0.015438503585755825,-0.0473802350461483,-0.0268842913210392
18667566537900,0.11971008777618408,-9.831789016723633,-0.05027823522686958,0.02129448764026165,-0.0436537005007267,-0.02608574740588665
18667567774975,0.14006079733371735,-9.813833236694336,0.019153613597154617,0.0252872034907341,-0.0447184219956398,-0.02555338479578495
18667569012050,0.1149216815829277,-9.830592155456543,0.014365210197865963,0.01756795309484005,-0.0449846051633358,-0.0276828333735466
18667570249137,0.10654197633266449,-9.81024169921875,-0.03232172504067421,0.01703559048473835,-0.0465816929936409,-0.0295461006462574
18667571486225,0.12330138683319092,-9.81143856048584,-0.017956512048840523,0.0204959437251091,-0.0532362200319767,-0.0228915736079216
18667572723262,0.15682020783424377,-9.805453300476074,-0.008379706181585789,0.0173017717897892,-0.0468478724360466,-0.02555338479578495
18667573960350,0.11013327538967133,-9.797073364257812,0.0035913025494664907,0.0191650390625,-0.043121337890625,-0.02608574740588665
18667575197425,0.12689268589019775,-9.837775230407715,0.0,0.0186326764523983,-0.0460493303835392,-0.0295461006462574
18667576434512,0.14604631066322327,-9.815030097961426,-0.016759412363171577,0.01943122036755085,-0.0412580706179142,-0.0252872034907341
18667577671587,0.10295067727565765,-9.792284965515137,-0.043095629662275314,0.02315775491297245,-0.0439198799431324,-0.0220930315554142
18667578908650,0.1173158809542656,-9.828198432922363,0.02513911761343479,0.02262539230287075,-0.0487111397087574,-0.0191650390625
18667580145712,0.10773907601833344,-9.824606895446777,0.021547814831137657,0.02076212503015995,-0.04791259765625,-0.0247548408806324
18667581382787,0.1472434103488922,-9.818621635437012,0.009576806798577309,0.02182685025036335,-0.04791259765625,-0.01943122036755085
18667582619862,0.13048399984836578,-9.852140426635742,-0.028730420395731926,0.01943122036755085,-0.0452507846057415,-0.0204959437251091
18667583856950,0.11372458189725876,-9.830592155456543,0.0059855044819414616,0.0223592109978199,-0.0447184219956398,-0.0204959437251091
18667585094025,0.14604631066322327,-9.818621635437012,-0.0035913025494664907,0.0220930315554142,-0.0425889752805233,-0.0223592109978199
18667586331087,0.12210428714752197,-9.819818496704102,-0.03711012750864029,0.02022976242005825,-0.0471140518784523,-0.02076212503015995
18667587568162,0.1173158809542656,-9.841365814208984,-0.04908113554120064,0.023956298828125,-0.0465816929936409,-0.0186326764523983
18667588805237,0.14604631066322327,-9.838972091674805,0.023942017927765846,0.01943122036755085,-0.0439198799431324,-0.01836649514734745
18667590042312,0.13168109953403473,-9.819818496704102,0.0,0.0228915736079216,-0.0452507846057415,-0.0204959437251091
18667591279387,0.13168109953403473,-9.86770248413086,-0.040701430290937424,0.0220930315554142,-0.0508405901491642,-0.02076212503015995
18667592516450,0.1256955862045288,-9.861717224121094,-0.014365210197865963,0.0191650390625,-0.0436537005007267,-0.0191650390625
18667593753525,0.15322890877723694,-9.858125686645508,-0.038307227194309235,0.02315775491297245,-0.0497758649289608,-0.01650322787463665
18667594990587,0.13287819921970367,-9.838972091674805,0.008379706181585789,0.023956298828125,-0.0484449602663517,-0.014373779296875
18667596227675,0.11372458189725876,-9.84256362915039,-0.010773907415568829,0.0258195661008358,-0.0444522425532341,-0.01597086526453495
18667597464750,0.14484921097755432,-9.84376049041748,-0.0011971008498221636,0.02555338479578495,-0.0452507846057415,-0.01410759799182415
18667598701825,0.15682020783424377,-9.836577415466309,0.011971008963882923,0.02608574740588665,-0.0447184219956398,-0.01650322787463665
18667599938900,0.14604631066322327,-9.84376049041748,-0.017956512048840523,0.0295461006462574,-0.04791259765625,-0.012776692397892475
18667601175987,0.14245499670505524,-9.848548889160156,-0.0347159244120121,0.02555338479578495,-0.0516391322016716,-0.01756795309484005
18667602413037,0.13527239859104156,-9.821015357971191,0.0059855044819414616,0.0223592109978199,-0.0500420443713665,-0.0191650390625
18667603650137,0.12449848651885986,-9.854534149169922,-0.0454898327589035,0.0244886614382267,-0.0484449602663517,-0.01357523538172245
18667604887200,0.12449848651885986,-9.848548889160156,-0.008379706181585789,0.02182685025036335,-0.0495096817612648,-0.007985432632267475
18667606124275,0.1364694982767105,-9.81143856048584,-0.02753331884741783,0.02315775491297245,-0.0481787770986557,-0.01410759799182415
18667607361337,0.14484921097755432,-9.792284965515137,0.013168109580874443,0.02555338479578495,-0.0452507846057415,-0.01996358297765255
18667608598412,0.09457096457481384,-9.787496566772461,0.010773907415568829,0.02502102218568325,-0.0449846051633358,-0.0223592109978199
18667609835487,0.14844051003456116,-9.800664901733398,-0.008379706181585789,0.02422248013317585,-0.0468478724360466,-0.01410759799182415
18667611072575,0.09696517139673233,-9.783905029296875,-0.0347159244120121,0.0223592109978199,-0.0505744069814682,-0.0167694091796875
18667612309650,0.11013327538967133,-9.792284965515137,0.03232172504067421,0.02794901467859745,-0.0468478724360466,-0.0114457868039608
18667613546725,0.11611878126859665,-9.75158405303955,-0.002394201699644327,0.02422248013317585,-0.043121337890625,-0.015172322280704975
18667614783775,0.17238251864910126,-9.799468040466309,-0.011971008963882923,0.0252872034907341,-0.047646414488554,-0.01597086526453495
18667616020862,0.1388636976480484,-9.799468040466309,-0.0071826050989329815,0.02661811001598835,-0.0460493303835392,-0.0071868896484375
18667617257950,0.1256955862045288,-9.783905029296875,-0.02274491637945175,0.0276828333735466,-0.0449846051633358,-0.00984870083630085
18667618495012,0.11252748221158981,-9.827000617980957,0.011971008963882923,0.02901373989880085,-0.0457831472158432,-0.0162370465695858
18667619732075,0.14365209639072418,-9.829395294189453,-0.02513911761343479,0.0322079136967659,-0.0473802350461483,-0.013309055007994175
18667620969162,0.14006079733371735,-9.807847023010254,0.026336219161748886,0.0316755510866642,-0.0484449602663517,-0.010114881210029125
18667622206237,0.11851298809051514,-9.848548889160156,0.020350715145468712,0.02555338479578495,-0.0503082275390625,-0.01224433071911335
18667623443312,0.10175357013940811,-9.855731010437012,-0.015562310814857483,0.0282151959836483,-0.0516391322016716,-0.010647243820130825
18667624680400,0.13048399984836578,-9.834183692932129,0.002394201699644327,0.0271504707634449,-0.0487111397087574,-0.010114881210029125
18667625917462,0.07781155407428741,-9.872490882873535,0.017956512048840523,0.0282151959836483,-0.0473802350461483,-0.00958251953125
18667627154550,0.09217676520347595,-9.894038200378418,-0.013168109580874443,0.0252872034907341,-0.0447184219956398,-0.008251613937318325
18667628391600,0.14604631066322327,-9.841365814208984,0.010773907415568829,0.0252872034907341,-0.0439198799431324,-0.013042873702943325
18667629628687,0.1412578970193863,-9.898826599121094,-0.026336219161748886,0.0252872034907341,-0.0497758649289608,-0.00984870083630085
18667630865762,0.11611878126859665,-9.891644477844238,-0.014365210197865963,0.02794901467859745,-0.0492435023188591,-0.010114881210029125
18667632102850,0.09217676520347595,-9.889249801635742,-0.023942017927765846,0.0300784632563591,-0.04791259765625,-0.008251613937318325
18667633339887,0.10295067727565765,-9.84615421295166,0.033518824726343155,0.0300784632563591,-0.0492435023188591,-0.00984870083630085
18667634576975,0.1388636976480484,-9.84615421295166,0.026336219161748886,0.02848137728869915,-0.0465816929936409,-0.010647243820130825
18667635814062,0.0802057608962059,-9.890447616577148,0.04908113554120064,0.0220930315554142,-0.0449846051633358,-0.008783976547420025
18667637051137,0.05626374110579491,-9.86889934539795,0.02274491637945175,0.02369011752307415,-0.0481787770986557,-0.0063883461989462376
18667638288212,0.07781155407428741,-9.9000244140625,0.0454898327589035,0.02555338479578495,-0.0521714948117733,-0.008251613937318325
18667639525275,0.09696517139673233,-9.848548889160156,0.0454898327589035,0.02502102218568325,-0.0455169677734375,-0.0071868896484375
18667640762337,0.09816227108240128,-9.870096206665039,0.038307227194309235,0.0306108258664608,-0.0447184219956398,-0.0010647244052961469
18667641999412,0.11252748221158981,-9.871294021606445,0.011971008963882923,0.02555338479578495,-0.0473802350461483,-0.01117960549890995
18667643236512,0.07422025501728058,-9.8784761428833,0.016759412363171577,0.02502102218568325,-0.0436537005007267,-0.0053236219100654125
18667644473562,0.1280897855758667,-9.874884605407715,0.0071826050989329815,0.0258195661008358,-0.0473802350461483,-0.0023956298828125
18667645710650,0.11133038252592087,-9.90241813659668,-0.02992752194404602,0.02422248013317585,-0.0465816929936409,0.0018632676219567657
18667646947725,0.13766659796237946,-9.922768592834473,-0.02274491637945175,0.02022976242005825,-0.0436537005007267,0.0021294488105922937
18667648184800,0.09816227108240128,-9.904812812805176,0.02992752194404602,0.0204959437251091,-0.0492435023188591,0.00452507846057415
18667649421875,0.10773907601833344,-9.9371337890625,-0.002394201699644327,0.0228915736079216,-0.0516391322016716,0.0021294488105922937
18667650658950,0.11971008777618408,-9.93474006652832,0.026336219161748886,0.0210283063352108,-0.0465816929936409,0.0005323622026480734
18667651896025,0.07781155407428741,-9.956287384033203,0.002394201699644327,0.01756795309484005,-0.0455169677734375,0.0031941730994731188
18667653133100,0.10175357013940811,-9.961075782775879,-0.009576806798577309,0.0173017717897892,-0.043121337890625,0.007985432632267475
18667654370175,0.11851298809051514,-9.973047256469727,0.026336219161748886,0.01836649514734745,-0.0457831472158432,0.0063883461989462376
18667655607237,0.10055647045373917,-9.97065258026123,0.061052143573760986,0.01171196810901165,-0.0433875173330307,0.005057440605014563
18667656844325,0.15083470940589905,-9.952696800231934,0.02992752194404602,0.01650322787463665,-0.04791259765625,0.0042588976211845875
18667658081400,0.08858546614646912,-9.93593692779541,0.004788403399288654,0.01783413253724575,-0.0497758649289608,0.005855984054505825
18667659318462,0.13766659796237946,-9.99220085144043,0.009576806798577309,0.0119781494140625,-0.0489773228764534,0.00692070834338665
18667660555550,0.12090718746185303,-9.976638793945312,0.019153613597154617,0.010647243820130825,-0.0481787770986557,0.0021294488105922937
18667661792600,0.0933738648891449,-9.920374870300293,0.013168109580874443,0.0119781494140625,-0.0457831472158432,0.007985432632267475
18667663029687,0.08858546614646912,-9.915586471557617,0.03950432687997818,0.00931633822619915,-0.0457831472158432,0.00931633822619915
18667664266775,0.08140286058187485,-9.915586471557617,0.06584054976701736,0.00452507846057415,-0.0415242500603199,0.0071868896484375
18667665503837,0.07541735470294952,-9.927556991577148,0.02753331884741783,0.0071868896484375,-0.0447184219956398,0.010381062515079975
18667666740912,0.11252748221158981,-9.932345390319824,0.02513911761343479,0.0026618109550327063,-0.0457831472158432,0.00931633822619915
18667667977987,0.09935937076807022,-9.913191795349121,0.038307227194309235,0.0071868896484375,-0.043121337890625,0.0138414166867733
18667669215037,0.05147533863782883,-9.952696800231934,0.04908113554120064,0.01463996060192585,-0.047646414488554,0.01171196810901165
18667670452125,0.11851298809051514,-9.910798072814941,0.033518824726343155,0.005855984054505825,-0.0460493303835392,0.0090501569211483
18667671689225,0.10654197633266449,-9.917980194091797,0.04788403585553169,0.0,-0.0425889752805233,0.010647243820130825
18667672926275,0.090979665517807,-9.956287384033203,0.06344634294509888,0.0005323622026480734,-0.0463155098259449,0.013309055007994175
18667674163337,0.0802057608962059,-9.927556991577148,0.03232172504067421,0.0013309054775163531,-0.043121337890625,0.012510511092841625
18667675400437,0.1173158809542656,-9.891644477844238,0.0071826050989329815,0.0018632676219567657,-0.0417904332280159,0.01889885775744915
18667676637500,0.09816227108240128,-9.944316864013672,0.0347159244120121,0.0023956298828125,-0.0412580706179142,0.01996358297765255
18667677874587,0.10295067727565765,-9.919178009033203,0.043095629662275314,0.0026618109550327063,-0.0420566126704216,0.010381062515079975
18667679111662,0.0694318488240242,-9.980230331420898,0.02753331884741783,-0.0002661811013240367,-0.0425889752805233,0.01410759799182415
18667680348712,0.05267243832349777,-9.929951667785645,0.05027823522686958,-0.0018632676219567657,-0.0420566126704216,0.02129448764026165
18667681585800,0.06464345008134842,-9.919178009033203,0.04668693244457245,0.0005323622026480734,-0.042855154722929,0.01783413253724575
18667682822887,0.07661445438861847,-9.93474006652832,0.04429273307323456,-0.0013309054775163531,-0.0409918874502182,0.02608574740588665
18667684059962,0.10893617570400238,-9.93354320526123,0.0347159244120121,-0.008517795242369175,-0.0401933453977108,0.02981228195130825
18667685297025,0.07182604819536209,-9.93593692779541,0.05985504388809204,-0.004791259765625,-0.0412580706179142,0.0247548408806324
18667686534100,0.07541735470294952,-9.9586820602417,0.05626374110579491,-0.003460354171693325,-0.0449846051633358,0.02661811001598835
18667687771175,0.08978256583213806,-9.946710586547852,0.017956512048840523,-0.0063883461989462376,-0.0417904332280159,0.023956298828125
18667689008237,0.08499415963888168,-9.93593692779541,0.07781155407428741,-0.0042588976211845875,-0.0412580706179142,0.02741665206849575
18667690245325,0.07302315533161163,-9.959878921508789,0.033518824726343155,-0.0071868896484375,-0.0401933453977108,0.0258195661008358
18667691482387,0.11851298809051514,-9.976638793945312,0.002394201699644327,-0.008517795242369175,-0.0396609827876091,0.02661811001598835
18667692719475,0.05506663769483566,-9.93354320526123,0.061052143573760986,-0.008783976547420025,-0.0343373604118824,0.0271504707634449
18667693956537,0.08738835901021957,-9.917980194091797,0.05386953800916672,-0.008517795242369175,-0.0364668108522892,0.02555338479578495
18667695193625,0.10295067727565765,-9.941922187805176,0.017956512048840523,-0.0090501569211483,-0.0404595248401165,0.0282151959836483
18667696430700,0.08259996026754379,-9.931148529052734,0.07302315533161163,-0.013309055007994175,-0.0393948033452034,0.0252872034907341
18667697667775,0.07781155407428741,-9.946710586547852,0.0454898327589035,-0.0167694091796875,-0.0388624407351017,0.0252872034907341
18667698904850,0.07422025501728058,-9.951498985290527,0.033518824726343155,-0.015172322280704975,-0.0388624407351017,0.0220930315554142
18667700141925,0.08619125932455063,-9.925163269042969,0.038307227194309235,-0.0173017717897892,-0.0356682650744915,0.02369011752307415
18667701379000,0.11851298809051514,-9.926360130310059,0.08259996026754379,-0.01756795309484005,-0.0356682650744915,0.0322079136967659
18667702616050,0.10534487664699554,-9.927556991577148,0.0454898327589035,-0.010913425125181675,-0.0356682650744915,0.0319417305290699
18667703853137,0.06344634294509888,-9.949105262756348,0.04429273307323456,-0.015438503585755825,-0.0391286201775074,0.0316755510866642
18667705090225,0.05985504388809204,-9.952696800231934,0.023942017927765846,-0.01597086526453495,-0.0407257080078125,0.0354020856320858
18667706327287,0.06464345008134842,-9.9586820602417,0.06584054976701736,-0.015438503585755825,-0.0375315360724926,0.0316755510866642
18667707564362,0.0802057608962059,-9.953893661499023,0.04788403585553169,-0.014906140975654125,-0.0343373604118824,0.0316755510866642
18667708801437,0.017956512048840523,-9.979032516479492,0.040701430290937424,-0.01703559048473835,-0.0369991734623909,0.0330064557492733
18667710038525,0.07422025501728058,-9.947908401489258,0.026336219161748886,-0.01783413253724575,-0.0346035435795784,0.0346035435795784
18667711275575,0.08858546614646912,-9.927556991577148,0.0694318488240242,-0.02182685025036335,-0.0351359061896801,0.0314093679189682
18667712512662,0.06224924325942993,-9.95748519897461,0.03711012750864029,-0.0215606689453125,-0.0375315360724926,0.0300784632563591
18667713749737,0.05626374110579491,-9.953893661499023,0.016759412363171577,-0.0215606689453125,-0.0362006276845932,0.033538818359375
18667714986812,0.0347159244120121,-9.922768592834473,0.0586579404771328,-0.0247548408806324,-0.0356682650744915,0.0324740931391716
18667716223875,0.031124621629714966,-9.923966407775879,0.061052143573760986,-0.02502102218568325,-0.0324740931391716,0.0340711809694767
18667717460950,0.0933738648891449,-9.963470458984375,0.08738835901021957,-0.0234239362180233,-0.0314093679189682,0.033272635191679
18667718698012,0.04908113554120064,-9.93593692779541,0.06823474913835526,-0.0252872034907341,-0.0316755510866642,0.0330064557492733
18667719935112,0.03711012750864029,-9.932345390319824,0.0933738648891449,-0.02981228195130825,-0.02794901467859745,0.033272635191679
18667721172150,0.11252748221158981,-9.953893661499023,0.08140286058187485,-0.0271504707634449,-0.0247548408806324,0.0356682650744915
18667722409250,0.11611878126859665,-9.93354320526123,0.06344634294509888,-0.02182685025036335,-0.0295461006462574,0.0364668108522892
18667723646325,0.038307227194309235,-9.910798072814941,0.07182604819536209,-0.02502102218568325,-0.02981228195130825,0.0362006276845932
18667724883400,0.013168109580874443,-9.938331604003906,0.08858546614646912,-0.02901373989880085,-0.02502102218568325,0.0311431884765625
18667726120475,0.05746084079146385,-9.939528465270996,0.06224924325942993,-0.0319417305290699,-0.02262539230287075,0.0364668108522892
18667727357550,0.05746084079146385,-9.950302124023438,0.07781155407428741,-0.033538818359375,-0.0247548408806324,0.0385962575674057
18667728594637,0.017956512048840523,-9.963470458984375,0.07900865375995636,-0.0343373604118824,-0.0282151959836483,0.0393948033452034
18667729831712,-0.019153613597154617,-9.90361499786377,0.04788403585553169,-0.033538818359375,-0.02981228195130825,0.0423227921128273
18667731068787,0.019153613597154617,-9.928754806518555,0.035913024097681046,-0.0324740931391716,-0.02502102218568325,0.0409918874502182
18667732305850,0.031124621629714966,-9.922768592834473,0.0059855044819414616,-0.0311431884765625,-0.02555338479578495,0.0369991734623909
18667733542937,0.04668693244457245,-9.952696800231934,0.014365210197865963,-0.0377977155148983,-0.0252872034907341,0.0433875173330307
18667734780000,0.05506663769483566,-9.9000244140625,0.07900865375995636,-0.038330078125,-0.01703559048473835,0.0391286201775074
18667736017062,0.02992752194404602,-9.885659217834473,0.03232172504067421,-0.033538818359375,-0.02608574740588665,0.0346035435795784
18667737254125,0.08140286058187485,-9.86889934539795,0.03711012750864029,-0.0377977155148983,-0.023956298828125,0.0367329902946949
18667738491225,0.0454898327589035,-9.877279281616211,0.0454898327589035,-0.0409918874502182,-0.0196974016726017,0.0436537005007267
18667739728312,0.05386953800916672,-9.914389610290527,0.05147533863782883,-0.0377977155148983,-0.02129448764026165,0.0377977155148983
18667740965375,0.08858546614646912,-9.907206535339355,0.03950432687997818,-0.0409918874502182,-0.01996358297765255,0.0324740931391716
18667742202450,0.09576807171106339,-9.892841339111328,0.10654197633266449,-0.0407257080078125,-0.01410759799182415,0.0356682650744915
18667743439525,0.04429273307323456,-9.910798072814941,0.06224924325942993,-0.0340711809694767,-0.0215606689453125,0.0433875173330307
18667744676612,0.05626374110579491,-9.9000244140625,0.06344634294509888,-0.0343373604118824,-0.01996358297765255,0.0415242500603199
18667745913662,0.023942017927765846,-9.894038200378418,0.06703764945268631,-0.0409918874502182,-0.0119781494140625,0.0362006276845932
18667747150737,0.08738835901021957,-9.920374870300293,0.028730420395731926,-0.0412580706179142,-0.02076212503015995,0.0388624407351017
18667748387825,0.016759412363171577,-9.898826599121094,0.05506663769483566,-0.0367329902946949,-0.0228915736079216,0.0393948033452034
18667749624912,0.02753331884741783,-9.847352027893066,0.014365210197865963,-0.0396609827876091,-0.0196974016726017,0.0388624407351017
18667750861962,-0.002394201699644327,-9.877279281616211,-0.02274491637945175,-0.038330078125,-0.01703559048473835,0.0399271659553051
18667752099050,0.06224924325942993,-9.853337287902832,0.04788403585553169,-0.0396609827876091,-0.0191650390625,0.0369991734623909
18667753336112,0.04668693244457245,-9.87967300415039,0.04189852997660637,-0.0409918874502182,-0.01783413253724575,0.0399271659553051
18667754573200,0.06224924325942993,-9.873687744140625,0.033518824726343155,-0.0412580706179142,-0.01597086526453495,0.0385962575674057
18667755810250,0.03711012750864029,-9.856928825378418,0.0694318488240242,-0.0433875173330307,-0.01597086526453495,0.0372653529047966
18667757047337,0.07182604819536209,-9.831789016723633,0.05147533863782883,-0.0388624407351017,-0.015438503585755825,0.0354020856320858
18667758284425,0.043095629662275314,-9.792284965515137,0.07781155407428741,-0.0452507846057415,-0.01357523538172245,0.0377977155148983
18667759521475,0.035913024097681046,-9.831789016723633,0.03711012750864029,-0.0399271659553051,-0.0114457868039608,0.0375315360724926
18667760758562,0.06823474913835526,-9.86650562286377,0.0586579404771328,-0.0372653529047966,-0.01650322787463665,0.0364668108522892
18667761995637,0.06823474913835526,-9.847352027893066,0.07661445438861847,-0.0369991734623909,-0.01463996060192585,0.0367329902946949
18667763232712,0.05386953800916672,-9.836577415466309,0.05267243832349777,-0.0375315360724926,-0.013042873702943325,0.0364668108522892
18667764469800,0.06584054976701736,-9.834183692932129,0.04788403585553169,-0.0393948033452034,-0.013309055007994175,0.0319417305290699
18667765706850,0.061052143573760986,-9.78869342803955,0.040701430290937424,-0.0377977155148983,-0.010647243820130825,0.0319417305290699
18667766943937,0.07062894850969315,-9.832986831665039,0.03711012750864029,-0.0375315360724926,-0.0138414166867733,0.0362006276845932
18667768181012,0.05027823522686958,-9.822212219238281,0.0586579404771328,-0.0359344482421875,-0.01171196810901165,0.038330078125
18667769418100,0.035913024097681046,-9.807847023010254,0.04429273307323456,-0.0359344482421875,-0.007985432632267475,0.0377977155148983
18667770655150,0.06823474913835526,-9.791088104248047,0.031124621629714966,-0.0375315360724926,-0.0114457868039608,0.0311431884765625
18667771892225,0.07062894850969315,-9.818621635437012,0.02274491637945175,-0.0369991734623909,-0.004791259765625,0.0367329902946949
18667773129312,0.017956512048840523,-9.789891242980957,0.021547814831137657,-0.0348697230219841,-0.00931633822619915,0.0343373604118824
18667774366375,0.010773907415568829,-9.794679641723633,-0.07302315533161163,-0.0343373604118824,-0.01410759799182415,0.0346035435795784
18667775603450,0.038307227194309235,-9.795876502990723,0.026336219161748886,-0.0300784632563591,-0.0053236219100654125,0.0407257080078125
18667776840537,0.014365210197865963,-9.782708168029785,0.004788403399288654,-0.0311431884765625,-0.006122165359556675,0.0375315360724926
18667778077600,0.0347159244120121,-9.807847023010254,0.004788403399288654,-0.0306108258664608,-0.010913425125181675,0.0322079136967659
18667779314675,0.04189852997660637,-9.793481826782227,0.02992752194404602,-0.0311431884765625,-0.0077192517928779125,0.033538818359375
18667780551737,0.07661445438861847,-9.758766174316406,0.0,-0.0300784632563591,-0.01117960549890995,0.0369991734623909
18667781788850,0.0347159244120121,-9.795876502990723,0.03711012750864029,-0.0282151959836483,-0.013309055007994175,0.0375315360724926
18667783025900,0.0586579404771328,-9.795876502990723,0.016759412363171577,-0.03034464456140995,-0.010913425125181675,0.0367329902946949
18667784262987,0.0347159244120121,-9.781511306762695,0.0,-0.0348697230219841,-0.007453070487827063,0.0316755510866642
18667785500062,0.04908113554120064,-9.762357711791992,0.023942017927765846,-0.0292799212038517,-0.005057440605014563,0.03034464456140995
18667786737137,0.017956512048840523,-9.816226959228516,-0.015562310814857483,-0.0292799212038517,-0.007453070487827063,0.0322079136967659
18667787974200,0.04668693244457245,-9.81263542175293,-0.020350715145468712,-0.0311431884765625,-0.008783976547420025,0.0311431884765625
18667789211287,0.0454898327589035,-9.827000617980957,0.014365210197865963,-0.0282151959836483,-0.00692070834338665,0.0319417305290699
18667790448362,-0.0011971008498221636,-9.786299705505371,-0.016759412363171577,-0.02794901467859745,-0.0029279920272529125,0.0306108258664608
18667791685425,0.03711012750864029,-9.849745750427246,0.008379706181585789,-0.0292799212038517,-0.0039927163161337376,0.0292799212038517
18667792922500,0.038307227194309235,-9.815030097961426,0.05386953800916672,-0.02874755859375,-0.00931633822619915,0.0244886614382267
18667794159562,0.10893617570400238,-9.799468040466309,0.002394201699644327,-0.0282151959836483,-0.01171196810901165,0.0215606689453125
18667795396662,0.040701430290937424,-9.855731010437012,0.004788403399288654,-0.02741665206849575,-0.01224433071911335,0.02502102218568325
18667796633737,0.05147533863782883,-9.759963035583496,-0.011971008963882923,-0.02661811001598835,-0.0071868896484375,0.0258195661008358
18667797870787,0.06703764945268631,-9.769539833068848,-0.010773907415568829,-0.0276828333735466,-0.0077192517928779125,0.0252872034907341
18667799107875,0.08379705995321274,-9.798270225524902,0.008379706181585789,-0.02262539230287075,-0.010913425125181675,0.02182685025036335
18667800344962,0.0454898327589035,-9.822212219238281,0.004788403399288654,-0.0247548408806324,-0.0077192517928779125,0.0215606689453125
18667801582025,0.05147533863782883,-9.858125686645508,0.026336219161748886,-0.0244886614382267,-0.0063883461989462376,0.02981228195130825
18667802819100,0.03950432687997818,-9.815030097961426,0.011971008963882923,-0.0228915736079216,-0.010913425125181675,0.0252872034907341
18667804056187,0.08499415963888168,-9.827000617980957,0.016759412363171577,-0.02182685025036335,-0.01357523538172245,0.0196974016726017
18667805293275,0.04788403585553169,-9.77672290802002,0.021547814831137657,-0.0228915736079216,-0.01117960549890995,0.0191650390625
18667806530337,0.038307227194309235,-9.77791976928711,-0.004788403399288654,-0.0223592109978199,-0.0071868896484375,0.02129448764026165
18667807767400,0.0454898327589035,-9.813833236694336,0.043095629662275314,-0.0314093679189682,-0.0037265352439135313,0.0186326764523983
18667809004475,0.03232172504067421,-9.803058624267578,0.026336219161748886,-0.0268842913210392,-0.0077192517928779125,0.01943122036755085
18667810241550,0.061052143573760986,-9.797073364257812,0.008379706181585789,-0.0186326764523983,-0.01224433071911335,0.0223592109978199
18667811478637,0.05746084079146385,-9.78869342803955,-0.016759412363171577,-0.01943122036755085,-0.01171196810901165,0.0210283063352108
18667812715687,0.05386953800916672,-9.768342971801758,0.008379706181585789,-0.0191650390625,-0.008783976547420025,0.02022976242005825
18667813952762,0.08978256583213806,-9.786299705505371,0.014365210197865963,-0.0204959437251091,-0.01117960549890995,0.0215606689453125
18667815189850,0.0694318488240242,-9.816226959228516,-0.026336219161748886,-0.0210283063352108,-0.01224433071911335,0.0191650390625
18667816426925,0.06584054976701736,-9.825803756713867,-0.026336219161748886,-0.0220930315554142,-0.010381062515079975,0.01889885775744915
18667817664000,0.038307227194309235,-9.827000617980957,0.023942017927765846,-0.0186326764523983,-0.010647243820130825,0.02076212503015995
18667818901087,0.02992752194404602,-9.824606895446777,-0.04429273307323456,-0.0173017717897892,-0.01357523538172245,0.0191650390625
18667820138137,0.04429273307323456,-9.84376049041748,-0.04788403585553169,-0.0157046839594841,-0.01463996060192585,0.015438503585755825
18667821375225,0.10295067727565765,-9.81263542175293,0.0071826050989329815,-0.01463996060192585,-0.01410759799182415,0.0173017717897892
18667822612312,0.05506663769483566,-9.81143856048584,-0.019153613597154617,-0.01783413253724575,-0.01410759799182415,0.02076212503015995
18667823849375,0.0933738648891449,-9.831789016723633,-0.04668693244457245,-0.0157046839594841,-0.01650322787463665,0.0186326764523983
18667825086475,0.10773907601833344,-9.801861763000488,0.0011971008498221636,-0.01756795309484005,-0.01463996060192585,0.015438503585755825
18667826323525,0.03950432687997818,-9.807847023010254,-0.011971008963882923,-0.0157046839594841,-0.01650322787463665,0.015172322280704975
18667827560612,0.0586579404771328,-9.791088104248047,0.013168109580874443,-0.01463996060192585,-0.01996358297765255,0.014906140975654125
18667828797687,0.08619125932455063,-9.793481826782227,0.035913024097681046,-0.0173017717897892,-0.01836649514734745,0.008517795242369175
18667830034750,0.08379705995321274,-9.77672290802002,0.010773907415568829,-0.01703559048473835,-0.0167694091796875,0.010647243820130825
18667831271837,0.09576807171106339,-9.803058624267578,0.015562310814857483,-0.01117960549890995,-0.01889885775744915,0.012776692397892475
18667832508900,0.07900865375995636,-9.764751434326172,0.0035913025494664907,-0.010381062515079975,-0.01703559048473835,0.00692070834338665
18667833745975,0.08738835901021957,-9.77791976928711,-0.0011971008498221636,-0.013309055007994175,-0.0196974016726017,0.0015970865497365594
18667834983037,0.07302315533161163,-9.747992515563965,-0.040701430290937424,-0.01117960549890995,-0.0210283063352108,0.0023956298828125
18667836220125,0.06703764945268631,-9.807847023010254,-0.009576806798577309,-0.0090501569211483,-0.0191650390625,0.006122165359556675
18667837457200,0.08619125932455063,-9.745597839355469,0.014365210197865963,-0.008517795242369175,-0.0228915736079216,0.008251613937318325
18667838694275,0.07062894850969315,-9.77552604675293,0.02753331884741783,-0.00931633822619915,-0.0196974016726017,-0.0002661811013240367
18667839931337,0.07182604819536209,-9.765949249267578,-0.017956512048840523,-0.008783976547420025,-0.02076212503015995,0.0
18667841168437,0.07781155407428741,-9.744400978088379,0.02753331884741783,-0.0031941730994731188,-0.0210283063352108,0.0002661811013240367
18667842405500,0.07182604819536209,-9.773131370544434,0.02753331884741783,-0.0077192517928779125,-0.0223592109978199,-0.0007985432748682797
18667843642575,0.04908113554120064,-9.783905029296875,-0.008379706181585789,-0.0031941730994731188,-0.0268842913210392,-0.0015970865497365594
18667844879637,0.061052143573760986,-9.768342971801758,-0.019153613597154617,0.0013309054775163531,-0.01836649514734745,-0.0042588976211845875
18667846116737,0.05506663769483566,-9.816226959228516,-0.03232172504067421,-0.0010647244052961469,-0.02182685025036335,-0.0029279920272529125
18667847353800,0.07422025501728058,-9.821015357971191,-0.0035913025494664907,-0.00452507846057415,-0.0220930315554142,-0.008517795242369175
18667848590875,0.015562310814857483,-9.75517463684082,0.02753331884741783,0.0029279920272529125,-0.02608574740588665,-0.005855984054505825
18667849827925,0.06464345008134842,-9.770737648010254,0.013168109580874443,0.0013309054775163531,-0.0244886614382267,-0.005057440605014563
18667851065025,0.06703764945268631,-9.823410034179688,0.0059855044819414616,0.0015970865497365594,-0.02848137728869915,-0.00984870083630085
18667852302087,0.13527239859104156,-9.815030097961426,0.028730420395731926,0.00692070834338665,-0.0263519287109375,-0.01171196810901165
18667853539175,0.10534487664699554,-9.771934509277344,-0.013168109580874443,0.004791259765625,-0.02981228195130825,-0.0138414166867733
18667854776225,0.04668693244457245,-9.80904483795166,0.0071826050989329815,0.0042588976211845875,-0.02741665206849575,-0.015172322280704975
18667856013300,0.04908113554120064,-9.77791976928711,-0.011971008963882923,0.0005323622026480734,-0.02022976242005825,-0.0173017717897892
18667857250400,0.08140286058187485,-9.807847023010254,-0.035913024097681046,0.0013309054775163531,-0.02076212503015995,-0.0196974016726017
18667858487450,0.0586579404771328,-9.77552604675293,0.03950432687997818,0.0031941730994731188,-0.02422248013317585,-0.014906140975654125
18667859724537,0.05746084079146385,-9.789891242980957,0.009576806798577309,0.00452507846057415,-0.02661811001598835,-0.015172322280704975
18667860961625,0.0586579404771328,-9.794679641723633,0.004788403399288654,0.005057440605014563,-0.0292799212038517,-0.01996358297765255
18667862198675,0.06344634294509888,-9.799468040466309,0.015562310814857483,0.0063883461989462376,-0.02901373989880085,-0.0210283063352108
18667863435762,0.10175357013940811,-9.786299705505371,0.02274491637945175,0.0053236219100654125,-0.02981228195130825,-0.0157046839594841
18667864672825,0.07781155407428741,-9.765949249267578,0.0011971008498221636,0.0077192517928779125,-0.0306108258664608,-0.0167694091796875
18667865909912,0.07900865375995636,-9.765949249267578,0.04668693244457245,0.008517795242369175,-0.02874755859375,-0.01943122036755085
18667867147000,0.09935937076807022,-9.765949249267578,0.028730420395731926,0.010647243820130825,-0.0247548408806324,-0.02076212503015995
18667868384062,0.05267243832349777,-9.75158405303955,-0.0071826050989329815,0.012510511092841625,-0.0258195661008358,-0.0215606689453125
18667869621150,0.06344634294509888,-9.763554573059082,-0.03232172504067421,0.013042873702943325,-0.0252872034907341,-0.0234239362180233
18667870858212,0.06823474913835526,-9.727641105651855,0.03232172504067421,0.00984870083630085,-0.02608574740588665,-0.0215606689453125
18667872095287,0.06584054976701736,-9.736021041870117,0.0011971008498221636,0.014906140975654125,-0.03034464456140995,-0.0244886614382267
18667873332362,0.08858546614646912,-9.77672290802002,0.02513911761343479,0.01836649514734745,-0.0324740931391716,-0.02422248013317585
18667874569450,0.031124621629714966,-9.767146110534668,0.011971008963882923,0.0191650390625,-0.02741665206849575,-0.02874755859375
18667875806525,0.0933738648891449,-9.764751434326172,0.004788403399288654,0.0162370465695858,-0.02981228195130825,-0.023956298828125
18667877043600,0.05985504388809204,-9.732430458068848,0.0011971008498221636,0.01650322787463665,-0.03034464456140995,-0.02661811001598835
18667878280662,0.10175357013940811,-9.725247383117676,-0.043095629662275314,0.01836649514734745,-0.0300784632563591,-0.0316755510866642
18667879517725,0.09696517139673233,-9.769539833068848,-0.016759412363171577,0.02369011752307415,-0.0330064557492733,-0.02848137728869915
18667880754800,0.04429273307323456,-9.7791166305542,0.010773907415568829,0.0295461006462574,-0.03087700717151165,-0.02794901467859745
18667881991875,0.0586579404771328,-9.783905029296875,-0.017956512048840523,0.02555338479578495,-0.0319417305290699,-0.02874755859375
18667883228950,0.08379705995321274,-9.77791976928711,-0.03232172504067421,0.0295461006462574,-0.0300784632563591,-0.0324740931391716
18667884466037,0.05386953800916672,-9.770737648010254,-0.019153613597154617,0.0292799212038517,-0.0338049978017807,-0.0319417305290699
18667885703100,0.03232172504067421,-9.768342971801758,-0.0035913025494664907,0.0252872034907341,-0.03087700717151165,-0.03087700717151165
18667886940200,0.07900865375995636,-9.81024169921875,-0.031124621629714966,0.0300784632563591,-0.02874755859375,-0.02874755859375
18667888177262,0.0694318488240242,-9.78869342803955,0.014365210197865963,0.0324740931391716,-0.0300784632563591,-0.0322079136967659
18667889414350,0.06344634294509888,-9.740809440612793,0.02992752194404602,0.03087700717151165,-0.0319417305290699,-0.0324740931391716
18667890651387,0.06823474913835526,-9.827000617980957,0.0035913025494664907,0.02981228195130825,-0.03034464456140995,-0.02848137728869915
18667891888487,0.09576807171106339,-9.824606895446777,0.010773907415568829,0.0300784632563591,-0.0338049978017807,-0.0327402763068676
18667893125562,0.05386953800916672,-9.813833236694336,-0.07062894850969315,0.0319417305290699,-0.0351359061896801,-0.0316755510866642
18667894362650,0.05985504388809204,-9.834183692932129,-0.010773907415568829,0.0348697230219841,-0.0327402763068676,-0.0311431884765625
18667895599712,0.05985504388809204,-9.824606895446777,0.019153613597154617,0.0354020856320858,-0.0314093679189682,-0.0311431884765625
18667896836787,0.06703764945268631,-9.824606895446777,0.017956512048840523,0.033272635191679,-0.0316755510866642,-0.0343373604118824
18667898073875,0.08259996026754379,-9.787496566772461,-0.0071826050989329815,0.0330064557492733,-0.02874755859375,-0.0327402763068676
18667899310937,0.05506663769483566,-9.828198432922363,-0.0011971008498221636,0.033272635191679,-0.0295461006462574,-0.0327402763068676
18667900548025,0.05267243832349777,-9.77672290802002,0.020350715145468712,0.0377977155148983,-0.02741665206849575,-0.02901373989880085
18667901785100,0.06823474913835526,-9.797073364257812,0.015562310814857483,0.0367329902946949,-0.02794901467859745,-0.033272635191679
18667903022162,0.07781155407428741,-9.78869342803955,-0.019153613597154617,0.0311431884765625,-0.0359344482421875,-0.0340711809694767
18667904259237,0.08858546614646912,-9.763554573059082,0.02513911761343479,0.0346035435795784,-0.0324740931391716,-0.033538818359375
18667905496312,0.10055647045373917,-9.785102844238281,0.03232172504067421,0.0415242500603199,-0.0362006276845932,-0.0354020856320858
18667906733375,0.1149216815829277,-9.7420072555542,-0.010773907415568829,0.0385962575674057,-0.0346035435795784,-0.0367329902946949
18667907970462,0.1041477769613266,-9.736021041870117,0.019153613597154617,0.0362006276845932,-0.0324740931391716,-0.0367329902946949
18667909207537,0.09457096457481384,-9.75397777557373,-0.02513911761343479,0.0404595248401165,-0.0351359061896801,-0.0364668108522892
18667910444612,0.07302315533161163,-9.701305389404297,0.03232172504067421,0.0404595248401165,-0.0324740931391716,-0.0396609827876091
18667911681687,0.10175357013940811,-9.726444244384766,0.05985504388809204,0.0399271659553051,-0.03034464456140995,-0.0388624407351017
18667912918750,0.09696517139673233,-9.703699111938477,-0.035913024097681046,0.0420566126704216,-0.0316755510866642,-0.0375315360724926
18667914155837,0.08978256583213806,-9.672574996948242,0.02992752194404602,0.0449846051633358,-0.0356682650744915,-0.0401933453977108
18667915392912,0.08140286058187485,-9.653421401977539,0.021547814831137657,0.0473802350461483,-0.0314093679189682,-0.0391286201775074
18667916630000,0.11611878126859665,-9.671378135681152,0.011971008963882923,0.0484449602663517,-0.0292799212038517,-0.0425889752805233
18667917867075,0.09696517139673233,-9.679757118225098,0.013168109580874443,0.0548333041369915,-0.0351359061896801,-0.0439198799431324
18667919104137,0.05626374110579491,-9.655815124511719,0.04189852997660637,0.0558980293571949,-0.0324740931391716,-0.04791259765625
18667920341225,0.13407529890537262,-9.647436141967773,0.0059855044819414616,0.0535023994743824,-0.0359344482421875,-0.0537685826420784
18667921578287,0.1173158809542656,-9.670180320739746,0.061052143573760986,0.0553656667470932,-0.0351359061896801,-0.0497758649289608
18667922815350,0.1256955862045288,-9.692925453186035,0.07062894850969315,0.0566965714097023,-0.033272635191679,-0.0545671246945858
18667924052425,0.07661445438861847,-9.637859344482422,0.05506663769483566,0.0609554722905159,-0.03087700717151165,-0.052437674254179
18667925289512,0.10295067727565765,-9.646238327026367,0.06464345008134842,0.0606892891228199,-0.0356682650744915,-0.0540347620844841
18667926526600,0.09816227108240128,-9.639056205749512,0.07302315533161163,0.0649481862783432,-0.0338049978017807,-0.0561642125248909
18667927763675,0.08858546614646912,-9.642647743225098,0.0071826050989329815,0.0646820068359375,-0.0316755510866642,-0.0601569265127182
18667929000750,0.08259996026754379,-9.649829864501953,0.038307227194309235,0.0638834610581398,-0.0300784632563591,-0.0580274797976017
18667930237837,0.06464345008134842,-9.65222454071045,0.05985504388809204,0.0678761824965477,-0.0306108258664608,-0.0580274797976017
18667931474887,0.09457096457481384,-9.62828254699707,0.04908113554120064,0.0721350759267807,-0.0276828333735466,-0.0652143657207489
18667932711950,0.08259996026754379,-9.625887870788574,0.03950432687997818,0.0729336217045784,-0.03087700717151165,-0.0660129114985466
18667933949037,0.1472434103488922,-9.65222454071045,0.06224924325942993,0.0716027170419693,-0.03087700717151165,-0.0702718123793602
18667935186112,0.10654197633266449,-9.618705749511719,0.07541735470294952,0.0790557861328125,-0.0340711809694767,-0.0702718123793602
18667936423187,0.06703764945268631,-9.653421401977539,0.07900865375995636,0.0838470458984375,-0.0306108258664608,-0.0700056254863739
18667937660262,0.0933738648891449,-9.62947940826416,0.0347159244120121,0.0817175954580307,-0.0300784632563591,-0.07666015625
18667938897350,0.09457096457481384,-9.641449928283691,0.0802057608962059,0.0825161412358284,-0.02901373989880085,-0.0811852365732193
18667940134412,0.09576807171106339,-9.658209800720215,0.10773907601833344,0.0838470458984375,-0.0295461006462574,-0.0793219655752182
18667941371500,0.07781155407428741,-9.682151794433594,0.03950432687997818,0.0913001149892807,-0.02981228195130825,-0.0811852365732193
18667942608575,0.03711012750864029,-9.673771858215332,0.05027823522686958,0.0982208251953125,-0.0306108258664608,-0.0769263356924057
18667943845637,0.0694318488240242,-9.639056205749512,0.03711012750864029,0.091033935546875,-0.03034464456140995,-0.0795881450176239
18667945082712,0.06584054976701736,-9.639056205749512,0.05626374110579491,0.0870412141084671,-0.0282151959836483,-0.0881059393286705
18667946319787,0.08619125932455063,-9.653421401977539,0.0454898327589035,0.0944942906498909,-0.0263519287109375,-0.0889044851064682
18667947556862,0.07661445438861847,-9.68933391571045,0.04788403585553169,0.1008826345205307,-0.03087700717151165,-0.090501569211483
18667948793937,0.05147533863782883,-9.673771858215332,0.04788403585553169,0.1008826345205307,-0.0268842913210392,-0.0920986607670784
18667950031012,0.07302315533161163,-9.72285270690918,0.009576806798577309,0.1011488139629364,-0.023956298828125,-0.0934295654296875
18667951268087,0.07781155407428741,-9.677363395690918,0.023942017927765846,0.1019473597407341,-0.0247548408806324,-0.0960913747549057
18667952505162,0.07661445438861847,-9.700108528137207,0.08738835901021957,0.1022135391831398,-0.0223592109978199,-0.1011488139629364
18667953742225,0.08858546614646912,-9.660603523254395,-0.009576806798577309,0.1088680699467659,-0.02555338479578495,-0.0979546457529068
18667954979325,0.0802057608962059,-9.684545516967773,-0.020350715145468712,0.1099327951669693,-0.0228915736079216,-0.0990193635225296
18667956216400,0.11133038252592087,-9.724050521850586,-0.0059855044819414616,0.114457868039608,-0.0268842913210392,-0.0995517298579216
18667957453475,0.07062894850969315,-9.6989107131958,0.05267243832349777,0.1131269633769989,-0.01943122036755085,-0.1038106232881546
18667958690562,0.06344634294509888,-9.678560256958008,-0.015562310814857483,0.1136593297123909,-0.02262539230287075,-0.109666608273983
18667959927612,0.06344634294509888,-9.744400978088379,0.05147533863782883,0.114457868039608,-0.02315775491297245,-0.1064724400639534
18667961164700,0.06224924325942993,-9.68694019317627,0.043095629662275314,0.1229756623506546,-0.0263519287109375,-0.1062062531709671
18667962401775,0.0802057608962059,-9.706093788146973,0.02753331884741783,0.12457275390625,-0.0234239362180233,-0.1120622381567955
18667963638837,0.08259996026754379,-9.704896926879883,0.020350715145468712,0.119781494140625,-0.0223592109978199,-0.1099327951669693
18667964875912,0.08259996026754379,-9.703699111938477,0.010773907415568829,0.1224433034658432,-0.02182685025036335,-0.109666608273983
18667966113000,0.06584054976701736,-9.736021041870117,0.009576806798577309,0.1232418492436409,-0.0186326764523983,-0.1173858642578125
18667967350075,0.07062894850969315,-9.738415718078613,0.0059855044819414616,0.12457275390625,-0.01463996060192585,-0.1184505894780159
18667968587162,0.061052143573760986,-9.740809440612793,-0.016759412363171577,0.1235080286860466,-0.01703559048473835,-0.1163211390376091
18667969824225,0.08619125932455063,-9.746795654296875,0.031124621629714966,0.1232418492436409,-0.015172322280704975,-0.1227094829082489
18667971061300,0.06823474913835526,-9.736021041870117,0.02753331884741783,0.129364013671875,-0.02022976242005825,-0.1224433034658432
18667972298387,0.07541735470294952,-9.763554573059082,0.03711012750864029,0.1290978342294693,-0.0191650390625,-0.1200476735830307
18667973535425,0.07900865375995636,-9.75517463684082,0.07422025501728058,0.1288316547870636,-0.0138414166867733,-0.1232418492436409
18667974772512,0.10534487664699554,-9.781511306762695,0.009576806798577309,0.1301625519990921,-0.0162370465695858,-0.1216447576880455
18667976009587,0.08738835901021957,-9.806650161743164,0.031124621629714966,0.1301625519990921,-0.01650322787463665,-0.1208462193608284
18667977246700,0.11851298809051514,-9.791088104248047,0.023942017927765846,0.1317596435546875,-0.012510511092841625,-0.1219109445810318
18667978483762,0.10654197633266449,-9.804256439208984,0.015562310814857483,0.1290978342294693,-0.01463996060192585,-0.1256374716758728
18667979720825,0.10175357013940811,-9.81143856048584,0.07422025501728058,0.1325581818819046,-0.012776692397892475,-0.1243065744638443
18667980957900,0.061052143573760986,-9.807847023010254,0.015562310814857483,0.1322920024394989,-0.0119781494140625,-0.1251051127910614
18667982194962,0.07422025501728058,-9.828198432922363,0.002394201699644327,0.1357523649930954,-0.014373779296875,-0.1237742081284523
18667983432062,0.11252748221158981,-9.834183692932129,0.06584054976701736,0.1298963725566864,-0.0157046839594841,-0.129364013671875
18667984669137,0.11611878126859665,-9.824606895446777,0.017956512048840523,0.1341552734375,-0.01597086526453495,-0.1298963725566864
18667985906200,0.08140286058187485,-9.848548889160156,0.05267243832349777,0.1392127126455307,-0.015172322280704975,-0.1269683837890625
18667987143275,0.10893617570400238,-9.870096206665039,0.0035913025494664907,0.1336229145526886,-0.0119781494140625,-0.1309611052274704
18667988380350,0.08978256583213806,-9.84376049041748,-0.017956512048840523,0.1304287314414978,-0.00984870083630085,-0.1301625519990921
18667989617425,0.1280897855758667,-9.898826599121094,0.023942017927765846,0.1309611052274704,-0.01410759799182415,-0.1229756623506546
18667990854487,0.061052143573760986,-9.858125686645508,0.033518824726343155,0.1333567351102829,-0.01410759799182415,-0.1219109445810318
18667992091575,0.07182604819536209,-9.892841339111328,-0.008379706181585789,0.1352199912071228,-0.012510511092841625,-0.12457275390625
18667993328650,0.09217676520347595,-9.876082420349121,0.0059855044819414616,0.1333567351102829,-0.0138414166867733,-0.1243065744638443
18667994565712,0.10893617570400238,-9.86770248413086,0.02992752194404602,0.1312272846698761,-0.00984870083630085,-0.1285654753446579
18667995802800,0.11971008777618408,-9.888052940368652,0.03711012750864029,0.1360185444355011,-0.0037265352439135313,-0.1237742081284523
18667997039887,0.10654197633266449,-9.856928825378418,0.017956512048840523,0.1381479948759079,-0.00958251953125,-0.1155225932598114
18667998276962,0.08379705995321274,-9.8784761428833,0.019153613597154617,0.1314934641122818,-0.0077192517928779125,-0.1248389333486557
18667999514037,0.06224924325942993,-9.907206535339355,0.05626374110579491,0.1336229145526886,-0.010381062515079975,-0.1264360249042511
18668000751100,0.10654197633266449,-9.904812812805176,0.019153613597154617,0.1320258229970932,-0.010381062515079975,-0.1229756623506546
18668001988187,0.10295067727565765,-9.931148529052734,0.04788403585553169,0.1261698454618454,-0.010114881210029125,-0.1288316547870636
18668003225250,0.10773907601833344,-9.9371337890625,0.06224924325942993,0.1288316547870636,-0.008517795242369175,-0.124040387570858
18668004462325,0.13168109953403473,-9.908403396606445,0.05985504388809204,0.1290978342294693,-0.0053236219100654125,-0.1264360249042511
18668005699400,0.11252748221158981,-9.949105262756348,0.013168109580874443,0.1290978342294693,-0.0077192517928779125,-0.12457275390625
18668006936500,0.16519992053508759,-9.96945571899414,0.026336219161748886,0.1290978342294693,-0.008783976547420025,-0.1224433034658432
18668008173575,0.09576807171106339,-9.932345390319824,0.033518824726343155,0.1280331015586853,-0.005057440605014563,-0.12457275390625
18668009410637,0.11851298809051514,-9.97065258026123,0.021547814831137657,0.1221771240234375,-0.01224433071911335,-0.1224433034658432
18668010647712,0.11252748221158981,-9.953893661499023,0.043095629662275314,0.119249127805233,-0.00931633822619915,-0.1168534979224205
18668011884775,0.09935937076807022,-9.9586820602417,-0.002394201699644327,0.1248389333486557,-0.0031941730994731188,-0.1173858642578125
18668013121862,0.07781155407428741,-9.96825885772705,-0.013168109580874443,0.1219109445810318,-0.0063883461989462376,-0.1213785782456398
18668014358937,0.11851298809051514,-9.962273597717285,0.03232172504067421,0.1181844025850296,-0.005855984054505825,-0.1205800324678421
18668015596012,0.09576807171106339,-10.007762908935547,0.06344634294509888,0.1171196848154068,-0.0018632676219567657,-0.1187167689204216
18668016833087,0.09217676520347595,-9.963470458984375,0.020350715145468712,0.1165873184800148,-0.008251613937318325,-0.1128607839345932
18668018070175,0.08259996026754379,-9.963470458984375,-0.0011971008498221636,0.1139255091547966,-0.0063883461989462376,-0.1141916885972023
18668019307225,0.11971008777618408,-9.955090522766113,-0.02274491637945175,0.1152564138174057,-0.003460354171693325,-0.1125946044921875
18668020544312,0.1388636976480484,-9.975441932678223,0.02992752194404602,0.1125946044921875,-0.004791259765625,-0.109666608273983
18668021781387,0.16160862147808075,-10.019734382629395,0.02513911761343479,0.1104651540517807,0.0015970865497365594,-0.1131269633769989
18668023018462,0.10534487664699554,-9.99220085144043,0.016759412363171577,0.1112636998295784,-0.0013309054775163531,-0.1115298792719841
18668024255537,0.1364694982767105,-9.97065258026123,0.05985504388809204,0.1109975129365921,-0.0023956298828125,-0.110198974609375
18668025492612,0.14365209639072418,-9.955090522766113,0.10055647045373917,0.1067386195063591,-0.005589802749454975,-0.1059400737285614
18668026729687,0.12210428714752197,-9.980230331420898,0.0071826050989329815,0.10540771484375,-0.0026618109550327063,-0.1078033447265625
18668027966762,0.1759738326072693,-9.99339771270752,0.05147533863782883,0.10540771484375,-0.0007985432748682797,-0.1030120849609375
18668029203850,0.16998831927776337,-9.96825885772705,0.014365210197865963,0.0995517298579216,0.0013309054775163531,-0.1024797186255455
18668030440912,0.15442600846290588,-9.998186111450195,0.013168109580874443,0.0992855504155159,-0.0007985432748682797,-0.1027459055185318
18668031678000,0.14484921097755432,-10.011354446411133,0.010773907415568829,0.1035444438457489,-0.0015970865497365594,-0.095292828977108
18668032915050,0.16759411990642548,-9.987412452697754,0.05267243832349777,0.0982208251953125,-0.004791259765625,-0.0976884588599205
18668034152150,0.13048399984836578,-10.018537521362305,0.03950432687997818,0.0934295654296875,-0.0007985432748682797,-0.100084088742733
18668035389237,0.20470423996448517,-10.014945983886719,0.05147533863782883,0.090501569211483,-0.00692070834338665,-0.100084088742733
18668036626300,0.16639702022075653,-10.041281700134277,0.040701430290937424,0.0889044851064682,-0.0005323622026480734,-0.0958251953125
18668037863375,0.16879121959209442,-10.019734382629395,0.05027823522686958,0.0891706645488739,0.0005323622026480734,-0.0963575541973114
18668039100437,0.18076223134994507,-9.965864181518555,0.04429273307323456,0.0918324738740921,-0.0002661811013240367,-0.0958251953125
18668040337525,0.17477671802043915,-9.99339771270752,0.04788403585553169,0.0902353897690773,-0.0005323622026480734,-0.0870412141084671
18668041574600,0.16879121959209442,-9.974244117736816,0.0586579404771328,0.0883721262216568,0.0005323622026480734,-0.0851779505610466
18668042811687,0.18076223134994507,-9.99100399017334,0.033518824726343155,0.0785234197974205,0.0018632676219567657,-0.0889044851064682
18668044048762,0.20709845423698425,-10.036493301391602,0.09935937076807022,0.0790557861328125,0.0021294488105922937,-0.0843794047832489
18668045285825,0.1759738326072693,-10.006566047668457,0.028730420395731926,0.0774587020277977,0.0005323622026480734,-0.080919049680233
18668046522875,0.19273324310779572,-10.043676376342773,0.0694318488240242,0.0817175954580307,-0.0002661811013240367,-0.0822499617934227
18668047759962,0.15921440720558167,-10.022128105163574,0.04668693244457245,0.076127789914608,0.00452507846057415,-0.0819837749004364
18668048997050,0.1951274424791336,-10.011354446411133,0.004788403399288654,0.0676099956035614,0.005855984054505825,-0.0833146795630455
18668050234125,0.23104046285152435,-10.001777648925781,0.07541735470294952,0.0737321600317955,-0.0018632676219567657,-0.0758616104722023
18668051471212,0.2346317619085312,-10.04726791381836,0.11013327538967133,0.0660129114985466,0.00452507846057415,-0.0745307058095932
18668052708262,0.2322375625371933,-10.030508041381836,0.05985504388809204,0.0673438161611557,0.0021294488105922937,-0.0731998011469841
18668053945337,0.23104046285152435,-10.006566047668457,0.08619125932455063,0.0689409002661705,-0.0013309054775163531,-0.0729336217045784
18668055182425,0.2454056739807129,-10.022128105163574,0.015562310814857483,0.0654805526137352,0.0015970865497365594,-0.071336530148983
18668056419500,0.2298433631658554,-10.020931243896484,0.090979665517807,0.0617540143430233,0.0026618109550327063,-0.0694732666015625
18668057656575,0.2406172752380371,-10.041281700134277,0.07541735470294952,0.0569627545773983,0.0015970865497365594,-0.0644158273935318
18668058893637,0.17836803197860718,-10.064026832580566,0.05386953800916672,0.0596245639026165,0.0007985432748682797,-0.0604231096804142
18668060130750,0.21787235140800476,-10.013749122619629,0.0347159244120121,0.0543009415268898,-0.0013309054775163531,-0.0628187358379364
18668061367800,0.2717418968677521,-10.019734382629395,0.11252748221158981,0.0508405901491642,0.0023956298828125,-0.0590922012925148
18668062604887,0.2669534981250763,-10.020931243896484,0.04908113554120064,0.0505744069814682,0.0002661811013240367,-0.0540347620844841
18668063841962,0.2322375625371933,-9.98980712890625,0.0933738648891449,0.0503082275390625,0.0007985432748682797,-0.0543009415268898
18668065079037,0.27653029561042786,-10.022128105163574,0.08738835901021957,0.0489773228764534,-0.0007985432748682797,-0.0537685826420784
18668066316087,0.27413609623908997,-10.019734382629395,0.09816227108240128,0.0455169677734375,0.0002661811013240367,-0.052437674254179
18668067553175,0.25258827209472656,-10.004172325134277,0.11252748221158981,0.043121337890625,0.0042588976211845875,-0.0492435023188591
18668068790275,0.1867477297782898,-10.008960723876953,0.08978256583213806,0.0364668108522892,0.0037265352439135313,-0.0447184219956398
18668070027325,0.2059013545513153,-10.028114318847656,0.12449848651885986,0.0377977155148983,0.0023956298828125,-0.0417904332280159
18668071264400,0.2346317619085312,-10.031704902648926,0.04788403585553169,0.0348697230219841,0.0,-0.0444522425532341
18668072501487,0.30047231912612915,-9.99100399017334,0.07900865375995636,0.0351359061896801,0.0007985432748682797,-0.0399271659553051
18668073738575,0.2908955216407776,-9.996989250183105,0.061052143573760986,0.033538818359375,-0.0013309054775163531,-0.0420566126704216
18668074975637,0.28131869435310364,-9.96945571899414,0.07541735470294952,0.0322079136967659,-0.0013309054775163531,-0.0369991734623909
18668076212700,0.2932897210121155,-10.012551307678223,0.10534487664699554,0.0322079136967659,0.0010647244052961469,-0.0338049978017807
18668077449787,0.30047231912612915,-9.975441932678223,0.11851298809051514,0.0295461006462574,0.0031941730994731188,-0.0338049978017807
18668078686862,0.26815059781074524,-9.982624053955078,0.11372458189725876,0.02901373989880085,-0.0010647244052961469,-0.03034464456140995
18668079923950,0.304063618183136,-9.967061996459961,0.1256955862045288,0.02901373989880085,0.0002661811013240367,-0.0268842913210392
18668081161000,0.25737667083740234,-9.926360130310059,0.1041477769613266,0.02661811001598835,-0.0023956298828125,-0.0271504707634449
18668082398087,0.28371289372444153,-9.951498985290527,0.0933738648891449,0.023956298828125,-0.0037265352439135313,-0.02741665206849575
18668083635162,0.26575639843940735,-9.994595527648926,0.13048399984836578,0.0210283063352108,-0.0039927163161337376,-0.02369011752307415
18668084872237,0.2908955216407776,-9.919178009033203,0.11851298809051514,0.0181003138422966,0.0010647244052961469,-0.02129448764026165
18668086109312,0.2849099934101105,-9.981427192687988,0.10773907601833344,0.01943122036755085,0.005057440605014563,-0.01943122036755085
18668087346400,0.2561795711517334,-9.946710586547852,0.09696517139673233,0.0191650390625,-0.0021294488105922937,-0.0186326764523983
18668088583475,0.2861070930957794,-9.98980712890625,0.1173158809542656,0.015438503585755825,-0.00452507846057415,-0.01756795309484005
18668089820550,0.2561795711517334,-9.971850395202637,0.11611878126859665,0.012510511092841625,-0.0021294488105922937,-0.01756795309484005
18668091057612,0.2597709000110626,-9.946710586547852,0.13527239859104156,0.015172322280704975,0.0042588976211845875,-0.01943122036755085
18668092294675,0.2717418968677521,-9.93474006652832,0.15442600846290588,0.0114457868039608,0.0010647244052961469,-0.0167694091796875
18668093531762,0.2801215946674347,-10.002974510192871,0.1041477769613266,0.007985432632267475,0.0,-0.008783976547420025
18668094768825,0.30526071786880493,-9.979032516479492,0.1256955862045288,0.013309055007994175,-0.0018632676219567657,-0.0071868896484375
18668096005912,0.2753331959247589,-9.963470458984375,0.1496376097202301,0.01171196810901165,0.0010647244052961469,-0.01224433071911335
18668097242987,0.23582887649536133,-9.982624053955078,0.1388636976480484,0.010647243820130825,-0.0007985432748682797,-0.0090501569211483
18668098480062,0.25258827209472656,-9.999383926391602,0.13287819921970367,0.010913425125181675,-0.0031941730994731188,-0.008251613937318325
18668099717137,0.2621650993824005,-9.995792388916016,0.14484921097755432,0.008517795242369175,0.0,-0.005589802749454975
18668100954225,0.23582887649536133,-9.973047256469727,0.14484921097755432,0.0026618109550327063,0.0023956298828125,-0.00692070834338665
18668102191287,0.26815059781074524,-9.974244117736816,0.13527239859104156,0.0053236219100654125,0.0042588976211845875,-0.008783976547420025
18668103428350,0.3064578175544739,-9.979032516479492,0.13048399984836578,0.0077192517928779125,-0.0010647244052961469,-0.0026618109550327063
18668104665437,0.29568392038345337,-9.940725326538086,0.152031809091568,0.0018632676219567657,0.0037265352439135313,-0.0005323622026480734
18668105902512,0.28730419278144836,-9.981427192687988,0.14365209639072418,-0.0066545275039970875,0.003460354171693325,0.0005323622026480734
18668107139600,0.3208230435848236,-9.928754806518555,0.11013327538967133,-0.0026618109550327063,0.0037265352439135313,-0.0013309054775163531
18668108376675,0.3016694188117981,-9.953893661499023,0.15921440720558167,-0.0029279920272529125,0.0021294488105922937,-0.0007985432748682797
18668109613725,0.3280056416988373,-9.929951667785645,0.1628057211637497,-0.0015970865497365594,-0.0007985432748682797,0.0029279920272529125
18668110850812,0.2861070930957794,-9.979032516479492,0.16639702022075653,0.0,-0.0063883461989462376,0.0053236219100654125
18668112087900,0.3100491166114807,-9.9586820602417,0.16400282084941864,-0.00452507846057415,-0.0018632676219567657,0.00452507846057415
18668113324962,0.3292027413845062,-9.97065258026123,0.1364694982767105,-0.0039927163161337376,0.0031941730994731188,0.00452507846057415
18668114562050,0.30047231912612915,-9.943120002746582,0.16879121959209442,-0.0042588976211845875,0.0015970865497365594,0.00452507846057415
18668115799112,0.28730419278144836,-9.915586471557617,0.17956513166427612,-0.0039927163161337376,0.0029279920272529125,0.010381062515079975
18668117036200,0.23702597618103027,-9.909601211547852,0.1628057211637497,-0.00452507846057415,0.0005323622026480734,0.0042588976211845875
18668118273275,0.26575639843940735,-9.926360130310059,0.14844051003456116,-0.0119781494140625,-0.0018632676219567657,0.0071868896484375
18668119510350,0.2777273952960968,-9.90361499786377,0.14365209639072418,-0.008517795242369175,0.0018632676219567657,0.008251613937318325
18668120747425,0.2992752194404602,-9.907206535339355,0.16519992053508759,-0.01117960549890995,0.0010647244052961469,0.012510511092841625
18668121984500,0.28969842195510864,-9.891644477844238,0.15562310814857483,-0.01597086526453495,0.0013309054775163531,0.007453070487827063
18668123221575,0.3172317147254944,-9.911994934082031,0.1951274424791336,-0.013042873702943325,0.005057440605014563,0.0026618109550327063
18668124458650,0.3100491166114807,-9.908403396606445,0.18794482946395874,-0.01410759799182415,0.0042588976211845875,0.0071868896484375
18668125695725,0.27413609623908997,-9.908403396606445,0.15562310814857483,-0.014906140975654125,0.0013309054775163531,0.01117960549890995
18668126932787,0.2885012924671173,-9.929951667785645,0.14006079733371735,-0.01224433071911335,0.0002661811013240367,0.0119781494140625
18668128169887,0.3232172429561615,-9.923966407775879,0.16879121959209442,-0.015438503585755825,-0.0007985432748682797,0.012510511092841625
18668129406950,0.3256114423274994,-9.938331604003906,0.1759738326072693,-0.013309055007994175,0.0013309054775163531,0.00984870083630085
18668130644037,0.3172317147254944,-9.87967300415039,0.16759411990642548,-0.013309055007994175,0.0005323622026480734,0.010647243820130825
18668131881100,0.2861070930957794,-9.9000244140625,0.16998831927776337,-0.0167694091796875,-0.003460354171693325,0.0173017717897892
18668133118162,0.2908955216407776,-9.896432876586914,0.15562310814857483,-0.012510511092841625,0.0010647244052961469,0.014906140975654125
18668134355250,0.2717418968677521,-9.86770248413086,0.17956513166427612,-0.014906140975654125,0.0037265352439135313,0.01117960549890995
18668135592337,0.31842881441116333,-9.86650562286377,0.1472434103488922,-0.01943122036755085,0.0018632676219567657,0.014373779296875
18668136829412,0.31842881441116333,-9.914389610290527,0.14484921097755432,-0.015172322280704975,0.0013309054775163531,0.01783413253724575
18668138066487,0.3124433159828186,-9.880870819091797,0.17717093229293823,-0.01650322787463665,0.0023956298828125,0.0223592109978199
18668139303562,0.2777273952960968,-9.865307807922363,0.16879121959209442,-0.0167694091796875,0.0053236219100654125,0.0215606689453125
18668140540650,0.3447650372982025,-9.90122127532959,0.15682020783424377,-0.015438503585755825,0.004791259765625,0.01889885775744915
18668141777712,0.30526071786880493,-9.880870819091797,0.1472434103488922,-0.01357523538172245,-0.0010647244052961469,0.01943122036755085
18668143014775,0.3016694188117981,-9.840168952941895,0.14604631066322327,-0.0167694091796875,-0.0013309054775163531,0.014906140975654125
18668144251862,0.3292027413845062,-9.850942611694336,0.16160862147808075,-0.0157046839594841,0.0010647244052961469,0.01650322787463665
18668145488925,0.34356793761253357,-9.828198432922363,0.1364694982767105,-0.0167694091796875,0.003460354171693325,0.0157046839594841
18668146726000,0.3148375153541565,-9.876082420349121,0.15083470940589905,-0.0173017717897892,0.0026618109550327063,0.0204959437251091
18668147963087,0.36750996112823486,-9.870096206665039,0.1412578970193863,-0.0173017717897892,0.0002661811013240367,0.0157046839594841
18668149200137,0.34356793761253357,-9.841365814208984,0.1364694982767105,-0.012776692397892475,0.0013309054775163531,0.0157046839594841
18668150437212,0.32441434264183044,-9.858125686645508,0.16160862147808075,-0.01703559048473835,-0.0026618109550327063,0.01996358297765255
18668151674300,0.28730419278144836,-9.910798072814941,0.14484921097755432,-0.0186326764523983,-0.0002661811013240367,0.02076212503015995
18668152911387,0.3016694188117981,-9.925163269042969,0.14245499670505524,-0.01783413253724575,0.0039927163161337376,0.02182685025036335
18668154148475,0.30885201692581177,-9.895236015319824,0.08619125932455063,-0.0162370465695858,0.0010647244052961469,0.01996358297765255
18668155385550,0.28730419278144836,-9.86650562286377,0.13527239859104156,-0.0186326764523983,-0.005057440605014563,0.0167694091796875
18668156622600,0.30047231912612915,-9.907206535339355,0.17956513166427612,-0.0181003138422966,-0.0031941730994731188,0.01996358297765255
18668157859687,0.2944868206977844,-9.886856079101562,0.1412578970193863,-0.0186326764523983,-0.0007985432748682797,0.02262539230287075
18668159096762,0.30047231912612915,-9.86889934539795,0.1256955862045288,-0.0215606689453125,0.0013309054775163531,0.01703559048473835
18668160333837,0.3256114423274994,-9.862914085388184,0.1604115217924118,-0.01943122036755085,-0.0018632676219567657,0.02129448764026165
18668161570912,0.31603461503982544,-9.907206535339355,0.1388636976480484,-0.0173017717897892,-0.0031941730994731188,0.0220930315554142
18668162808012,0.30047231912612915,-9.860519409179688,0.090979665517807,-0.01703559048473835,0.0018632676219567657,0.0191650390625
18668164045100,0.31962594389915466,-9.818621635437012,0.181959331035614,-0.0167694091796875,0.0039927163161337376,0.02022976242005825
18668165282162,0.31603461503982544,-9.849745750427246,0.1735796183347702,-0.01171196810901165,-0.0018632676219567657,0.0271504707634449
18668166519237,0.3280056416988373,-9.840168952941895,0.13168109953403473,-0.0157046839594841,-0.0039927163161337376,0.0234239362180233
18668167756287,0.3256114423274994,-9.84615421295166,0.15801730751991272,-0.0138414166867733,-0.0021294488105922937,0.02422248013317585
18668168993375,0.3124433159828186,-9.84615421295166,0.15801730751991272,-0.0173017717897892,0.00452507846057415,0.02022976242005825
18668170230450,0.32441434264183044,-9.848548889160156,0.1867477297782898,-0.01410759799182415,0.0026618109550327063,0.0210283063352108
18668171467512,0.31962594389915466,-9.829395294189453,0.15442600846290588,-0.01463996060192585,0.0021294488105922937,0.0268842913210392
18668172704587,0.32202014327049255,-9.813833236694336,0.18076223134994507,-0.01943122036755085,-0.0026618109550327063,0.0228915736079216
18668173941675,0.3232172429561615,-9.889249801635742,0.12689268589019775,-0.0167694091796875,-0.0013309054775163531,0.023956298828125
18668175178750,0.29568392038345337,-9.906009674072266,0.14844051003456116,-0.014906140975654125,-0.0005323622026480734,0.02129448764026165
18668176415812,0.28371289372444153,-9.852140426635742,0.14006079733371735,-0.01597086526453495,-0.0002661811013240367,0.0215606689453125
18668177652900,0.3016694188117981,-9.859322547912598,0.14006079733371735,-0.0181003138422966,-0.0007985432748682797,0.02369011752307415
18668178889975,0.27413609623908997,-9.850942611694336,0.1388636976480484,-0.01650322787463665,-0.0013309054775163531,0.0258195661008358
18668180127050,0.28371289372444153,-9.840168952941895,0.1256955862045288,-0.01836649514734745,-0.003460354171693325,0.0300784632563591
18668181364150,0.2849099934101105,-9.854534149169922,0.17477671802043915,-0.01410759799182415,-0.005589802749454975,0.02608574740588665
18668182601200,0.2861070930957794,-9.836577415466309,0.1256955862045288,-0.014906140975654125,0.0002661811013240367,0.02315775491297245
18668183838275,0.32441434264183044,-9.852140426635742,0.13407529890537262,-0.01597086526453495,0.0002661811013240367,0.02182685025036335
18668185075350,0.28371289372444153,-9.859322547912598,0.152031809091568,-0.01463996060192585,0.0005323622026480734,0.0228915736079216
18668186312425,0.2932897210121155,-9.838972091674805,0.15083470940589905,-0.015438503585755825,-0.0005323622026480734,0.02262539230287075
18668187549500,0.2561795711517334,-9.849745750427246,0.15801730751991272,-0.0157046839594841,-0.0026618109550327063,0.0223592109978199
18668188786575,0.25498247146606445,-9.832986831665039,0.16519992053508759,-0.013309055007994175,0.0002661811013240367,0.0247548408806324
18668190023650,0.3172317147254944,-9.829395294189453,0.1711854189634323,-0.013042873702943325,0.005855984054505825,0.0247548408806324
18668191260725,0.3363853394985199,-9.825803756713867,0.15921440720558167,-0.01463996060192585,0.0037265352439135313,0.02315775491297245
18668192497812,0.33279404044151306,-9.816226959228516,0.1628057211637497,-0.0157046839594841,0.00452507846057415,0.0252872034907341
18668193734887,0.27892449498176575,-9.832986831665039,0.16519992053508759,-0.0186326764523983,0.0015970865497365594,0.02262539230287075
18668194971962,0.2932897210121155,-9.840168952941895,0.15322890877723694,-0.015172322280704975,0.0021294488105922937,0.0244886614382267
18668196209037,0.30047231912612915,-9.803058624267578,0.1280897855758667,-0.01224433071911335,-0.0002661811013240367,0.0282151959836483
18668197446112,0.29807811975479126,-9.86889934539795,0.09696517139673233,-0.01224433071911335,0.0013309054775163531,0.0316755510866642
18668198683175,0.27054479718208313,-9.86650562286377,0.19273324310779572,-0.01357523538172245,0.0037265352439135313,0.0319417305290699
18668199920262,0.3148375153541565,-9.884461402893066,0.19273324310779572,-0.007985432632267475,0.0,0.0316755510866642
18668201157337,0.31842881441116333,-9.86650562286377,0.16879121959209442,-0.0071868896484375,0.0,0.0346035435795784
18668202394412,0.2801215946674347,-9.87967300415039,0.181959331035614,-0.010381062515079975,0.0037265352439135313,0.0300784632563591
18668203631500,0.2753331959247589,-9.889249801635742,0.1604115217924118,-0.013309055007994175,0.0018632676219567657,0.0247548408806324
18668204868575,0.2992752194404602,-9.86889934539795,0.1256955862045288,-0.0119781494140625,-0.0015970865497365594,0.033538818359375
18668206105662,0.26815059781074524,-9.880870819091797,0.1735796183347702,-0.01410759799182415,0.004791259765625,0.0311431884765625
18668207342712,0.28730419278144836,-9.873687744140625,0.16400282084941864,-0.010913425125181675,0.0026618109550327063,0.0311431884765625
18668208579812,0.26575639843940735,-9.883264541625977,0.14245499670505524,-0.01224433071911335,-0.0021294488105922937,0.0393948033452034
18668209816862,0.28730419278144836,-9.841365814208984,0.14484921097755432,-0.015438503585755825,-0.0005323622026480734,0.0354020856320858
18668211053950,0.2669534981250763,-9.858125686645508,0.19632454216480255,-0.0167694091796875,0.0053236219100654125,0.02741665206849575
18668212291025,0.28131869435310364,-9.853337287902832,0.18914192914962769,-0.01463996060192585,0.0021294488105922937,0.0316755510866642
18668213528112,0.29209262132644653,-9.837775230407715,0.14604631066322327,-0.01597086526453495,0.0039927163161337376,0.0314093679189682
18668214765175,0.23942017555236816,-9.818621635437012,0.11372458189725876,-0.0157046839594841,0.0053236219100654125,0.0324740931391716
18668216002262,0.2537853717803955,-9.876082420349121,0.10295067727565765,-0.0090501569211483,0.0063883461989462376,0.0343373604118824
18668217239337,0.2645592987537384,-9.841365814208984,0.13527239859104156,-0.010114881210029125,0.0015970865497365594,0.033538818359375
18668218476412,0.2645592987537384,-9.830592155456543,0.13407529890537262,-0.0119781494140625,0.0007985432748682797,0.0340711809694767
18668219713487,0.22744916379451752,-9.87967300415039,0.12689268589019775,-0.00692070834338665,0.0029279920272529125,0.0367329902946949
18668220950562,0.24181437492370605,-9.877279281616211,0.15921440720558167,-0.008783976547420025,0.0021294488105922937,0.0369991734623909
18668222187637,0.2645592987537384,-9.897629737854004,0.1604115217924118,-0.012776692397892475,0.0018632676219567657,0.033272635191679
18668223424700,0.2645592987537384,-9.891644477844238,0.15682020783424377,-0.015172322280704975,0.0037265352439135313,0.0385962575674057
18668224661787,0.24779987335205078,-9.951498985290527,0.17717093229293823,-0.012510511092841625,0.0066545275039970875,0.0377977155148983
18668225898875,0.23343466222286224,-9.927556991577148,0.1412578970193863,-0.013042873702943325,0.0037265352439135313,0.0393948033452034
18668227135937,0.27413609623908997,-9.932345390319824,0.1843535304069519,-0.01410759799182415,0.0015970865497365594,0.0412580706179142
18668228373012,0.2693476974964142,-9.956287384033203,0.14365209639072418,-0.01597086526453495,0.0018632676219567657,0.0396609827876091
18668229610075,0.2777273952960968,-9.950302124023438,0.1149216815829277,-0.015438503585755825,0.0007985432748682797,0.0375315360724926
18668230847162,0.27653029561042786,-9.945513725280762,0.15083470940589905,-0.01410759799182415,0.005057440605014563,0.0388624407351017
18668232084250,0.2406172752380371,-9.928754806518555,0.09816227108240128,-0.0173017717897892,-0.0015970865497365594,0.0388624407351017
18668233321312,0.26096799969673157,-9.973047256469727,0.1412578970193863,-0.015438503585755825,-0.0026618109550327063,0.0385962575674057
18668234558387,0.28371289372444153,-9.915586471557617,0.15322890877723694,-0.013042873702943325,0.0026618109550327063,0.0436537005007267
18668235795475,0.2106897532939911,-9.939528465270996,0.12090718746185303,-0.01996358297765255,0.005589802749454975,0.0415242500603199
18668237032550,0.2621650993824005,-9.959878921508789,0.090979665517807,-0.01996358297765255,0.0039927163161337376,0.043121337890625
18668238269612,0.24899697303771973,-9.994595527648926,0.12449848651885986,-0.01756795309484005,0.0026618109550327063,0.0433875173330307
18668239506700,0.2406172752380371,-9.963470458984375,0.1041477769613266,-0.0228915736079216,0.00452507846057415,0.0356682650744915
18668240743787,0.24181437492370605,-9.919178009033203,0.11851298809051514,-0.02076212503015995,0.0029279920272529125,0.0439198799431324
18668241980837,0.24181437492370605,-9.95748519897461,0.1843535304069519,-0.0173017717897892,0.005855984054505825,0.0457831472158432
18668243217925,0.21428105235099792,-9.927556991577148,0.19632454216480255,-0.01650322787463665,0.0018632676219567657,0.0449846051633358
18668244455000,0.22625206410884857,-9.938331604003906,0.13168109953403473,-0.02129448764026165,0.0023956298828125,0.0420566126704216
18668245692087,0.1975216418504715,-9.932345390319824,0.1173158809542656,-0.0215606689453125,0.0023956298828125,0.0439198799431324
18668246929150,0.2106897532939911,-9.951498985290527,0.08499415963888168,-0.0191650390625,0.0005323622026480734,0.0447184219956398
18668248166237,0.19871874153614044,-9.927556991577148,0.10175357013940811,-0.02369011752307415,0.003460354171693325,0.0449846051633358
18668249403300,0.14365209639072418,-9.921571731567383,0.12449848651885986,-0.0228915736079216,0.005589802749454975,0.0444522425532341
18668250640375,0.19871874153614044,-9.910798072814941,0.08978256583213806,-0.02369011752307415,0.005589802749454975,0.0452507846057415
18668251877450,0.18914192914962769,-9.923966407775879,0.1628057211637497,-0.0228915736079216,0.005855984054505825,0.0444522425532341
18668253114537,0.2322375625371933,-9.940725326538086,0.12210428714752197,-0.02422248013317585,0.010381062515079975,0.0468478724360466
18668254351600,0.20350714027881622,-9.908403396606445,0.16639702022075653,-0.0244886614382267,0.0039927163161337376,0.0505744069814682
18668255588687,0.2106897532939911,-9.943120002746582,0.12330138683319092,-0.02794901467859745,0.0037265352439135313,0.0487111397087574
18668256825750,0.20470423996448517,-9.93593692779541,0.13168109953403473,-0.0306108258664608,0.013309055007994175,0.0457831472158432
18668258062825,0.21428105235099792,-9.926360130310059,0.15682020783424377,-0.0319417305290699,0.007985432632267475,0.0497758649289608
18668259299912,0.19393034279346466,-9.9371337890625,0.1173158809542656,-0.0311431884765625,0.006122165359556675,0.0516391322016716
18668260537000,0.18555063009262085,-9.888052940368652,0.1388636976480484,-0.02794901467859745,0.00452507846057415,0.0535023994743824
18668261774062,0.21308395266532898,-9.886856079101562,0.12330138683319092,-0.0316755510866642,0.0114457868039608,0.0508405901491642
18668263011137,0.23343466222286224,-9.906009674072266,0.09217676520347595,-0.0322079136967659,0.013309055007994175,0.0489773228764534
18668264248200,0.23104046285152435,-9.886856079101562,0.1412578970193863,-0.0343373604118824,0.010913425125181675,0.0497758649289608
18668265485287,0.24181437492370605,-9.894038200378418,0.12928690016269684,-0.0314093679189682,0.00958251953125,0.0537685826420784
18668266722362,0.22744916379451752,-9.862914085388184,0.11133038252592087,-0.03034464456140995,0.0071868896484375,0.0516391322016716
18668267959437,0.2992752194404602,-9.86889934539795,0.18315643072128296,-0.0369991734623909,0.010913425125181675,0.0481787770986557
18668269196525,0.2693476974964142,-9.836577415466309,0.1472434103488922,-0.0375315360724926,0.01410759799182415,0.0492435023188591
18668270433587,0.31962594389915466,-9.837775230407715,0.15442600846290588,-0.02741665206849575,0.00692070834338665,0.0543009415268898
18668271670675,0.2932897210121155,-9.798270225524902,0.152031809091568,-0.03087700717151165,0.00931633822619915,0.0436537005007267
18668272907737,0.26575639843940735,-9.783905029296875,0.1735796183347702,-0.0314093679189682,0.014373779296875,0.043121337890625
18668274144812,0.25498247146606445,-9.824606895446777,0.10175357013940811,-0.0316755510866642,0.015438503585755825,0.0484449602663517
18668275381900,0.2537853717803955,-9.795876502990723,0.08619125932455063,-0.0340711809694767,0.012776692397892475,0.0452507846057415
18668276618975,0.22385786473751068,-9.829395294189453,0.15083470940589905,-0.0340711809694767,0.0063883461989462376,0.04791259765625
18668277856037,0.25498247146606445,-9.807847023010254,0.14365209639072418,-0.0319417305290699,0.007985432632267475,0.0471140518784523
18668279093125,0.24660277366638184,-9.831789016723633,0.12330138683319092,-0.0356682650744915,0.008517795242369175,0.0420566126704216
18668280330200,0.20231004059314728,-9.847352027893066,0.06584054976701736,-0.0316755510866642,0.0042588976211845875,0.0423227921128273
18668281567262,0.2777273952960968,-9.828198432922363,0.13766659796237946,-0.0338049978017807,0.0119781494140625,0.0433875173330307
18668282804350,0.25019407272338867,-9.827000617980957,0.10534487664699554,-0.0377977155148983,0.01410759799182415,0.0444522425532341
18668284041437,0.2106897532939911,-9.804256439208984,0.1496376097202301,-0.0377977155148983,0.0077192517928779125,0.0401933453977108
18668285278512,0.2406172752380371,-9.862914085388184,0.08499415963888168,-0.0338049978017807,0.0063883461989462376,0.0423227921128273
18668286515562,0.2753331959247589,-9.81024169921875,0.10534487664699554,-0.0359344482421875,0.00931633822619915,0.0457831472158432
18668287752650,0.2825157940387726,-9.81024169921875,0.13766659796237946,-0.033538818359375,0.012510511092841625,0.0396609827876091
18668288989737,0.29568392038345337,-9.813833236694336,0.13287819921970367,-0.0292799212038517,0.01756795309484005,0.0324740931391716
18668290226800,0.3016694188117981,-9.806650161743164,0.15801730751991272,-0.0314093679189682,0.01703559048473835,0.0364668108522892
18668291463875,0.34596213698387146,-9.818621635437012,0.21667525172233582,-0.0316755510866642,0.010647243820130825,0.038330078125
18668292700950,0.3256114423274994,-9.800664901733398,0.17717093229293823,-0.0316755510866642,0.004791259765625,0.0396609827876091
18668293938050,0.3100491166114807,-9.767146110534668,0.20470423996448517,-0.0330064557492733,0.007985432632267475,0.0367329902946949
18668295175112,0.2597709000110626,-9.830592155456543,0.1711854189634323,-0.0306108258664608,0.0071868896484375,0.0364668108522892
18668296412175,0.2454056739807129,-9.829395294189453,0.14604631066322327,-0.03034464456140995,0.0013309054775163531,0.0372653529047966
18668297649262,0.27413609623908997,-9.838972091674805,0.15921440720558167,-0.0319417305290699,0.0029279920272529125,0.0343373604118824
18668298886337,0.23104046285152435,-9.800664901733398,0.19033904373645782,-0.0319417305290699,0.00958251953125,0.0314093679189682
18668300123412,0.27054479718208313,-9.834183692932129,0.13168109953403473,-0.033538818359375,0.0063883461989462376,0.0311431884765625
18668301360500,0.23343466222286224,-9.847352027893066,0.10654197633266449,-0.0338049978017807,0.0026618109550327063,0.0385962575674057
18668302597562,0.1628057211637497,-9.835380554199219,0.10055647045373917,-0.02874755859375,0.008251613937318325,0.0385962575674057
18668303834650,0.18076223134994507,-9.813833236694336,0.11013327538967133,-0.0282151959836483,0.0037265352439135313,0.0359344482421875
18668305071712,0.17836803197860718,-9.801861763000488,0.11611878126859665,-0.0316755510866642,0.0053236219100654125,0.0362006276845932
18668306308812,0.20231004059314728,-9.77552604675293,0.09816227108240128,-0.02901373989880085,0.0039927163161337376,0.02981228195130825
18668307545875,0.19033904373645782,-9.807847023010254,0.08619125932455063,-0.0282151959836483,0.00692070834338665,0.02981228195130825
18668308782950,0.14484921097755432,-9.789891242980957,0.08379705995321274,-0.0295461006462574,0.0066545275039970875,0.0356682650744915
18668310020050,0.1951274424791336,-9.765949249267578,0.0933738648891449,-0.023956298828125,0.0063883461989462376,0.0369991734623909
18668311257087,0.1711854189634323,-9.785102844238281,0.07062894850969315,-0.02661811001598835,0.00958251953125,0.0359344482421875
18668312494187,0.23343466222286224,-9.794679641723633,0.0802057608962059,-0.02502102218568325,0.00958251953125,0.0377977155148983
18668313731262,0.23343466222286224,-9.780314445495605,0.07422025501728058,-0.01836649514734745,0.003460354171693325,0.0369991734623909
18668314968337,0.21308395266532898,-9.797073364257812,0.12090718746185303,-0.02315775491297245,0.0042588976211845875,0.0385962575674057
18668316205400,0.23942017555236816,-9.81024169921875,0.11372458189725876,-0.02555338479578495,0.00931633822619915,0.038330078125
18668317442475,0.2214636653661728,-9.793481826782227,0.1412578970193863,-0.0228915736079216,0.0119781494140625,0.0447184219956398
18668318679562,0.24779987335205078,-9.840168952941895,0.17717093229293823,-0.02129448764026165,0.00984870083630085,0.0412580706179142
18668319916637,0.2106897532939911,-9.84615421295166,0.18076223134994507,-0.02315775491297245,0.010647243820130825,0.0369991734623909
18668321153712,0.20949265360832214,-9.827000617980957,0.1604115217924118,-0.02555338479578495,0.01357523538172245,0.0407257080078125
18668322390800,0.24899697303771973,-9.822212219238281,0.1149216815829277,-0.0196974016726017,0.0077192517928779125,0.0364668108522892
18668323627875,0.2214636653661728,-9.837775230407715,0.17477671802043915,-0.02369011752307415,0.0063883461989462376,0.0359344482421875
18668324864925,0.2346317619085312,-9.829395294189453,0.152031809091568,-0.023956298828125,0.010647243820130825,0.0423227921128273
18668326102025,0.23942017555236816,-9.834183692932129,0.14484921097755432,-0.02369011752307415,0.010114881210029125,0.0377977155148983
18668327339087,0.22026655077934265,-9.837775230407715,0.1496376097202301,-0.0247548408806324,0.00692070834338665,0.0385962575674057
18668328576175,0.17238251864910126,-9.864110946655273,0.15442600846290588,-0.0234239362180233,0.01117960549890995,0.0407257080078125
18668329813262,0.1388636976480484,-9.834183692932129,0.16400282084941864,-0.0258195661008358,0.008251613937318325,0.0359344482421875
18668331050325,0.17836803197860718,-9.804256439208984,0.12090718746185303,-0.023956298828125,0.01357523538172245,0.038063894957304
18668332287387,0.181959331035614,-9.804256439208984,0.12689268589019775,-0.02369011752307415,0.010913425125181675,0.0420566126704216
18668333524475,0.152031809091568,-9.785102844238281,0.15083470940589905,-0.01943122036755085,0.015438503585755825,0.0391286201775074
18668334761537,0.14844051003456116,-9.816226959228516,0.09816227108240128,-0.0162370465695858,0.01224433071911335,0.0388624407351017
18668335998637,0.1412578970193863,-9.803058624267578,0.11013327538967133,-0.02182685025036335,0.010381062515079975,0.0377977155148983
18668337235700,0.16998831927776337,-9.836577415466309,0.08259996026754379,-0.0220930315554142,0.0090501569211483,0.0415242500603199
18668338472787,0.16639702022075653,-9.858125686645508,0.10654197633266449,-0.02076212503015995,0.01410759799182415,0.0399271659553051
18668339709850,0.16400282084941864,-9.8784761428833,0.09935937076807022,-0.0223592109978199,0.015172322280704975,0.0401933453977108
18668340946925,0.12689268589019775,-9.872490882873535,0.090979665517807,-0.0220930315554142,0.01224433071911335,0.0401933453977108
18668342184012,0.1628057211637497,-9.891644477844238,0.11372458189725876,-0.0220930315554142,0.01171196810901165,0.0369991734623909
18668343421087,0.18794482946395874,-9.870096206665039,0.1041477769613266,-0.02182685025036335,0.01756795309484005,0.0322079136967659
18668344658150,0.20470423996448517,-9.90241813659668,0.09576807171106339,-0.02369011752307415,0.0204959437251091,0.0364668108522892
18668345895237,0.2059013545513153,-9.888052940368652,0.1364694982767105,-0.0220930315554142,0.0173017717897892,0.0401933453977108
18668347132312,0.23942017555236816,-9.859322547912598,0.090979665517807,-0.0220930315554142,0.01224433071911335,0.0377977155148983
18668348369362,0.22266076505184174,-9.8784761428833,0.10534487664699554,-0.02661811001598835,0.01410759799182415,0.033272635191679
18668349606450,0.24181437492370605,-9.882067680358887,0.05267243832349777,-0.0223592109978199,0.015438503585755825,0.033272635191679
18668350843525,0.2322375625371933,-9.916783332824707,0.09576807171106339,-0.02422248013317585,0.0157046839594841,0.0327402763068676
18668352080625,0.23942017555236816,-9.885659217834473,0.1280897855758667,-0.02315775491297245,0.01783413253724575,0.02848137728869915
18668353317662,0.2190694510936737,-9.860519409179688,0.14604631066322327,-0.0271504707634449,0.01357523538172245,0.0247548408806324
18668354554750,0.2298433631658554,-9.84615421295166,0.10893617570400238,-0.0263519287109375,0.0119781494140625,0.02422248013317585
18668355791837,0.25258827209472656,-9.840168952941895,0.10055647045373917,-0.02262539230287075,0.012510511092841625,0.0300784632563591
18668357028925,0.22026655077934265,-9.84256362915039,0.08379705995321274,-0.02129448764026165,0.01703559048473835,0.0263519287109375
18668358266000,0.20470423996448517,-9.853337287902832,0.15322890877723694,-0.0223592109978199,0.01703559048473835,0.02741665206849575
18668359503062,0.22505496442317963,-9.84376049041748,0.11851298809051514,-0.0252872034907341,0.01224433071911335,0.0322079136967659
18668360740137,0.23942017555236816,-9.817423820495605,0.09696517139673233,-0.02369011752307415,0.015438503585755825,0.0271504707634449
18668361977212,0.25258827209472656,-9.830592155456543,0.1149216815829277,-0.02262539230287075,0.01650322787463665,0.02608574740588665
18668363214300,0.25737667083740234,-9.836577415466309,0.13407529890537262,-0.0223592109978199,0.01703559048473835,0.02315775491297245
18668364451375,0.20709845423698425,-9.847352027893066,0.08858546614646912,-0.01943122036755085,0.0181003138422966,0.0210283063352108
18668365688437,0.24181437492370605,-9.824606895446777,0.12449848651885986,-0.02182685025036335,0.01836649514734745,0.0276828333735466
18668366925537,0.2513911724090576,-9.849745750427246,0.1628057211637497,-0.0186326764523983,0.01836649514734745,0.0258195661008358
18668368162600,0.21188685297966003,-9.859322547912598,0.11971008777618408,-0.02502102218568325,0.01836649514734745,0.02022976242005825
18668369399675,0.1999158412218094,-9.834183692932129,0.0933738648891449,-0.0228915736079216,0.013042873702943325,0.0191650390625
18668370636762,0.2454056739807129,-9.799468040466309,0.13407529890537262,-0.02022976242005825,0.01703559048473835,0.0223592109978199
18668371873825,0.2513911724090576,-9.834183692932129,0.16160862147808075,-0.0215606689453125,0.015438503585755825,0.0220930315554142
18668373110912,0.23822307586669922,-9.806650161743164,0.1496376097202301,-0.01996358297765255,0.0167694091796875,0.01836649514734745
18668374347987,0.26336219906806946,-9.823410034179688,0.08978256583213806,-0.01783413253724575,0.012776692397892475,0.0204959437251091
18668375585050,0.2059013545513153,-9.798270225524902,0.12090718746185303,-0.01597086526453495,0.0167694091796875,0.01889885775744915
18668376822137,0.2214636653661728,-9.838972091674805,0.12689268589019775,-0.015172322280704975,0.0162370465695858,0.0215606689453125
18668378059200,0.23822307586669922,-9.792284965515137,0.1280897855758667,-0.0210283063352108,0.014373779296875,0.02129448764026165
18668379296275,0.22026655077934265,-9.831789016723633,0.10893617570400238,-0.01783413253724575,0.012510511092841625,0.0196974016726017
18668380533362,0.23942017555236816,-9.836577415466309,0.08978256583213806,-0.013309055007994175,0.01171196810901165,0.0210283063352108
18668381770437,0.21667525172233582,-9.823410034179688,0.10534487664699554,-0.0119781494140625,0.014906140975654125,0.02022976242005825
18668383007500,0.2513911724090576,-9.84256362915039,0.10893617570400238,-0.01756795309484005,0.0162370465695858,0.0191650390625
18668384244587,0.21667525172233582,-9.832986831665039,0.09935937076807022,-0.0138414166867733,0.013309055007994175,0.01943122036755085
18668385481662,0.23822307586669922,-9.852140426635742,0.1149216815829277,-0.01171196810901165,0.01224433071911335,0.0215606689453125
18668386718750,0.21428105235099792,-9.829395294189453,0.12090718746185303,-0.012510511092841625,0.012776692397892475,0.02129448764026165
18668387955825,0.21667525172233582,-9.817423820495605,0.13287819921970367,-0.013309055007994175,0.010913425125181675,0.01889885775744915
18668389192912,0.2585738003253937,-9.7791166305542,0.11013327538967133,-0.01171196810901165,0.0119781494140625,0.01357523538172245
18668390429962,0.25737667083740234,-9.786299705505371,0.10055647045373917,-0.007985432632267475,0.012776692397892475,0.01650322787463665
18668391667050,0.23822307586669922,-9.77791976928711,0.18794482946395874,-0.005855984054505825,0.0090501569211483,0.0215606689453125
18668392904125,0.2717418968677521,-9.77672290802002,0.13168109953403473,-0.0090501569211483,0.00958251953125,0.0162370465695858
18668394141200,0.2992752194404602,-9.795876502990723,0.1173158809542656,-0.007985432632267475,0.010381062515079975,0.013042873702943325
18668395378262,0.28131869435310364,-9.813833236694336,0.10175357013940811,-0.0066545275039970875,0.01117960549890995,0.01463996060192585
18668396615350,0.26336219906806946,-9.800664901733398,0.11013327538967133,-0.005589802749454975,0.01463996060192585,0.0071868896484375
18668397852425,0.2454056739807129,-9.813833236694336,0.11851298809051514,-0.005589802749454975,0.015172322280704975,0.00931633822619915
18668399089500,0.22026655077934265,-9.829395294189453,0.11013327538967133,-0.0090501569211483,0.01756795309484005,0.010381062515079975
18668400326575,0.26815059781074524,-9.786299705505371,0.1496376097202301,-0.005057440605014563,0.007985432632267475,0.010647243820130825
18668401563662,0.25258827209472656,-9.795876502990723,0.14365209639072418,-0.0029279920272529125,0.0114457868039608,0.01597086526453495
18668402800725,0.24899697303771973,-9.822212219238281,0.1364694982767105,0.0007985432748682797,0.008517795242369175,0.0119781494140625
18668404037800,0.25737667083740234,-9.800664901733398,0.1412578970193863,-0.0013309054775163531,0.006122165359556675,0.008783976547420025
18668405274900,0.22266076505184174,-9.791088104248047,0.14245499670505524,-0.0039927163161337376,0.010647243820130825,0.01117960549890995
18668406511962,0.21667525172233582,-9.804256439208984,0.12928690016269684,-0.0002661811013240367,0.01410759799182415,0.0090501569211483
18668407749062,0.17956513166427612,-9.818621635437012,0.08379705995321274,-0.0013309054775163531,0.00958251953125,0.005057440605014563
18668408986112,0.2322375625371933,-9.791088104248047,0.10893617570400238,0.0015970865497365594,0.0053236219100654125,0.0071868896484375
18668410223187,0.2106897532939911,-9.806650161743164,0.11133038252592087,0.0021294488105922937,0.005057440605014563,0.0066545275039970875
18668411460275,0.25737667083740234,-9.803058624267578,0.0694318488240242,0.007453070487827063,0.007453070487827063,0.00984870083630085
18668412697350,0.26575639843940735,-9.80904483795166,0.04189852997660637,0.0031941730994731188,0.007453070487827063,0.003460354171693325
18668413934412,0.24420857429504395,-9.824606895446777,0.06823474913835526,0.0015970865497365594,0.007453070487827063,0.0031941730994731188
18668415171500,0.24779987335205078,-9.827000617980957,0.0933738648891449,0.0039927163161337376,0.00958251953125,0.0066545275039970875
18668416408562,0.23104046285152435,-9.836577415466309,0.08978256583213806,0.0071868896484375,0.0077192517928779125,0.0018632676219567657
18668417645650,0.2597709000110626,-9.834183692932129,0.08259996026754379,0.005589802749454975,0.0090501569211483,0.0066545275039970875
18668418882725,0.2298433631658554,-9.831789016723633,0.12689268589019775,0.007985432632267475,0.00958251953125,0.00452507846057415
18668420119787,0.21667525172233582,-9.81263542175293,0.12090718746185303,0.0114457868039608,0.003460354171693325,0.005057440605014563
18668421356887,0.23822307586669922,-9.81263542175293,0.05267243832349777,0.012776692397892475,0.0063883461989462376,0.0029279920272529125
18668422593950,0.21428105235099792,-9.84256362915039,0.0933738648891449,0.01117960549890995,0.008783976547420025,0.0026618109550327063
18668423831025,0.25258827209472656,-9.873687744140625,0.11133038252592087,0.0077192517928779125,0.005855984054505825,0.005589802749454975
18668425068100,0.2190694510936737,-9.823410034179688,0.08858546614646912,0.0066545275039970875,0.00958251953125,0.005855984054505825
18668426305187,0.25019407272338867,-9.865307807922363,0.09816227108240128,0.008783976547420025,0.010913425125181675,0.0066545275039970875
18668427542250,0.2346317619085312,-9.849745750427246,0.09816227108240128,0.00958251953125,0.008251613937318325,0.0026618109550327063
18668428779350,0.1999158412218094,-9.840168952941895,0.15083470940589905,0.00984870083630085,0.0042588976211845875,0.0005323622026480734
18668430016412,0.19393034279346466,-9.86650562286377,0.10893617570400238,0.010381062515079975,0.0053236219100654125,0.00931633822619915
18668431253500,0.2190694510936737,-9.84256362915039,0.05985504388809204,0.00984870083630085,0.00984870083630085,0.008251613937318325
18668432490575,0.20949265360832214,-9.860519409179688,0.05506663769483566,0.008251613937318325,0.010913425125181675,0.0029279920272529125
18668433727637,0.2298433631658554,-9.84376049041748,0.10175357013940811,0.010114881210029125,0.00692070834338665,-0.0015970865497365594
18668434964725,0.2454056739807129,-9.838972091674805,0.0802057608962059,0.01597086526453495,0.0066545275039970875,0.003460354171693325
18668436201775,0.19632454216480255,-9.841365814208984,0.11013327538967133,0.012776692397892475,0.0039927163161337376,0.0063883461989462376
18668437438887,0.20470423996448517,-9.86770248413086,0.06703764945268631,0.01117960549890995,0.0039927163161337376,0.005855984054505825
