timestamp_ns,accel_x,accel_y,accel_z,gyro_x,gyro_y,gyro_z
18510339067000,-0.5279214978218079,-9.926360130310059,0.34835633635520935,-0.005855984054505825,-0.0356682650744915,0.014373779296875
18510340304137,-0.5626373887062073,-9.898826599121094,0.333991140127182,-0.006122165359556675,-0.0359344482421875,0.0191650390625
18510341541262,-0.5758054852485657,-9.8784761428833,0.3471592366695404,-0.008517795242369175,-0.0372653529047966,0.0181003138422966
18510342778425,-0.5961562395095825,-9.872490882873535,0.35913026332855225,-0.003460354171693325,-0.02901373989880085,0.01783413253724575
18510344015575,-0.5805939435958862,-9.825803756713867,0.3495534360408783,-0.0023956298828125,-0.0364668108522892,0.01597086526453495
18510345252725,-0.5913678407669067,-9.834183692932129,0.3471592366695404,-0.003460354171693325,-0.0388624407351017,0.01597086526453495
18510346489862,-0.5758054852485657,-9.877279281616211,0.37469255924224854,-0.005589802749454975,-0.0364668108522892,0.00958251953125
18510347727012,-0.6212953329086304,-9.847352027893066,0.3818751871585846,-0.0037265352439135313,-0.0367329902946949,0.014373779296875
18510348964162,-0.608127236366272,-9.81143856048584,0.3663128614425659,-0.00931633822619915,-0.033272635191679,0.01224433071911335
18510350201300,-0.6033388376235962,-9.819818496704102,0.36990416049957275,-0.0071868896484375,-0.0362006276845932,0.01117960549890995
18510351438475,-0.5793968439102173,-9.822212219238281,0.395043283700943,-0.0077192517928779125,-0.0372653529047966,0.010913425125181675
18510352675612,-0.5422866940498352,-9.805453300476074,0.39384618401527405,-0.00692070834338665,-0.0354020856320858,0.013309055007994175
18510353912737,-0.5482721924781799,-9.823410034179688,0.33039984107017517,-0.006122165359556675,-0.0322079136967659,0.014906140975654125
18510355149900,-0.5374982953071594,-9.786299705505371,0.3531447649002075,-0.003460354171693325,-0.0362006276845932,0.01224433071911335
18510356387075,-0.5710170865058899,-9.803058624267578,0.37229835987091064,-0.006122165359556675,-0.033538818359375,0.00958251953125
18510357624200,-0.5925649404525757,-9.78869342803955,0.35075056552886963,-0.0090501569211483,-0.0351359061896801,0.00984870083630085
18510358861337,-0.608127236366272,-9.799468040466309,0.29568392038345337,-0.0066545275039970875,-0.0367329902946949,0.010913425125181675
18510360098500,-0.5626373887062073,-9.791088104248047,0.3172317147254944,-0.005855984054505825,-0.03087700717151165,0.010647243820130825
18510361335650,-0.5877765417098999,-9.792284965515137,0.3687070608139038,-0.0071868896484375,-0.0340711809694767,0.007453070487827063
18510362572800,-0.5722141861915588,-9.835380554199219,0.33039984107017517,-0.0071868896484375,-0.0375315360724926,0.0071868896484375
18510363809950,-0.5937620401382446,-9.819818496704102,0.30047231912612915,-0.004791259765625,-0.0324740931391716,0.010114881210029125
18510365047100,-0.5758054852485657,-9.828198432922363,0.3100491166114807,-0.0021294488105922937,-0.0330064557492733,0.0114457868039608
18510366284237,-0.5997475385665894,-9.838972091674805,0.31962594389915466,-0.0053236219100654125,-0.0292799212038517,0.0114457868039608
18510367521387,-0.6129156351089478,-9.81024169921875,0.3411737382411957,-0.0021294488105922937,-0.0351359061896801,0.00931633822619915
18510368758537,-0.5590460896492004,-9.821015357971191,0.33758243918418884,-0.00452507846057415,-0.0346035435795784,0.01171196810901165
18510369995687,-0.5829881429672241,-9.797073364257812,0.333991140127182,-0.01117960549890995,-0.0314093679189682,0.003460354171693325
18510371232850,-0.5722141861915588,-9.817423820495605,0.3711012601852417,-0.008783976547420025,-0.0282151959836483,0.005855984054505825
18510372469987,-0.6009446382522583,-9.828198432922363,0.333991140127182,-0.00692070834338665,-0.02981228195130825,0.005589802749454975
18510373707125,-0.6189011335372925,-9.816226959228516,0.36152446269989014,-0.0071868896484375,-0.0314093679189682,0.0013309054775163531
18510374944275,-0.5889736413955688,-9.840168952941895,0.3411737382411957,-0.008251613937318325,-0.0351359061896801,0.0005323622026480734
18510376181425,-0.5590460896492004,-9.84495735168457,0.3818751871585846,-0.0071868896484375,-0.0300784632563591,0.0037265352439135313
18510377418575,-0.5985504388809204,-9.86770248413086,0.3471592366695404,-0.0066545275039970875,-0.02661811001598835,0.0063883461989462376
18510378655700,-0.6392518877983093,-9.80904483795166,0.31364041566848755,-0.010913425125181675,-0.0282151959836483,0.003460354171693325
18510379892875,-0.6033388376235962,-9.834183692932129,0.3232172429561615,-0.010913425125181675,-0.02981228195130825,0.0018632676219567657
18510381130025,-0.5758054852485657,-9.81263542175293,0.3280056416988373,-0.004791259765625,-0.02608574740588665,0.0037265352439135313
18510382367150,-0.6153098344802856,-9.800664901733398,0.3280056416988373,-0.007453070487827063,-0.0271504707634449,0.0071868896484375
18510383604312,-0.5734112858772278,-9.798270225524902,0.38307228684425354,-0.012776692397892475,-0.0252872034907341,0.005855984054505825
18510384841462,-0.6117185354232788,-9.791088104248047,0.37828385829925537,-0.00931633822619915,-0.02608574740588665,0.008783976547420025
18510386078625,-0.629675030708313,-9.801861763000488,0.3818751871585846,-0.007453070487827063,-0.0322079136967659,0.008251613937318325
18510387315762,-0.6236895322799683,-9.758766174316406,0.30047231912612915,-0.0119781494140625,-0.0346035435795784,0.008517795242369175
18510388552912,-0.6153098344802856,-9.774328231811523,0.32441434264183044,-0.010913425125181675,-0.0263519287109375,0.010647243820130825
18510389790062,-0.6236895322799683,-9.759963035583496,0.3531447649002075,-0.010913425125181675,-0.0247548408806324,0.0063883461989462376
18510391027200,-0.628477931022644,-9.740809440612793,0.31962594389915466,-0.015438503585755825,-0.0282151959836483,0.008517795242369175
18510392264350,-0.569819986820221,-9.759963035583496,0.3280056416988373,-0.012510511092841625,-0.02741665206849575,0.010913425125181675
18510393501487,-0.6548141837120056,-9.78869342803955,0.3315969407558441,-0.0090501569211483,-0.02502102218568325,0.005855984054505825
18510394738650,-0.6129156351089478,-9.750386238098145,0.30526071786880493,-0.008783976547420025,-0.02661811001598835,0.010114881210029125
18510395975775,-0.6057330369949341,-9.726444244384766,0.32202014327049255,-0.00984870083630085,-0.0276828333735466,0.00984870083630085
18510397212925,-0.5949591398239136,-9.783905029296875,0.38067808747291565,-0.015172322280704975,-0.0263519287109375,0.007985432632267475
18510398450100,-0.586579442024231,-9.803058624267578,0.33039984107017517,-0.012510511092841625,-0.0258195661008358,0.007985432632267475
18510399687237,-0.5913678407669067,-9.81263542175293,0.32680854201316833,-0.01171196810901165,-0.0252872034907341,0.010381062515079975
18510400924400,-0.6344634294509888,-9.795876502990723,0.304063618183136,-0.01171196810901165,-0.0228915736079216,0.0119781494140625
18510402161550,-0.646434485912323,-9.804256439208984,0.3663128614425659,-0.01117960549890995,-0.0252872034907341,0.007985432632267475
18510403398700,-0.6057330369949341,-9.858125686645508,0.3878606855869293,-0.0119781494140625,-0.0210283063352108,0.004791259765625
18510404635837,-0.6021417379379272,-9.819818496704102,0.3531447649002075,-0.010913425125181675,-0.02262539230287075,0.00452507846057415
18510405872987,-0.6272808313369751,-9.817423820495605,0.33518823981285095,-0.014906140975654125,-0.01943122036755085,0.005057440605014563
18510407110125,-0.6428431868553162,-9.828198432922363,0.3687070608139038,-0.01410759799182415,-0.015172322280704975,0.0063883461989462376
18510408347287,-0.6141127347946167,-9.822212219238281,0.35434186458587646,-0.01224433071911335,-0.0162370465695858,0.00984870083630085
18510409584437,-0.6141127347946167,-9.848548889160156,0.3471592366695404,-0.010381062515079975,-0.01889885775744915,0.0090501569211483
18510410821575,-0.6308721303939819,-9.855731010437012,0.34356793761253357,-0.01224433071911335,-0.0191650390625,0.0077192517928779125
18510412058737,-0.6117185354232788,-9.870096206665039,0.34596213698387146,-0.013042873702943325,-0.01943122036755085,0.00984870083630085
18510413295875,-0.6033388376235962,-9.86650562286377,0.33758243918418884,-0.010647243820130825,-0.0215606689453125,0.010381062515079975
18510414533025,-0.5805939435958862,-9.880870819091797,0.3387795388698578,-0.013309055007994175,-0.015172322280704975,0.008517795242369175
18510415770162,-0.6200982332229614,-9.859322547912598,0.3280056416988373,-0.01463996060192585,-0.01756795309484005,0.00931633822619915
18510417007337,-0.6416460871696472,-9.8784761428833,0.3363853394985199,-0.01410759799182415,-0.01836649514734745,0.00931633822619915
18510418244475,-0.6272808313369751,-9.847352027893066,0.363918662071228,-0.0162370465695858,-0.01889885775744915,0.005589802749454975
18510419481625,-0.6572083830833435,-9.830592155456543,0.3663128614425659,-0.01703559048473835,-0.02076212503015995,0.010647243820130825
18510420718762,-0.6500257849693298,-9.834183692932129,0.3100491166114807,-0.0167694091796875,-0.0196974016726017,0.008783976547420025
18510421955900,-0.5985504388809204,-9.816226959228516,0.32441434264183044,-0.02262539230287075,-0.01357523538172245,0.0119781494140625
18510423193075,-0.6045359373092651,-9.818621635437012,0.35434186458587646,-0.0210283063352108,-0.01117960549890995,0.007453070487827063
18510424430212,-0.6392518877983093,-9.797073364257812,0.3423708379268646,-0.01650322787463665,-0.015438503585755825,0.006122165359556675
18510425667375,-0.6224924325942993,-9.824606895446777,0.3495534360408783,-0.01756795309484005,-0.01410759799182415,0.0063883461989462376
18510426904500,-0.6021417379379272,-9.785102844238281,0.34356793761253357,-0.0162370465695858,-0.012776692397892475,0.0026618109550327063
18510428141650,-0.5997475385665894,-9.807847023010254,0.33758243918418884,-0.01463996060192585,-0.015172322280704975,0.00958251953125
18510429378800,-0.5805939435958862,-9.767146110534668,0.363918662071228,-0.01463996060192585,-0.013042873702943325,0.007985432632267475
18510430615950,-0.5949591398239136,-9.799468040466309,0.33279404044151306,-0.0167694091796875,-0.00958251953125,0.005855984054505825
18510431853100,-0.6631938815116882,-9.80904483795166,0.30885201692581177,-0.0162370465695858,-0.01357523538172245,0.00984870083630085
18510433090250,-0.6177040338516235,-9.805453300476074,0.333991140127182,-0.01756795309484005,-0.0162370465695858,0.008783976547420025
18510434327400,-0.6212953329086304,-9.782708168029785,0.304063618183136,-0.01836649514734745,-0.007453070487827063,0.0037265352439135313
18510435564550,-0.6009446382522583,-9.803058624267578,0.31603461503982544,-0.01650322787463665,-0.0114457868039608,0.010114881210029125
18510436801700,-0.6200982332229614,-9.795876502990723,0.33518823981285095,-0.01836649514734745,-0.01756795309484005,0.007453070487827063
18510438038837,-0.6033388376235962,-9.800664901733398,0.36990416049957275,-0.02502102218568325,-0.00984870083630085,0.0018632676219567657
18510439276000,-0.6033388376235962,-9.797073364257812,0.3734954595565796,-0.0196974016726017,-0.007453070487827063,0.004791259765625
18510440513125,-0.6212953329086304,-9.795876502990723,0.3232172429561615,-0.01357523538172245,-0.010647243820130825,0.008251613937318325
18510441750300,-0.6260837316513062,-9.786299705505371,0.3292027413845062,-0.01836649514734745,-0.00958251953125,0.0026618109550327063
18510442987450,-0.5973533391952515,-9.817423820495605,0.34596213698387146,-0.02262539230287075,-0.01463996060192585,0.0037265352439135313
18510444224587,-0.6260837316513062,-9.819818496704102,0.3315969407558441,-0.015438503585755825,-0.01597086526453495,0.00452507846057415
18510445461725,-0.6500257849693298,-9.7791166305542,0.3531447649002075,-0.023956298828125,-0.0077192517928779125,0.0071868896484375
18510446698875,-0.628477931022644,-9.803058624267578,0.3076549172401428,-0.02741665206849575,-0.0063883461989462376,0.0037265352439135313
18510447936025,-0.6141127347946167,-9.81263542175293,0.3100491166114807,-0.01943122036755085,-0.007453070487827063,0.0029279920272529125
18510449173150,-0.5997475385665894,-9.817423820495605,0.31364041566848755,-0.0186326764523983,-0.0077192517928779125,0.0007985432748682797
18510450410325,-0.6129156351089478,-9.805453300476074,0.3064578175544739,-0.0215606689453125,-0.0071868896484375,-0.0010647244052961469
18510451647475,-0.5997475385665894,-9.835380554199219,0.3280056416988373,-0.02076212503015995,-0.0077192517928779125,-0.0039927163161337376
18510452884637,-0.6057330369949341,-9.825803756713867,0.3387795388698578,-0.02182685025036335,-0.0026618109550327063,-0.0021294488105922937
18510454121775,-0.6236895322799683,-9.791088104248047,0.31962594389915466,-0.0228915736079216,-0.008517795242369175,0.0026618109550327063
18510455358925,-0.6584054827690125,-9.799468040466309,0.363918662071228,-0.01996358297765255,-0.005855984054505825,0.0007985432748682797
18510456596075,-0.629675030708313,-9.832986831665039,0.32202014327049255,-0.0210283063352108,-0.0029279920272529125,-0.0005323622026480734
18510457833212,-0.6105214357376099,-9.80904483795166,0.32202014327049255,-0.0204959437251091,-0.00452507846057415,-0.0023956298828125
18510459070362,-0.6200982332229614,-9.81263542175293,0.32202014327049255,-0.02315775491297245,-0.0026618109550327063,-0.0010647244052961469
18510460307500,-0.6200982332229614,-9.773131370544434,0.31124621629714966,-0.0173017717897892,-0.0037265352439135313,0.0
18510461544662,-0.6715735793113708,-9.795876502990723,0.27653029561042786,-0.02129448764026165,-0.0037265352439135313,-0.0015970865497365594
18510462781825,-0.6248866319656372,-9.821015357971191,0.31842881441116333,-0.02022976242005825,-0.0002661811013240367,-0.005057440605014563
18510464018975,-0.6224924325942993,-9.815030097961426,0.3411737382411957,-0.01943122036755085,-0.0021294488105922937,0.0015970865497365594
18510465256112,-0.6272808313369751,-9.806650161743164,0.3172317147254944,-0.0173017717897892,0.0015970865497365594,0.0021294488105922937
18510466493262,-0.5829881429672241,-9.835380554199219,0.31364041566848755,-0.0234239362180233,-0.0010647244052961469,0.0039927163161337376
18510467730387,-0.6416460871696472,-9.849745750427246,0.30526071786880493,-0.0234239362180233,-0.0010647244052961469,0.0013309054775163531
18510468967550,-0.5889736413955688,-9.822212219238281,0.3076549172401428,-0.023956298828125,-0.003460354171693325,-0.0026618109550327063
18510470204687,-0.5973533391952515,-9.795876502990723,0.31962594389915466,-0.0252872034907341,-0.003460354171693325,-0.0023956298828125
18510471441825,-0.6057330369949341,-9.832986831665039,0.304063618183136,-0.01996358297765255,0.0031941730994731188,-0.0002661811013240367
18510472679000,-0.6033388376235962,-9.81263542175293,0.3292027413845062,-0.01996358297765255,0.0029279920272529125,-0.0015970865497365594
18510473916150,-0.5722141861915588,-9.800664901733398,0.2801215946674347,-0.02076212503015995,0.005057440605014563,-0.0031941730994731188
18510475153287,-0.5913678407669067,-9.782708168029785,0.3124433159828186,-0.0196974016726017,0.0029279920272529125,-0.0026618109550327063
18510476390425,-0.5758054852485657,-9.823410034179688,0.30286651849746704,-0.0223592109978199,0.0029279920272529125,-0.00452507846057415
18510477627600,-0.5985504388809204,-9.800664901733398,0.2944868206977844,-0.0186326764523983,0.0071868896484375,-0.0042588976211845875
18510478864737,-0.5973533391952515,-9.824606895446777,0.3064578175544739,-0.0196974016726017,0.0077192517928779125,-0.0015970865497365594
18510480101887,-0.569819986820221,-9.822212219238281,0.29807811975479126,-0.013042873702943325,0.0015970865497365594,0.0007985432748682797
18510481339050,-0.6117185354232788,-9.828198432922363,0.2717418968677521,-0.01756795309484005,0.0026618109550327063,-0.0010647244052961469
18510482576187,-0.606930136680603,-9.821015357971191,0.3100491166114807,-0.01996358297765255,0.005855984054505825,0.0
18510483813337,-0.5829881429672241,-9.836577415466309,0.3232172429561615,-0.01943122036755085,0.0053236219100654125,-0.0010647244052961469
18510485050475,-0.5841852426528931,-9.840168952941895,0.28730419278144836,-0.0204959437251091,0.010647243820130825,-0.003460354171693325
18510486287625,-0.6117185354232788,-9.80904483795166,0.3292027413845062,-0.01783413253724575,0.006122165359556675,-0.0005323622026480734
18510487524775,-0.6153098344802856,-9.850942611694336,0.29209262132644653,-0.01889885775744915,0.005057440605014563,-0.0023956298828125
18510488761925,-0.606930136680603,-9.813833236694336,0.31842881441116333,-0.014906140975654125,0.00692070834338665,-0.005855984054505825
18510489999087,-0.6093243360519409,-9.780314445495605,0.2885012924671173,-0.010913425125181675,0.0015970865497365594,-0.0015970865497365594
18510491236212,-0.5602431893348694,-9.81263542175293,0.3315969407558441,-0.0196974016726017,0.008251613937318325,0.0037265352439135313
18510492473387,-0.5722141861915588,-9.807847023010254,0.27054479718208313,-0.0162370465695858,0.00692070834338665,-0.0013309054775163531
18510493710537,-0.5674257874488831,-9.7791166305542,0.30885201692581177,-0.01756795309484005,0.00692070834338665,-0.0071868896484375
18510494947675,-0.5770025849342346,-9.817423820495605,0.2537853717803955,-0.02022976242005825,0.0039927163161337376,-0.0066545275039970875
18510496184825,-0.5817910432815552,-9.800664901733398,0.2645592987537384,-0.0167694091796875,0.01117960549890995,-0.0037265352439135313
18510497421975,-0.5626373887062073,-9.830592155456543,0.27653029561042786,-0.015172322280704975,0.010381062515079975,0.0031941730994731188
18510498659112,-0.5542576909065247,-9.774328231811523,0.26575639843940735,-0.010114881210029125,0.005589802749454975,-0.003460354171693325
18510499896275,-0.568622887134552,-9.758766174316406,0.2597709000110626,-0.015438503585755825,0.007985432632267475,-0.0031941730994731188
18510501133412,-0.5841852426528931,-9.764751434326172,0.26575639843940735,-0.01836649514734745,0.014373779296875,-0.0005323622026480734
18510502370575,-0.524330198764801,-9.727641105651855,0.24660277366638184,-0.0138414166867733,0.01463996060192585,-0.00452507846057415
18510503607712,-0.5410895943641663,-9.80904483795166,0.26096799969673157,-0.01357523538172245,0.0138414166867733,-0.00452507846057415
18510504844862,-0.5817910432815552,-9.771934509277344,0.29568392038345337,-0.014373779296875,0.01224433071911335,-0.005589802749454975
18510506082012,-0.6045359373092651,-9.762357711791992,0.22026655077934265,-0.0138414166867733,0.010913425125181675,-0.005057440605014563
18510507319175,-0.6009446382522583,-9.769539833068848,0.23702597618103027,-0.01224433071911335,0.010381062515079975,-0.01117960549890995
18510508556300,-0.5734112858772278,-9.801861763000488,0.2885012924671173,-0.015438503585755825,0.012776692397892475,-0.0138414166867733
18510509793462,-0.5626373887062073,-9.804256439208984,0.27054479718208313,-0.0191650390625,0.01703559048473835,-0.008251613937318325
18510511030612,-0.5662286877632141,-9.781511306762695,0.2825157940387726,-0.013042873702943325,0.012776692397892475,-0.0071868896484375
18510512267750,-0.5829881429672241,-9.75158405303955,0.30286651849746704,-0.01410759799182415,0.00931633822619915,-0.0023956298828125
18510513504900,-0.5877765417098999,-9.762357711791992,0.2693476974964142,-0.010647243820130825,0.014906140975654125,-0.007985432632267475
18510514742050,-0.5973533391952515,-9.780314445495605,0.2621650993824005,-0.010114881210029125,0.01357523538172245,-0.008517795242369175
18510515979212,-0.5722141861915588,-9.759963035583496,0.2585738003253937,-0.013042873702943325,0.007985432632267475,-0.007453070487827063
18510517216350,-0.586579442024231,-9.821015357971191,0.29568392038345337,-0.012776692397892475,0.01756795309484005,-0.004791259765625
18510518453500,-0.5710170865058899,-9.817423820495605,0.25258827209472656,-0.010913425125181675,0.02182685025036335,-0.007453070487827063
18510519690637,-0.5662286877632141,-9.789891242980957,0.26815059781074524,-0.0114457868039608,0.01650322787463665,-0.0066545275039970875
18510520927800,-0.5877765417098999,-9.830592155456543,0.2645592987537384,-0.0090501569211483,0.01171196810901165,-0.010381062515079975
18510522164950,-0.569819986820221,-9.813833236694336,0.26575639843940735,-0.010913425125181675,0.012510511092841625,-0.012776692397892475
18510523402100,-0.5817910432815552,-9.818621635437012,0.243011474609375,-0.014373779296875,0.01943122036755085,-0.010913425125181675
18510524639250,-0.5542576909065247,-9.84376049041748,0.2777273952960968,-0.014373779296875,0.02022976242005825,-0.007985432632267475
18510525876400,-0.6153098344802856,-9.821015357971191,0.23582887649536133,-0.010647243820130825,0.0157046839594841,-0.010647243820130825
18510527113525,-0.6093243360519409,-9.854534149169922,0.2693476974964142,-0.012776692397892475,0.0196974016726017,-0.014906140975654125
18510528350700,-0.5949591398239136,-9.836577415466309,0.23343466222286224,-0.015172322280704975,0.01836649514734745,-0.010647243820130825
18510529587850,-0.5734112858772278,-9.824606895446777,0.22266076505184174,-0.01117960549890995,0.012776692397892475,-0.012510511092841625
18510530824987,-0.6045359373092651,-9.821015357971191,0.2454056739807129,-0.01410759799182415,0.0181003138422966,-0.00984870083630085
18510532062125,-0.5817910432815552,-9.877279281616211,0.2693476974964142,-0.01650322787463665,0.0186326764523983,-0.010647243820130825
18510533299287,-0.5374982953071594,-9.798270225524902,0.2717418968677521,-0.010913425125181675,0.0162370465695858,-0.010647243820130825
18510534536437,-0.5746083855628967,-9.782708168029785,0.25737667083740234,-0.01171196810901165,0.014906140975654125,-0.0114457868039608
18510535773587,-0.5817910432815552,-9.770737648010254,0.2513911724090576,-0.015438503585755825,0.01463996060192585,-0.00931633822619915
18510537010737,-0.5315127968788147,-9.813833236694336,0.2561795711517334,-0.0138414166867733,0.0157046839594841,-0.010913425125181675
18510538247875,-0.5291185975074768,-9.744400978088379,0.2801215946674347,-0.010647243820130825,0.01597086526453495,-0.008251613937318325
18510539485012,-0.5183447003364563,-9.761160850524902,0.2717418968677521,-0.005855984054505825,0.01463996060192585,-0.007453070487827063
18510540722187,-0.5063736438751221,-9.768342971801758,0.2693476974964142,-0.0063883461989462376,0.01889885775744915,-0.008251613937318325
18510541959325,-0.5207388997077942,-9.7791166305542,0.27413609623908997,-0.010913425125181675,0.012510511092841625,-0.008783976547420025
18510543196475,-0.568622887134552,-9.762357711791992,0.28730419278144836,-0.010647243820130825,0.0138414166867733,-0.008517795242369175
18510544433625,-0.5590460896492004,-9.746795654296875,0.30286651849746704,-0.0090501569211483,0.01943122036755085,-0.012510511092841625
18510545670762,-0.5027823448181152,-9.761160850524902,0.2585738003253937,-0.0063883461989462376,0.0191650390625,-0.00958251953125
18510546907912,-0.5530605912208557,-9.75158405303955,0.2717418968677521,-0.010381062515079975,0.01783413253724575,-0.010114881210029125
18510548145075,-0.5422866940498352,-9.734824180603027,0.2322375625371933,-0.008251613937318325,0.0162370465695858,-0.013042873702943325
18510549382225,-0.545877993106842,-9.75397777557373,0.30047231912612915,-0.005589802749454975,0.0220930315554142,-0.0114457868039608
18510550619387,-0.5410895943641663,-9.786299705505371,0.29568392038345337,-0.00692070834338665,0.0204959437251091,-0.006122165359556675
18510551856512,-0.5542576909065247,-9.759963035583496,0.2106897532939911,-0.0063883461989462376,0.0167694091796875,-0.0119781494140625
18510553093675,-0.5351040959358215,-9.749189376831055,0.2561795711517334,-0.00452507846057415,0.0191650390625,-0.010647243820130825
18510554330812,-0.568622887134552,-9.774328231811523,0.23942017555236816,-0.0037265352439135313,0.015172322280704975,-0.01224433071911335
18510555567975,-0.5351040959358215,-9.818621635437012,0.2717418968677521,-0.0029279920272529125,0.013042873702943325,-0.012510511092841625
18510556805100,-0.5315127968788147,-9.780314445495605,0.19273324310779572,-0.0053236219100654125,0.01703559048473835,-0.01171196810901165
18510558042262,-0.5219359993934631,-9.798270225524902,0.24181437492370605,-0.004791259765625,0.0220930315554142,-0.0119781494140625
18510559279400,-0.5770025849342346,-9.768342971801758,0.2346317619085312,-0.0018632676219567657,0.015438503585755825,-0.01171196810901165
18510560516575,-0.5638344883918762,-9.797073364257812,0.2106897532939911,-0.0031941730994731188,0.0167694091796875,-0.01117960549890995
18510561753700,-0.5159504413604736,-9.762357711791992,0.2645592987537384,-0.003460354171693325,0.015438503585755825,-0.0157046839594841
18510562990850,-0.5422866940498352,-9.787496566772461,0.2406172752380371,-0.0026618109550327063,0.014373779296875,-0.01357523538172245
18510564228012,-0.5554547905921936,-9.804256439208984,0.2561795711517334,-0.005589802749454975,0.0162370465695858,-0.008783976547420025
18510565465150,-0.5566518902778625,-9.797073364257812,0.26575639843940735,-0.0077192517928779125,0.0162370465695858,-0.01650322787463665
18510566702287,-0.5327098965644836,-9.828198432922363,0.24181437492370605,-0.003460354171693325,0.01650322787463665,-0.0157046839594841
18510567939450,-0.5303156971931458,-9.81143856048584,0.20949265360832214,-0.0053236219100654125,0.01597086526453495,-0.015172322280704975
18510569176600,-0.5578489899635315,-9.84615421295166,0.1951274424791336,-0.004791259765625,0.0191650390625,-0.0114457868039608
18510570413750,-0.5614402890205383,-9.798270225524902,0.2190694510936737,-0.0023956298828125,0.013309055007994175,-0.012776692397892475
18510571650900,-0.5159504413604736,-9.835380554199219,0.2298433631658554,-0.0023956298828125,0.014373779296875,-0.010913425125181675
18510572888037,-0.4920084476470947,-9.823410034179688,0.2322375625371933,-0.0077192517928779125,0.0196974016726017,-0.010647243820130825
18510574125187,-0.4836287498474121,-9.824606895446777,0.21787235140800476,-0.005589802749454975,0.0162370465695858,-0.005057440605014563
18510575362337,-0.4908113479614258,-9.789891242980957,0.18555063009262085,-0.005589802749454975,0.013042873702943325,-0.0063883461989462376
18510576599512,-0.49320554733276367,-9.80904483795166,0.21787235140800476,-0.005589802749454975,0.01650322787463665,-0.00692070834338665
18510577836637,-0.47884035110473633,-9.771934509277344,0.2454056739807129,-0.006122165359556675,0.014906140975654125,-0.0063883461989462376
18510579073787,-0.4776432514190674,-9.759963035583496,0.20949265360832214,-0.005855984054505825,0.01597086526453495,-0.004791259765625
18510580310937,-0.4836287498474121,-9.75278091430664,0.27054479718208313,-0.007985432632267475,0.01756795309484005,-0.0063883461989462376
18510581548087,-0.5159504413604736,-9.759963035583496,0.2537853717803955,-0.003460354171693325,0.013309055007994175,-0.0026618109550327063
18510582785250,-0.524330198764801,-9.716867446899414,0.28969842195510864,-0.004791259765625,0.0119781494140625,-0.0037265352439135313
18510584022387,-0.5195418000221252,-9.712079048156738,0.243011474609375,0.0,0.012776692397892475,-0.004791259765625
18510585259537,-0.5386953949928284,-9.72285270690918,0.2825157940387726,-0.00452507846057415,0.013309055007994175,-0.0010647244052961469
18510586496687,-0.5063736438751221,-9.712079048156738,0.22625206410884857,-0.0026618109550327063,0.01756795309484005,-0.0026618109550327063
18510587733850,-0.545877993106842,-9.72285270690918,0.2214636653661728,0.0005323622026480734,0.012776692397892475,0.0005323622026480734
18510588970987,-0.5159504413604736,-9.713275909423828,0.23702597618103027,-0.0005323622026480734,0.00931633822619915,-0.0018632676219567657
18510590208137,-0.5159504413604736,-9.75397777557373,0.2454056739807129,0.0005323622026480734,0.010114881210029125,-0.003460354171693325
18510591445275,-0.5219359993934631,-9.720458984375,0.21308395266532898,0.0,0.013309055007994175,-0.0010647244052961469
18510592682425,-0.5303156971931458,-9.767146110534668,0.19153614342212677,-0.0077192517928779125,0.0167694091796875,0.0015970865497365594
18510593919587,-0.5363011956214905,-9.791088104248047,0.21667525172233582,-0.0042588976211845875,0.01357523538172245,-0.0029279920272529125
18510595156725,-0.5339069962501526,-9.819818496704102,0.20231004059314728,-0.0029279920272529125,0.01117960549890995,-0.005589802749454975
18510596393875,-0.5530605912208557,-9.847352027893066,0.1388636976480484,-0.005589802749454975,0.0138414166867733,-0.0013309054775163531
18510597631050,-0.5482721924781799,-9.853337287902832,0.16998831927776337,0.0018632676219567657,0.01171196810901165,-0.0015970865497365594
18510598868187,-0.5638344883918762,-9.890447616577148,0.152031809091568,-0.0015970865497365594,0.008251613937318325,-0.0042588976211845875
18510600105337,-0.5291185975074768,-9.880870819091797,0.1711854189634323,-0.007985432632267475,0.010114881210029125,-0.00958251953125
18510601342475,-0.5482721924781799,-9.923966407775879,0.17717093229293823,-0.00692070834338665,0.01836649514734745,-0.00452507846057415
18510602579612,-0.5925649404525757,-9.90241813659668,0.18555063009262085,-0.008783976547420025,0.010913425125181675,-0.0005323622026480734
18510603816762,-0.5877765417098999,-9.919178009033203,0.1604115217924118,-0.005589802749454975,0.00984870083630085,-0.0013309054775163531
18510605053925,-0.5973533391952515,-9.90361499786377,0.1843535304069519,-0.00692070834338665,0.0119781494140625,-0.0010647244052961469
18510606291075,-0.545877993106842,-9.915586471557617,0.16160862147808075,-0.012510511092841625,0.01117960549890995,-0.0005323622026480734
18510607528225,-0.5722141861915588,-9.926360130310059,0.18914192914962769,-0.006122165359556675,0.007453070487827063,0.0026618109550327063
18510608765387,-0.5398924946784973,-9.917980194091797,0.20111294090747833,-0.0090501569211483,0.005855984054505825,0.0018632676219567657
18510610002512,-0.5422866940498352,-9.90361499786377,0.1975216418504715,-0.013309055007994175,0.010114881210029125,-0.0010647244052961469
18510611239662,-0.5231330990791321,-9.93593692779541,0.17717093229293823,-0.0077192517928779125,0.0090501569211483,-0.0013309054775163531
18510612476812,-0.5494692921638489,-9.882067680358887,0.19871874153614044,-0.005057440605014563,0.0002661811013240367,0.0018632676219567657
18510613713962,-0.4596867263317108,-9.861717224121094,0.16639702022075653,-0.0066545275039970875,0.0039927163161337376,0.0015970865497365594
18510614951112,-0.4884171485900879,-9.880870819091797,0.1867477297782898,-0.008517795242369175,0.0063883461989462376,0.0037265352439135313
18510616188275,-0.48243165016174316,-9.897629737854004,0.20350714027881622,-0.010647243820130825,0.006122165359556675,0.00692070834338665
18510617425425,-0.4944026470184326,-9.840168952941895,0.20350714027881622,-0.010114881210029125,0.006122165359556675,0.0039927163161337376
18510618662575,-0.5351040959358215,-9.84495735168457,0.15562310814857483,-0.01783413253724575,0.0053236219100654125,0.0031941730994731188
18510619899700,-0.49799394607543945,-9.81143856048584,0.22744916379451752,-0.01171196810901165,0.006122165359556675,0.0063883461989462376
18510621136862,-0.5003881454467773,-9.80904483795166,0.22505496442317963,-0.010913425125181675,0.0071868896484375,0.007453070487827063
18510622374012,-0.4967968463897705,-9.762357711791992,0.22505496442317963,-0.01597086526453495,0.004791259765625,0.0053236219100654125
18510623611162,-0.5219359993934631,-9.791088104248047,0.17836803197860718,-0.014906140975654125,0.0037265352439135313,0.00692070834338665
18510624848325,-0.5327098965644836,-9.791088104248047,0.23582887649536133,-0.0090501569211483,0.0039927163161337376,0.00931633822619915
18510626085450,-0.5135562419891357,-9.798270225524902,0.21667525172233582,-0.005589802749454975,0.0018632676219567657,0.00692070834338665
18510627322612,-0.524330198764801,-9.767146110534668,0.22266076505184174,-0.0023956298828125,0.0037265352439135313,0.012510511092841625
18510628559750,-0.5410895943641663,-9.789891242980957,0.19153614342212677,-0.010913425125181675,0.003460354171693325,0.013042873702943325
18510629796887,-0.5327098965644836,-9.783905029296875,0.1843535304069519,-0.010381062515079975,0.0029279920272529125,0.008783976547420025
18510631034050,-0.5434837937355042,-9.807847023010254,0.18555063009262085,-0.005589802749454975,0.0010647244052961469,0.00984870083630085
18510632271200,-0.5410895943641663,-9.793481826782227,0.19871874153614044,-0.004791259765625,-0.0023956298828125,0.0077192517928779125
18510633508362,-0.5171476006507874,-9.789891242980957,0.2669534981250763,-0.0021294488105922937,0.0039927163161337376,0.005855984054505825
18510634745500,-0.48482584953308105,-9.794679641723633,0.25258827209472656,-0.0018632676219567657,0.0,0.00692070834338665
18510635982650,-0.4944026470184326,-9.782708168029785,0.1975216418504715,-0.004791259765625,0.0013309054775163531,0.007453070487827063
18510637219800,-0.524330198764801,-9.805453300476074,0.1999158412218094,-0.004791259765625,-0.0039927163161337376,0.006122165359556675
18510638456937,-0.4812345504760742,-9.800664901733398,0.16879121959209442,-0.008517795242369175,-0.005589802749454975,0.00931633822619915
18510639694087,-0.5339069962501526,-9.780314445495605,0.20470423996448517,-0.005855984054505825,-0.0029279920272529125,0.004791259765625
18510640931250,-0.5327098965644836,-9.794679641723633,0.20231004059314728,-0.0066545275039970875,-0.0013309054775163531,0.008783976547420025
18510642168412,-0.5195418000221252,-9.817423820495605,0.16759411990642548,-0.0031941730994731188,0.0007985432748682797,0.008517795242369175
18510643405550,-0.5003881454467773,-9.817423820495605,0.16160862147808075,-0.0007985432748682797,-0.0039927163161337376,0.006122165359556675
18510644642687,-0.5279214978218079,-9.827000617980957,0.23343466222286224,-0.00452507846057415,-0.0023956298828125,0.0007985432748682797
18510645879850,-0.5494692921638489,-9.791088104248047,0.21787235140800476,-0.0029279920272529125,-0.003460354171693325,0.0039927163161337376
18510647116987,-0.5303156971931458,-9.77552604675293,0.22026655077934265,-0.0018632676219567657,-0.0042588976211845875,0.0
18510648354137,-0.5267243981361389,-9.797073364257812,0.20350714027881622,-0.008783976547420025,-0.0029279920272529125,-0.0039927163161337376
18510649591300,-0.5051765441894531,-9.770737648010254,0.20231004059314728,-0.005057440605014563,-0.0042588976211845875,-0.008517795242369175
18510650828437,-0.5554547905921936,-9.767146110534668,0.25498247146606445,0.0005323622026480734,-0.00452507846057415,-0.00692070834338665
18510652065587,-0.5051765441894531,-9.759963035583496,0.25498247146606445,0.0029279920272529125,-0.00452507846057415,-0.0026618109550327063
18510653302750,-0.48602294921875,-9.75278091430664,0.23582887649536133,-0.0010647244052961469,-0.005589802749454975,-0.0007985432748682797
18510654539887,-0.545877993106842,-9.759963035583496,0.243011474609375,-0.0002661811013240367,-0.005855984054505825,-0.0114457868039608
18510655777037,-0.5183447003364563,-9.768342971801758,0.21547815203666687,0.0015970865497365594,-0.0066545275039970875,-0.010913425125181675
18510657014187,-0.5039794445037842,-9.75517463684082,0.2801215946674347,0.0015970865497365594,-0.01117960549890995,-0.0071868896484375
18510658251325,-0.49799394607543945,-9.773131370544434,0.2753331959247589,0.005057440605014563,-0.005855984054505825,-0.007985432632267475
18510659488475,-0.4967968463897705,-9.770737648010254,0.24181437492370605,0.005589802749454975,-0.0053236219100654125,-0.010913425125181675
18510660725625,-0.4776432514190674,-9.757569313049316,0.2597709000110626,0.0029279920272529125,-0.008251613937318325,-0.008783976547420025
18510661962775,-0.50876784324646,-9.712079048156738,0.1999158412218094,0.0037265352439135313,-0.0066545275039970875,-0.010114881210029125
18510663199950,-0.4944026470184326,-9.706093788146973,0.21308395266532898,0.007985432632267475,-0.01357523538172245,-0.007453070487827063
18510664437100,-0.507570743560791,-9.77552604675293,0.20350714027881622,0.008251613937318325,-0.010913425125181675,-0.012510511092841625
18510665674250,-0.50876784324646,-9.761160850524902,0.2214636653661728,0.00692070834338665,-0.007985432632267475,-0.013042873702943325
18510666911400,-0.5578489899635315,-9.77791976928711,0.2777273952960968,0.012510511092841625,-0.01117960549890995,-0.013042873702943325
18510668148550,-0.5374982953071594,-9.75397777557373,0.23582887649536133,0.013042873702943325,-0.00958251953125,-0.01171196810901165
18510669385675,-0.524330198764801,-9.762357711791992,0.22625206410884857,0.01357523538172245,-0.014373779296875,-0.010913425125181675
18510670622812,-0.5147533416748047,-9.768342971801758,0.23822307586669922,0.01597086526453495,-0.007453070487827063,-0.014373779296875
18510671859975,-0.5590460896492004,-9.768342971801758,0.22266076505184174,0.01597086526453495,-0.010381062515079975,-0.00984870083630085
18510673097125,-0.5410895943641663,-9.761160850524902,0.22864626348018646,0.01889885775744915,-0.01171196810901165,-0.0119781494140625
18510674334287,-0.5327098965644836,-9.77791976928711,0.24899697303771973,0.01756795309484005,-0.013309055007994175,-0.014373779296875
18510675571425,-0.5291185975074768,-9.773131370544434,0.22625206410884857,0.0162370465695858,-0.01171196810901165,-0.00958251953125
18510676808575,-0.5315127968788147,-9.823410034179688,0.23702597618103027,0.02076212503015995,-0.01171196810901165,-0.013042873702943325
18510678045712,-0.5386953949928284,-9.819818496704102,0.2190694510936737,0.02022976242005825,-0.01463996060192585,-0.010381062515079975
18510679282887,-0.5291185975074768,-9.801861763000488,0.2346317619085312,0.01756795309484005,-0.01943122036755085,-0.01224433071911335
18510680520025,-0.4596867263317108,-9.84256362915039,0.2059013545513153,0.02022976242005825,-0.010913425125181675,-0.012510511092841625
18510681757175,-0.46806642413139343,-9.800664901733398,0.19393034279346466,0.01650322787463665,-0.00692070834338665,-0.0162370465695858
18510682994325,-0.46567222476005554,-9.794679641723633,0.21308395266532898,0.0157046839594841,-0.0039927163161337376,-0.012510511092841625
18510684231462,-0.5051765441894531,-9.75278091430664,0.2406172752380371,0.0263519287109375,-0.010647243820130825,-0.0138414166867733
18510685468612,-0.5147533416748047,-9.730035781860352,0.23343466222286224,0.02315775491297245,-0.0181003138422966,-0.01597086526453495
18510686705775,-0.5015852451324463,-9.701305389404297,0.26815059781074524,0.02555338479578495,-0.0181003138422966,-0.013309055007994175
18510687942925,-0.46806642413139343,-9.727641105651855,0.29807811975479126,0.02608574740588665,-0.01756795309484005,-0.0138414166867733
18510689180062,-0.5063736438751221,-9.690531730651855,0.23942017555236816,0.0252872034907341,-0.02182685025036335,-0.00958251953125
18510690417212,-0.48482584953308105,-9.6989107131958,0.2513911724090576,0.0228915736079216,-0.01357523538172245,-0.01357523538172245
18510691654375,-0.5518634915351868,-9.730035781860352,0.27892449498176575,0.0295461006462574,-0.01597086526453495,-0.010913425125181675
18510692891525,-0.5410895943641663,-9.694122314453125,0.24660277366638184,0.03087700717151165,-0.0181003138422966,-0.0090501569211483
18510694128662,-0.5662286877632141,-9.700108528137207,0.2777273952960968,0.0268842913210392,-0.01597086526453495,-0.00931633822619915
18510695365825,-0.5063736438751221,-9.678560256958008,0.22505496442317963,0.02848137728869915,-0.01943122036755085,-0.015172322280704975
18510696602950,-0.547075092792511,-9.683348655700684,0.2214636653661728,0.02874755859375,-0.01650322787463665,-0.0138414166867733
18510697840100,-0.49320554733276367,-9.734824180603027,0.22864626348018646,0.02981228195130825,-0.014906140975654125,-0.00958251953125
18510699077250,-0.4596867263317108,-9.736021041870117,0.2537853717803955,0.033272635191679,-0.0181003138422966,-0.01117960549890995
18510700314412,-0.5123591423034668,-9.714473724365234,0.19153614342212677,0.0324740931391716,-0.01889885775744915,-0.00958251953125
18510701551550,-0.5422866940498352,-9.727641105651855,0.22385786473751068,0.0311431884765625,-0.014373779296875,-0.010381062515079975
18510702788712,-0.4489128291606903,-9.730035781860352,0.21188685297966003,0.0319417305290699,-0.01650322787463665,-0.005589802749454975
18510704025862,-0.4644751250743866,-9.725247383117676,0.19393034279346466,0.0324740931391716,-0.0234239362180233,-0.0053236219100654125
18510705263012,-0.5279214978218079,-9.739612579345703,0.17477671802043915,0.0316755510866642,-0.02076212503015995,-0.0010647244052961469
18510706500150,-0.5063736438751221,-9.803058624267578,0.21667525172233582,0.0377977155148983,-0.01889885775744915,-0.003460354171693325
18510707737312,-0.5027823448181152,-9.769539833068848,0.2513911724090576,0.033272635191679,-0.01597086526453495,-0.008783976547420025
18510708974450,-0.5099649429321289,-9.813833236694336,0.22744916379451752,0.0330064557492733,-0.01943122036755085,-0.013042873702943325
18510710211612,-0.5195418000221252,-9.828198432922363,0.2861070930957794,0.02901373989880085,-0.01650322787463665,-0.010647243820130825
18510711448762,-0.5291185975074768,-9.853337287902832,0.2561795711517334,0.02901373989880085,-0.014906140975654125,-0.010913425125181675
18510712685900,-0.49320554733276367,-9.87967300415039,0.2693476974964142,0.0412580706179142,-0.0196974016726017,-0.0021294488105922937
18510713923050,-0.5111620426177979,-9.873687744140625,0.2513911724090576,0.02901373989880085,-0.0162370465695858,0.0002661811013240367
18510715160200,-0.5722141861915588,-9.861717224121094,0.2669534981250763,0.03087700717151165,-0.01943122036755085,-0.00452507846057415
18510716397350,-0.547075092792511,-9.836577415466309,0.272938996553421,0.0348697230219841,-0.0186326764523983,-0.0039927163161337376
18510717634512,-0.5710170865058899,-9.873687744140625,0.2932897210121155,0.0327402763068676,-0.01410759799182415,-0.003460354171693325
18510718871662,-0.5590460896492004,-9.876082420349121,0.25258827209472656,0.02848137728869915,-0.01171196810901165,-0.0063883461989462376
18510720108800,-0.5111620426177979,-9.822212219238281,0.27413609623908997,0.0271504707634449,-0.01783413253724575,-0.005589802749454975
18510721345975,-0.5506663918495178,-9.818621635437012,0.26575639843940735,0.0276828333735466,-0.023956298828125,-0.00984870083630085
18510722583112,-0.4967968463897705,-9.84495735168457,0.3208230435848236,0.0247548408806324,-0.01836649514734745,-0.008251613937318325
18510723820262,-0.5363011956214905,-9.840168952941895,0.2621650993824005,0.0228915736079216,-0.0210283063352108,-0.0066545275039970875
18510725057400,-0.524330198764801,-9.836577415466309,0.27892449498176575,0.0247548408806324,-0.01996358297765255,0.0015970865497365594
18510726294550,-0.5111620426177979,-9.823410034179688,0.28131869435310364,0.02262539230287075,-0.01650322787463665,-0.0037265352439135313
18510727531712,-0.4812345504760742,-9.807847023010254,0.2825157940387726,0.0244886614382267,-0.01650322787463665,-0.005057440605014563
18510728768850,-0.48482584953308105,-9.77791976928711,0.24420857429504395,0.02555338479578495,-0.01836649514734745,-0.00452507846057415
18510730006000,-0.50876784324646,-9.793481826782227,0.2968810200691223,0.02129448764026165,-0.01703559048473835,-0.0026618109550327063
18510731243150,-0.5434837937355042,-9.832986831665039,0.2801215946674347,0.02262539230287075,-0.015172322280704975,-0.0039927163161337376
18510732480300,-0.5099649429321289,-9.815030097961426,0.28730419278144836,0.0247548408806324,-0.0210283063352108,-0.0037265352439135313
18510733717450,-0.5327098965644836,-9.805453300476074,0.22625206410884857,0.0247548408806324,-0.0157046839594841,-0.0042588976211845875
18510734954600,-0.5805939435958862,-9.853337287902832,0.26096799969673157,0.0210283063352108,-0.008517795242369175,-0.0023956298828125
18510736191762,-0.5578489899635315,-9.848548889160156,0.24899697303771973,0.02369011752307415,-0.01410759799182415,0.0018632676219567657
18510737428900,-0.5614402890205383,-9.883264541625977,0.2693476974964142,0.0268842913210392,-0.0138414166867733,0.0005323622026480734
18510738666062,-0.5722141861915588,-9.873687744140625,0.2645592987537384,0.02262539230287075,-0.01703559048473835,0.0010647244052961469
18510739903200,-0.5566518902778625,-9.86650562286377,0.29209262132644653,0.01996358297765255,-0.0138414166867733,-0.0053236219100654125
18510741140350,-0.5590460896492004,-9.880870819091797,0.2585738003253937,0.01463996060192585,-0.012776692397892475,-0.005855984054505825
18510742377500,-0.5147533416748047,-9.90241813659668,0.2908955216407776,0.0196974016726017,-0.014373779296875,-0.0031941730994731188
18510743614637,-0.5374982953071594,-9.898826599121094,0.26096799969673157,0.0181003138422966,-0.0138414166867733,0.0010647244052961469
18510744851812,-0.5279214978218079,-9.890447616577148,0.2298433631658554,0.01889885775744915,-0.010647243820130825,0.0015970865497365594
18510746088950,-0.507570743560791,-9.861717224121094,0.272938996553421,0.01943122036755085,-0.01224433071911335,-0.0007985432748682797
18510747326125,-0.4944026470184326,-9.8784761428833,0.2932897210121155,0.0204959437251091,-0.01889885775744915,-0.0002661811013240367
18510748563237,-0.46567222476005554,-9.856928825378418,0.29568392038345337,0.014373779296875,-0.0181003138422966,-0.00931633822619915
18510749800400,-0.48961424827575684,-9.830592155456543,0.25737667083740234,0.01783413253724575,-0.0119781494140625,-0.00692070834338665
18510751037550,-0.5219359993934631,-9.821015357971191,0.2885012924671173,0.0204959437251091,-0.01783413253724575,-0.00452507846057415
18510752274725,-0.4920084476470947,-9.758766174316406,0.2753331959247589,0.0186326764523983,-0.013042873702943325,-0.004791259765625
18510753511850,-0.4920084476470947,-9.75397777557373,0.26815059781074524,0.02076212503015995,-0.012510511092841625,-0.0021294488105922937
18510754748975,-0.524330198764801,-9.749189376831055,0.3016694188117981,0.0167694091796875,-0.01117960549890995,0.0002661811013240367
18510755986150,-0.5315127968788147,-9.770737648010254,0.2944868206977844,0.014373779296875,-0.015172322280704975,-0.0031941730994731188
18510757223275,-0.5123591423034668,-9.770737648010254,0.32441434264183044,0.015438503585755825,-0.015172322280704975,-0.0037265352439135313
18510758460437,-0.5482721924781799,-9.747992515563965,0.3076549172401428,0.02129448764026165,-0.0204959437251091,-0.0042588976211845875
18510759697600,-0.5434837937355042,-9.780314445495605,0.30526071786880493,0.0247548408806324,-0.01703559048473835,0.0007985432748682797
18510760934750,-0.4967968463897705,-9.77791976928711,0.32202014327049255,0.0181003138422966,-0.01463996060192585,0.0005323622026480734
18510762171912,-0.5207388997077942,-9.795876502990723,0.2992752194404602,0.0186326764523983,-0.013042873702943325,-0.003460354171693325
18510763409050,-0.5410895943641663,-9.799468040466309,0.3064578175544739,0.013309055007994175,-0.010381062515079975,0.003460354171693325
18510764646200,-0.4704606235027313,-9.831789016723633,0.27413609623908997,0.01117960549890995,-0.01650322787463665,0.005057440605014563
18510765883337,-0.48961424827575684,-9.860519409179688,0.24779987335205078,0.0196974016726017,-0.0114457868039608,0.0013309054775163531
18510767120500,-0.48961424827575684,-9.908403396606445,0.2669534981250763,0.0210283063352108,-0.00958251953125,0.0037265352439135313
18510768357637,-0.5554547905921936,-9.854534149169922,0.26096799969673157,0.01650322787463665,-0.0119781494140625,0.0005323622026480734
18510769594800,-0.48243165016174316,-9.915586471557617,0.2406172752380371,0.01783413253724575,-0.014373779296875,0.0023956298828125
18510770831962,-0.4728548526763916,-9.886856079101562,0.26096799969673157,0.015172322280704975,-0.012776692397892475,0.006122165359556675
18510772069100,-0.5123591423034668,-9.921571731567383,0.2190694510936737,0.02022976242005825,-0.01357523538172245,0.0005323622026480734
18510773306250,-0.5231330990791321,-9.9586820602417,0.28131869435310364,0.0215606689453125,-0.0157046839594841,0.0042588976211845875
18510774543400,-0.49559974670410156,-9.951498985290527,0.29568392038345337,0.02369011752307415,-0.0114457868039608,0.008517795242369175
18510775780537,-0.41778820753097534,-9.946710586547852,0.2801215946674347,0.0167694091796875,-0.00931633822619915,0.007985432632267475
18510777017700,-0.5135562419891357,-9.913191795349121,0.2513911724090576,0.0220930315554142,-0.01357523538172245,0.008783976547420025
18510778254850,-0.48722004890441895,-9.945513725280762,0.30286651849746704,0.0204959437251091,-0.01703559048473835,0.010913425125181675
18510779491987,-0.5171476006507874,-9.911994934082031,0.3124433159828186,0.01650322787463665,-0.01836649514734745,0.007453070487827063
18510780729150,-0.5027823448181152,-9.922768592834473,0.29807811975479126,0.01410759799182415,-0.0191650390625,0.00452507846057415
18510781966300,-0.44771572947502136,-9.941922187805176,0.3124433159828186,0.013042873702943325,-0.01357523538172245,0.007453070487827063
18510783203437,-0.4620809257030487,-9.964667320251465,0.35075056552886963,0.0162370465695858,-0.0173017717897892,0.013309055007994175
18510784440587,-0.4357447028160095,-9.99220085144043,0.3315969407558441,0.0173017717897892,-0.02182685025036335,0.008251613937318325
18510785677750,-0.48243165016174316,-9.951498985290527,0.2777273952960968,0.015438503585755825,-0.0223592109978199,0.0071868896484375
18510786914900,-0.44771572947502136,-9.962273597717285,0.3148375153541565,0.014373779296875,-0.0223592109978199,0.00931633822619915
18510788152050,-0.4381389021873474,-10.020931243896484,0.32680854201316833,0.00931633822619915,-0.0181003138422966,0.0090501569211483
18510789389187,-0.42616790533065796,-10.031704902648926,0.2825157940387726,0.0063883461989462376,-0.0247548408806324,0.003460354171693325
18510790626350,-0.4429273307323456,-10.070012092590332,0.24420857429504395,0.010114881210029125,-0.0220930315554142,0.004791259765625
18510791863487,-0.45250412821769714,-10.08437728881836,0.25019407272338867,0.0071868896484375,-0.02555338479578495,0.00452507846057415
18510793100625,-0.4537012279033661,-10.091560363769531,0.2885012924671173,0.0010647244052961469,-0.02422248013317585,0.00692070834338665
18510794337800,-0.4513070285320282,-10.156203269958496,0.30286651849746704,-0.0005323622026480734,-0.023956298828125,0.0042588976211845875
18510795574950,-0.4620809257030487,-10.187328338623047,0.31124621629714966,-0.0002661811013240367,-0.0247548408806324,0.0010647244052961469
18510796812087,-0.48722004890441895,-10.196905136108398,0.3531447649002075,-0.0053236219100654125,-0.0258195661008358,-0.00692070834338665
18510798049237,-0.456095427274704,-10.159794807434082,0.3531447649002075,-0.0053236219100654125,-0.0311431884765625,-0.0007985432748682797
18510799286400,-0.49320554733276367,-10.181343078613281,0.34596213698387146,-0.01117960549890995,-0.0316755510866642,-0.0007985432748682797
18510800523550,-0.47405195236206055,-10.156203269958496,0.38905778527259827,-0.01703559048473835,-0.03087700717151165,-0.0090501569211483
18510801760700,-0.46327802538871765,-10.152612686157227,0.39624038338661194,-0.01996358297765255,-0.0300784632563591,-0.010647243820130825
18510802997850,-0.4752490520477295,-10.177751541137695,0.35913026332855225,-0.02661811001598835,-0.0354020856320858,-0.01117960549890995
18510804234975,-0.47644615173339844,-10.105925559997559,0.3387795388698578,-0.0324740931391716,-0.033538818359375,-0.0138414166867733
18510805472162,-0.4704606235027313,-10.091560363769531,0.3627215623855591,-0.02608574740588665,-0.0340711809694767,-0.01943122036755085
18510806709287,-0.3878606855869293,-10.109517097473145,0.3256114423274994,-0.0330064557492733,-0.0415242500603199,-0.0181003138422966
18510807946450,-0.395043283700943,-10.109517097473145,0.363918662071228,-0.0375315360724926,-0.0423227921128273,-0.01996358297765255
18510809183600,-0.4141969084739685,-10.087968826293945,0.3687070608139038,-0.0356682650744915,-0.0391286201775074,-0.02555338479578495
18510810420762,-0.3878606855869293,-10.075998306274414,0.33279404044151306,-0.0407257080078125,-0.0377977155148983,-0.02981228195130825
18510811657912,-0.4058171808719635,-10.079588890075684,0.3411737382411957,-0.042855154722929,-0.0433875173330307,-0.02608574740588665
18510812895050,-0.40222588181495667,-10.068815231323242,0.3423708379268646,-0.0489773228764534,-0.0439198799431324,-0.02502102218568325
18510814132200,-0.4058171808719635,-10.02332592010498,0.38067808747291565,-0.0550994873046875,-0.0465816929936409,-0.0322079136967659
18510815369350,-0.41539400815963745,-10.000580787658691,0.35434186458587646,-0.0543009415268898,-0.0420566126704216,-0.0343373604118824
18510816606487,-0.395043283700943,-10.010157585144043,0.3579331636428833,-0.0558980293571949,-0.0460493303835392,-0.0348697230219841
18510817843662,-0.41299980878829956,-9.986215591430664,0.4405331015586853,-0.0561642125248909,-0.0487111397087574,-0.033538818359375
18510819080800,-0.41299980878829956,-9.982624053955078,0.4213795065879822,-0.0604231096804142,-0.0511067695915699,-0.038063894957304
18510820317937,-0.46088382601737976,-10.006566047668457,0.3794809579849243,-0.0596245639026165,-0.0574951171875,-0.043121337890625
18510821555112,-0.4405331015586853,-9.971850395202637,0.40222588181495667,-0.0625525563955307,-0.0582936592400074,-0.0399271659553051
18510822792262,-0.45250412821769714,-9.939528465270996,0.41539400815963745,-0.0700056254863739,-0.0580274797976017,-0.04791259765625
18510824029387,-0.42616790533065796,-9.974244117736816,0.45250412821769714,-0.066545270383358,-0.057228934019804,-0.0460493303835392
18510825266562,-0.42616790533065796,-9.932345390319824,0.395043283700943,-0.0731998011469841,-0.0577612966299057,-0.0457831472158432
18510826503687,-0.41778820753097534,-9.940725326538086,0.3770867586135864,-0.0745307058095932,-0.0585598424077034,-0.0521714948117733
18510827740837,-0.4010287821292877,-9.93593692779541,0.3902548849582672,-0.0753292515873909,-0.0625525563955307,-0.0492435023188591
18510828977987,-0.39384618401527405,-9.93354320526123,0.4189853072166443,-0.0745307058095932,-0.0646820068359375,-0.0503082275390625
18510830215150,-0.3974374830722809,-9.928754806518555,0.41060560941696167,-0.0750630721449852,-0.0657467320561409,-0.0492435023188591
18510831452300,-0.38067808747291565,-9.93354320526123,0.34596213698387146,-0.0787896066904068,-0.0686747208237648,-0.0505744069814682
18510832689462,-0.363918662071228,-9.861717224121094,0.3603273630142212,-0.0819837749004364,-0.0662790909409523,-0.0519053116440773
18510833926612,-0.4225766062736511,-9.865307807922363,0.3363853394985199,-0.0793219655752182,-0.0673438161611557,-0.047646414488554
18510835163750,-0.40462008118629456,-9.883264541625977,0.3878606855869293,-0.0827823206782341,-0.0771925151348114,-0.0495096817612648
18510836400900,-0.43694180250167847,-9.910798072814941,0.43095630407333374,-0.0859764963388443,-0.0745307058095932,-0.0508405901491642
18510837638062,-0.395043283700943,-9.86770248413086,0.38307228684425354,-0.0889044851064682,-0.0726674422621727,-0.052703857421875
18510838875200,-0.3758896589279175,-9.889249801635742,0.37229835987091064,-0.085710309445858,-0.0779910609126091,-0.0505744069814682
18510840112337,-0.41539400815963745,-9.835380554199219,0.36990416049957275,-0.0825161412358284,-0.0811852365732193,-0.052703857421875
18510841349500,-0.41778820753097534,-9.813833236694336,0.39384618401527405,-0.0825161412358284,-0.0787896066904068,-0.0471140518784523
18510842586662,-0.46327802538871765,-9.84495735168457,0.4118027091026306,-0.0849117711186409,-0.0801205113530159,-0.0465816929936409
18510843823800,-0.4321534037590027,-9.816226959228516,0.3878606855869293,-0.0915662944316864,-0.080919049680233,-0.0500420443713665
18510845060950,-0.4429273307323456,-9.830592155456543,0.3579331636428833,-0.0859764963388443,-0.085710309445858,-0.0452507846057415
18510846298112,-0.4944026470184326,-9.840168952941895,0.4058171808719635,-0.0835808664560318,-0.0827823206782341,-0.0465816929936409
18510847535262,-0.49320554733276367,-9.80904483795166,0.3902548849582672,-0.0899692103266716,-0.0827823206782341,-0.047646414488554
18510848772412,-0.4405331015586853,-9.81263542175293,0.3926490843296051,-0.0875735804438591,-0.0825161412358284,-0.0444522425532341
18510850009562,-0.45250412821769714,-9.807847023010254,0.3603273630142212,-0.0873074010014534,-0.0822499617934227,-0.0468478724360466
18510851246700,-0.4297592043876648,-9.765949249267578,0.33279404044151306,-0.0870412141084671,-0.0897030308842659,-0.0468478724360466
18510852483850,-0.45010992884635925,-9.817423820495605,0.3423708379268646,-0.090501569211483,-0.0897030308842659,-0.0420566126704216
18510853721000,-0.4441244304180145,-9.81024169921875,0.36152446269989014,-0.0902353897690773,-0.0854441300034523,-0.047646414488554
18510854958150,-0.4441244304180145,-9.793481826782227,0.365115761756897,-0.0891706645488739,-0.0899692103266716,-0.0513729527592659
18510856195287,-0.4357447028160095,-9.794679641723633,0.3423708379268646,-0.0899692103266716,-0.091033935546875,-0.0452507846057415
18510857432450,-0.47884035110473633,-9.764751434326172,0.363918662071228,-0.0886383056640625,-0.0886383056640625,-0.0399271659553051
18510858669600,-0.44173023104667664,-9.767146110534668,0.3687070608139038,-0.0883721262216568,-0.0878397598862648,-0.0441860631108284
18510859906750,-0.45489832758903503,-9.77791976928711,0.36990416049957275,-0.0873074010014534,-0.0915662944316864,-0.0463155098259449
18510861143900,-0.41539400815963745,-9.750386238098145,0.3866635859012604,-0.0854441300034523,-0.0982208251953125,-0.0417904332280159
18510862381050,-0.4812345504760742,-9.736021041870117,0.3711012601852417,-0.0894368439912796,-0.0976884588599205,-0.043121337890625
18510863618187,-0.48482584953308105,-9.7420072555542,0.40940847992897034,-0.0870412141084671,-0.0931633859872818,-0.0404595248401165
18510864855350,-0.5015852451324463,-9.75158405303955,0.3627215623855591,-0.0843794047832489,-0.0936957448720932,-0.0388624407351017
18510866092487,-0.5363011956214905,-9.745597839355469,0.41060560941696167,-0.0827823206782341,-0.090501569211483,-0.04791259765625
18510867329650,-0.4812345504760742,-9.728838920593262,0.39145198464393616,-0.0827823206782341,-0.0939619243144989,-0.0356682650744915
18510868566800,-0.48961424827575684,-9.767146110534668,0.3519476652145386,-0.0849117711186409,-0.0990193635225296,-0.0282151959836483
18510869803950,-0.4884171485900879,-9.726444244384766,0.33039984107017517,-0.0803866907954216,-0.0960913747549057,-0.0311431884765625
18510871041087,-0.5303156971931458,-9.733627319335938,0.3423708379268646,-0.0795881450176239,-0.0928971990942955,-0.02901373989880085
18510872278262,-0.5111620426177979,-9.773131370544434,0.30526071786880493,-0.0734659805893898,-0.0974222794175148,-0.0276828333735466
18510873515400,-0.5159504413604736,-9.734824180603027,0.30885201692581177,-0.0755954310297966,-0.0942281037569046,-0.0306108258664608
18510874752550,-0.5386953949928284,-9.737218856811523,0.25737667083740234,-0.0817175954580307,-0.0859764963388443,-0.02981228195130825
18510875989700,-0.5339069962501526,-9.756372451782227,0.30286651849746704,-0.081451416015625,-0.090501569211483,-0.0300784632563591
18510877226850,-0.5494692921638489,-9.758766174316406,0.31124621629714966,-0.0798543319106102,-0.0947604700922966,-0.0247548408806324
18510878464000,-0.6105214357376099,-9.72165584564209,0.2585738003253937,-0.0739983469247818,-0.0950266495347023,-0.02555338479578495
18510879701150,-0.6248866319656372,-9.730035781860352,0.31842881441116333,-0.0729336217045784,-0.0944942906498909,-0.0247548408806324
18510880938300,-0.5913678407669067,-9.747992515563965,0.28371289372444153,-0.0755954310297966,-0.0966237336397171,-0.023956298828125
18510882175450,-0.5770025849342346,-9.706093788146973,0.27892449498176575,-0.076127789914608,-0.0934295654296875,-0.0244886614382267
18510883412600,-0.5937620401382446,-9.6989107131958,0.31603461503982544,-0.0745307058095932,-0.0931633859872818,-0.0191650390625
18510884649750,-0.5315127968788147,-9.728838920593262,0.3148375153541565,-0.0702718123793602,-0.0931633859872818,-0.01783413253724575
18510885886900,-0.5961562395095825,-9.75517463684082,0.3280056416988373,-0.0724012553691864,-0.0902353897690773,-0.0191650390625
18510887124050,-0.5973533391952515,-9.72165584564209,0.3315969407558441,-0.0747968852519989,-0.0854441300034523,-0.0186326764523983
18510888361212,-0.5793968439102173,-9.682151794433594,0.3208230435848236,-0.0747968852519989,-0.085710309445858,-0.02315775491297245
18510889598337,-0.5614402890205383,-9.767146110534668,0.25258827209472656,-0.0689409002661705,-0.0846455842256546,-0.02076212503015995
18510890835500,-0.5602431893348694,-9.730035781860352,0.2932897210121155,-0.0726674422621727,-0.0830485001206398,-0.01943122036755085
18510892072650,-0.6045359373092651,-9.739612579345703,0.2932897210121155,-0.0700056254863739,-0.0841132253408432,-0.012776692397892475
18510893309800,-0.5734112858772278,-9.737218856811523,0.23942017555236816,-0.066545270383358,-0.0827823206782341,-0.01171196810901165
18510894546950,-0.5829881429672241,-9.763554573059082,0.2561795711517334,-0.0654805526137352,-0.0806528702378273,-0.013042873702943325
18510895784112,-0.586579442024231,-9.733627319335938,0.2585738003253937,-0.0652143657207489,-0.0854441300034523,-0.015438503585755825
18510897021262,-0.6009446382522583,-9.782708168029785,0.27892449498176575,-0.066545270383358,-0.0771925151348114,-0.015172322280704975
18510898258400,-0.6236895322799683,-9.782708168029785,0.2825157940387726,-0.0660129114985466,-0.076127789914608,-0.0173017717897892
18510899495550,-0.606930136680603,-9.770737648010254,0.27054479718208313,-0.0614878311753273,-0.0790557861328125,-0.0114457868039608
18510900732700,-0.5949591398239136,-9.762357711791992,0.2597709000110626,-0.0633511021733284,-0.080919049680233,-0.0167694091796875
18510901969862,-0.6260837316513062,-9.7791166305542,0.28969842195510864,-0.06707763671875,-0.0745307058095932,-0.01996358297765255
18510903207000,-0.5746083855628967,-9.75278091430664,0.2406172752380371,-0.0652143657207489,-0.0710703507065773,-0.010114881210029125
18510904444162,-0.608127236366272,-9.770737648010254,0.22864626348018646,-0.0652143657207489,-0.0702718123793602,-0.010913425125181675
18510905681325,-0.585382342338562,-9.771934509277344,0.272938996553421,-0.0617540143430233,-0.0654805526137352,-0.0167694091796875
18510906918450,-0.5925649404525757,-9.793481826782227,0.2322375625371933,-0.0684085413813591,-0.0590922012925148,-0.02076212503015995
18510908155600,-0.6117185354232788,-9.75158405303955,0.21787235140800476,-0.0678761824965477,-0.0604231096804142,-0.0196974016726017
18510909392750,-0.5793968439102173,-9.75278091430664,0.24779987335205078,-0.0668114572763443,-0.0614878311753273,-0.0204959437251091
18510910629912,-0.6009446382522583,-9.768342971801758,0.2861070930957794,-0.0646820068359375,-0.0596245639026165,-0.013309055007994175
18510911867062,-0.6033388376235962,-9.822212219238281,0.28371289372444153,-0.0614878311753273,-0.0585598424077034,-0.0138414166867733
18510913104200,-0.5889736413955688,-9.781511306762695,0.22864626348018646,-0.0590922012925148,-0.0543009415268898,-0.010114881210029125
18510914341350,-0.5913678407669067,-9.774328231811523,0.23582887649536133,-0.0577612966299057,-0.0511067695915699,-0.012776692397892475
18510915578512,-0.5997475385665894,-9.763554573059082,0.2298433631658554,-0.0633511021733284,-0.0495096817612648,-0.0186326764523983
18510916815662,-0.608127236366272,-9.763554573059082,0.23702597618103027,-0.0580274797976017,-0.0457831472158432,-0.01410759799182415
18510918052812,-0.6200982332229614,-9.762357711791992,0.25019407272338867,-0.0545671246945858,-0.0468478724360466,-0.01597086526453495
18510919289950,-0.6500257849693298,-9.787496566772461,0.25498247146606445,-0.0558980293571949,-0.047646414488554,-0.0114457868039608
18510920527112,-0.6440402865409851,-9.793481826782227,0.20111294090747833,-0.0617540143430233,-0.0463155098259449,-0.014373779296875
18510921764262,-0.6572083830833435,-9.822212219238281,0.22625206410884857,-0.0609554722905159,-0.0417904332280159,-0.0138414166867733
18510923001400,-0.6141127347946167,-9.829395294189453,0.22625206410884857,-0.0564303919672966,-0.038330078125,-0.00958251953125
18510924238562,-0.629675030708313,-9.81263542175293,0.22266076505184174,-0.052437674254179,-0.0354020856320858,-0.0138414166867733
18510925475712,-0.6763619780540466,-9.840168952941895,0.21547815203666687,-0.0516391322016716,-0.0314093679189682,-0.014373779296875
18510926712862,-0.6416460871696472,-9.763554573059082,0.20709845423698425,-0.052703857421875,-0.02848137728869915,-0.012510511092841625
18510927950012,-0.6308721303939819,-9.732430458068848,0.24420857429504395,-0.0521714948117733,-0.0295461006462574,-0.012776692397892475
18510929187175,-0.667982280254364,-9.771934509277344,0.2621650993824005,-0.0484449602663517,-0.02741665206849575,-0.013309055007994175
18510930424312,-0.6093243360519409,-9.734824180603027,0.2597709000110626,-0.0492435023188591,-0.02661811001598835,-0.00958251953125
18510931661462,-0.6404489874839783,-9.697713851928711,0.2190694510936737,-0.0481787770986557,-0.0271504707634449,-0.0071868896484375
18510932898612,-0.6560112833976746,-9.75397777557373,0.21308395266532898,-0.0471140518784523,-0.02315775491297245,-0.010647243820130825
18510934135762,-0.6727706789970398,-9.771934509277344,0.20350714027881622,-0.0449846051633358,-0.0204959437251091,-0.0119781494140625
18510935372887,-0.6488286852836609,-9.720458984375,0.18555063009262085,-0.0495096817612648,-0.0167694091796875,-0.010647243820130825
18510936610050,-0.6224924325942993,-9.768342971801758,0.1759738326072693,-0.0457831472158432,-0.014373779296875,-0.007985432632267475
18510937847200,-0.6584054827690125,-9.764751434326172,0.12689268589019775,-0.0401933453977108,-0.010114881210029125,-0.012510511092841625
18510939084375,-0.6500257849693298,-9.771934509277344,0.181959331035614,-0.0420566126704216,-0.01171196810901165,-0.0114457868039608
18510940321512,-0.6332663297653198,-9.7420072555542,0.18794482946395874,-0.0460493303835392,-0.014906140975654125,-0.00452507846057415
18510941558675,-0.6380547285079956,-9.77672290802002,0.16160862147808075,-0.0447184219956398,-0.0114457868039608,-0.007453070487827063
18510942795812,-0.6548141837120056,-9.801861763000488,0.13048399984836578,-0.043121337890625,-0.00931633822619915,-0.0037265352439135313
18510944032975,-0.5793968439102173,-9.78869342803955,0.1628057211637497,-0.0393948033452034,-0.0063883461989462376,-0.0021294488105922937
18510945270125,-0.5746083855628967,-9.690531730651855,0.1496376097202301,-0.0364668108522892,-0.00452507846057415,-0.00692070834338665
18510946507262,-0.5758054852485657,-9.749189376831055,0.16639702022075653,-0.0404595248401165,-0.003460354171693325,-0.0031941730994731188
18510947744425,-0.6105214357376099,-9.749189376831055,0.16400282084941864,-0.0404595248401165,-0.0002661811013240367,-0.0021294488105922937
18510948981562,-0.5758054852485657,-9.697713851928711,0.17717093229293823,-0.0369991734623909,-0.0018632676219567657,-0.0063883461989462376
18510950218712,-0.5434837937355042,-9.740809440612793,0.18555063009262085,-0.0322079136967659,0.005589802749454975,-0.0037265352439135313
18510951455862,-0.545877993106842,-9.739612579345703,0.25737667083740234,-0.0327402763068676,0.00984870083630085,0.0018632676219567657
18510952693025,-0.5494692921638489,-9.691728591918945,0.20231004059314728,-0.0292799212038517,0.0071868896484375,0.0015970865497365594
18510953930175,-0.6045359373092651,-9.674968719482422,0.20709845423698425,-0.0338049978017807,0.01171196810901165,-0.0015970865497365594
18510955167325,-0.5710170865058899,-9.700108528137207,0.20949265360832214,-0.0316755510866642,0.01410759799182415,-0.0037265352439135313
18510956404462,-0.5542576909065247,-9.714473724365234,0.19153614342212677,-0.02901373989880085,0.010647243820130825,-0.0002661811013240367
18510957641625,-0.5973533391952515,-9.728838920593262,0.18794482946395874,-0.02901373989880085,0.014373779296875,0.0005323622026480734
18510958878750,-0.5554547905921936,-9.744400978088379,0.16160862147808075,-0.0244886614382267,0.01597086526453495,0.0013309054775163531
18510960115912,-0.585382342338562,-9.733627319335938,0.20350714027881622,-0.0215606689453125,0.01597086526453495,0.0039927163161337376
18510961353075,-0.5614402890205383,-9.726444244384766,0.20111294090747833,-0.02315775491297245,0.01756795309484005,0.0002661811013240367
18510962590212,-0.569819986820221,-9.789891242980957,0.1867477297782898,-0.023956298828125,0.01943122036755085,0.0013309054775163531
18510963827362,-0.545877993106842,-9.78869342803955,0.21308395266532898,-0.0228915736079216,0.0228915736079216,0.0023956298828125
18510965064525,-0.5099649429321289,-9.80904483795166,0.21667525172233582,-0.0223592109978199,0.02502102218568325,0.0021294488105922937
18510966301675,-0.5674257874488831,-9.789891242980957,0.1388636976480484,-0.0196974016726017,0.02422248013317585,0.006122165359556675
18510967538812,-0.4884171485900879,-9.761160850524902,0.2106897532939911,-0.0220930315554142,0.0220930315554142,0.0042588976211845875
18510968775975,-0.5039794445037842,-9.800664901733398,0.16400282084941864,-0.01889885775744915,0.02848137728869915,0.0023956298828125
18510970013125,-0.5554547905921936,-9.80904483795166,0.18315643072128296,-0.0196974016726017,0.02741665206849575,0.005589802749454975
18510971250262,-0.5542576909065247,-9.792284965515137,0.18555063009262085,-0.0167694091796875,0.02874755859375,0.0071868896484375
18510972487425,-0.5446808934211731,-9.769539833068848,0.20470423996448517,-0.0196974016726017,0.02981228195130825,0.005589802749454975
18510973724587,-0.5351040959358215,-9.730035781860352,0.1735796183347702,-0.01996358297765255,0.0295461006462574,0.003460354171693325
18510974961725,-0.5614402890205383,-9.757569313049316,0.15921440720558167,-0.01597086526453495,0.0306108258664608,0.00692070834338665
18510976198875,-0.5303156971931458,-9.75517463684082,0.17836803197860718,-0.010647243820130825,0.0322079136967659,0.006122165359556675
18510977436025,-0.5506663918495178,-9.75397777557373,0.17836803197860718,-0.01357523538172245,0.0327402763068676,0.00931633822619915
18510978673162,-0.524330198764801,-9.733627319335938,0.1735796183347702,-0.01410759799182415,0.0351359061896801,0.00452507846057415
18510979910337,-0.5398924946784973,-9.668983459472656,0.18794482946395874,-0.012510511092841625,0.0346035435795784,0.00958251953125
18510981147475,-0.545877993106842,-9.68933391571045,0.2082955539226532,-0.0138414166867733,0.0367329902946949,0.005589802749454975
18510982384637,-0.52552729845047,-9.703699111938477,0.21308395266532898,-0.01357523538172245,0.038063894957304,0.0039927163161337376
18510983621775,-0.5506663918495178,-9.678560256958008,0.22744916379451752,-0.01117960549890995,0.0340711809694767,0.013042873702943325
18510984858925,-0.5710170865058899,-9.671378135681152,0.1759738326072693,-0.008783976547420025,0.0377977155148983,0.014906140975654125
18510986096075,-0.5410895943641663,-9.716867446899414,0.15801730751991272,-0.005057440605014563,0.0452507846057415,0.01117960549890995
18510987333237,-0.5171476006507874,-9.690531730651855,0.1951274424791336,-0.0042588976211845875,0.0425889752805233,0.01117960549890995
18510988570387,-0.5351040959358215,-9.68933391571045,0.18914192914962769,-0.005855984054505825,0.0481787770986557,0.01703559048473835
18510989807537,-0.5351040959358215,-9.673771858215332,0.20470423996448517,-0.005589802749454975,0.043121337890625,0.01463996060192585
18510991044662,-0.5494692921638489,-9.691728591918945,0.16998831927776337,-0.004791259765625,0.0412580706179142,0.01463996060192585
18510992281837,-0.5386953949928284,-9.709685325622559,0.19632454216480255,-0.0002661811013240367,0.0465816929936409,0.01756795309484005
18510993518975,-0.47884035110473633,-9.734824180603027,0.15322890877723694,-0.0015970865497365594,0.0481787770986557,0.01703559048473835
18510994756125,-0.5147533416748047,-9.712079048156738,0.20470423996448517,0.0021294488105922937,0.0468478724360466,0.0167694091796875
18510995993275,-0.5183447003364563,-9.728838920593262,0.18914192914962769,0.0031941730994731188,0.0460493303835392,0.02076212503015995
18510997230437,-0.4572925269603729,-9.704896926879883,0.17238251864910126,0.004791259765625,0.0471140518784523,0.02262539230287075
18510998467587,-0.4189853072166443,-9.707290649414062,0.19871874153614044,0.0029279920272529125,0.0497758649289608,0.01703559048473835
18510999704712,-0.45010992884635925,-9.697713851928711,0.17836803197860718,0.0029279920272529125,0.0468478724360466,0.01889885775744915
18511000941887,-0.4812345504760742,-9.724050521850586,0.16160862147808075,0.01117960549890995,0.0484449602663517,0.02022976242005825
18511002179037,-0.45489832758903503,-9.745597839355469,0.19393034279346466,0.0077192517928779125,0.0495096817612648,0.01836649514734745
18511003416200,-0.45489832758903503,-9.756372451782227,0.17717093229293823,0.00692070834338665,0.0439198799431324,0.02076212503015995
18511004653325,-0.4441244304180145,-9.716867446899414,0.17238251864910126,0.0090501569211483,0.0489773228764534,0.0228915736079216
18511005890487,-0.4429273307323456,-9.774328231811523,0.1711854189634323,0.0090501569211483,0.0495096817612648,0.0268842913210392
18511007127625,-0.4644751250743866,-9.733627319335938,0.19273324310779572,0.00958251953125,0.0500420443713665,0.02022976242005825
18511008364775,-0.50876784324646,-9.715670585632324,0.18794482946395874,0.0114457868039608,0.0471140518784523,0.02022976242005825
18511009601950,-0.4465186297893524,-9.684545516967773,0.22864626348018646,0.01463996060192585,0.0497758649289608,0.0311431884765625
18511010839087,-0.5159504413604736,-9.702502250671387,0.1735796183347702,0.013042873702943325,0.0516391322016716,0.0319417305290699
18511012076225,-0.4836287498474121,-9.732430458068848,0.14484921097755432,0.01756795309484005,0.0508405901491642,0.0316755510866642
18511013313400,-0.4836287498474121,-9.730035781860352,0.16519992053508759,0.0186326764523983,0.0545671246945858,0.02555338479578495
18511014550537,-0.45250412821769714,-9.745597839355469,0.14484921097755432,0.0196974016726017,0.0500420443713665,0.02901373989880085
18511015787700,-0.4405331015586853,-9.765949249267578,0.15322890877723694,0.0223592109978199,0.0511067695915699,0.0324740931391716
18511017024850,-0.4141969084739685,-9.728838920593262,0.16400282084941864,0.0191650390625,0.052437674254179,0.03034464456140995
18511018261987,-0.4620809257030487,-9.81143856048584,0.15442600846290588,0.0228915736079216,0.0535023994743824,0.0276828333735466
18511019499125,-0.4321534037590027,-9.743204116821289,0.13168109953403473,0.0204959437251091,0.0585598424077034,0.02555338479578495
18511020736300,-0.4273650050163269,-9.780314445495605,0.18315643072128296,0.0220930315554142,0.0505744069814682,0.03087700717151165
18511021973450,-0.4489128291606903,-9.806650161743164,0.1412578970193863,0.02315775491297245,0.0500420443713665,0.0369991734623909
18511023210575,-0.44532153010368347,-9.803058624267578,0.1388636976480484,0.0220930315554142,0.0556318499147892,0.02901373989880085
18511024447750,-0.4752490520477295,-9.807847023010254,0.16639702022075653,0.01597086526453495,0.0513729527592659,0.033272635191679
18511025684887,-0.4644751250743866,-9.832986831665039,0.18555063009262085,0.0223592109978199,0.0508405901491642,0.0348697230219841
18511026922037,-0.4513070285320282,-9.798270225524902,0.15322890877723694,0.02502102218568325,0.0508405901491642,0.02981228195130825
18511028159212,-0.4537012279033661,-9.806650161743164,0.15442600846290588,0.0263519287109375,0.0505744069814682,0.02901373989880085
18511029396337,-0.46327802538871765,-9.80904483795166,0.18076223134994507,0.0268842913210392,0.0473802350461483,0.0268842913210392
18511030633512,-0.507570743560791,-9.824606895446777,0.12928690016269684,0.02555338479578495,0.0473802350461483,0.02848137728869915
18511031870637,-0.47884035110473633,-9.793481826782227,0.14844051003456116,0.0215606689453125,0.0513729527592659,0.0263519287109375
18511033107787,-0.5015852451324463,-9.848548889160156,0.17238251864910126,0.02129448764026165,0.0540347620844841,0.0252872034907341
18511034344925,-0.46088382601737976,-9.859322547912598,0.13407529890537262,0.0268842913210392,0.0471140518784523,0.02422248013317585
18511035582100,-0.48722004890441895,-9.892841339111328,0.16400282084941864,0.02981228195130825,0.0439198799431324,0.02981228195130825
18511036819250,-0.4884171485900879,-9.910798072814941,0.1149216815829277,0.02422248013317585,0.0463155098259449,0.02608574740588665
18511038056387,-0.4728548526763916,-9.915586471557617,0.16519992053508759,0.01996358297765255,0.047646414488554,0.0228915736079216
18511039293550,-0.45250412821769714,-9.87967300415039,0.13287819921970367,0.01889885775744915,0.0508405901491642,0.0244886614382267
18511040530700,-0.41539400815963745,-9.889249801635742,0.1280897855758667,0.0215606689453125,0.0521714948117733,0.02661811001598835
18511041767850,-0.45489832758903503,-9.904812812805176,0.16160862147808075,0.02315775491297245,0.0519053116440773,0.0268842913210392
18511043005000,-0.45489832758903503,-9.910798072814941,0.14365209639072418,0.015172322280704975,0.0503082275390625,0.0247548408806324
18511044242137,-0.42856210470199585,-9.858125686645508,0.19153614342212677,0.010913425125181675,0.0529700368642807,0.02608574740588665
18511045479300,-0.4189853072166443,-9.859322547912598,0.16879121959209442,0.01650322787463665,0.0540347620844841,0.02874755859375
18511046716462,-0.4345476031303406,-9.871294021606445,0.1280897855758667,0.01943122036755085,0.0503082275390625,0.0276828333735466
18511047953600,-0.43095630407333374,-9.854534149169922,0.10534487664699554,0.0138414166867733,0.0495096817612648,0.02422248013317585
18511049190750,-0.4058171808719635,-9.861717224121094,0.1604115217924118,0.00931633822619915,0.0457831472158432,0.0247548408806324
18511050427912,-0.4118027091026306,-9.854534149169922,0.13766659796237946,0.01410759799182415,0.0487111397087574,0.0244886614382267
18511051665050,-0.45250412821769714,-9.834183692932129,0.19153614342212677,0.01597086526453495,0.0468478724360466,0.02661811001598835
18511052902200,-0.4010287821292877,-9.858125686645508,0.1867477297782898,0.012510511092841625,0.0500420443713665,0.0228915736079216
18511054139362,-0.4010287821292877,-9.801861763000488,0.16519992053508759,0.007985432632267475,0.0508405901491642,0.015172322280704975
18511055376512,-0.40940847992897034,-9.800664901733398,0.14604631066322327,0.012776692397892475,0.0513729527592659,0.02315775491297245
18511056613675,-0.4082113802433014,-9.84495735168457,0.15801730751991272,0.015438503585755825,0.0487111397087574,0.02555338479578495
18511057850800,-0.4273650050163269,-9.84376049041748,0.1388636976480484,0.014906140975654125,0.0449846051633358,0.0234239362180233
18511059087962,-0.4572925269603729,-9.84615421295166,0.11971008777618408,0.010647243820130825,0.0396609827876091,0.0306108258664608
18511060325112,-0.40462008118629456,-9.856928825378418,0.19033904373645782,0.01117960549890995,0.0401933453977108,0.01943122036755085
18511061562262,-0.4321534037590027,-9.798270225524902,0.14844051003456116,0.0114457868039608,0.0369991734623909,0.02182685025036335
18511062799412,-0.41299980878829956,-9.815030097961426,0.16879121959209442,0.010114881210029125,0.0449846051633358,0.02182685025036335
18511064036575,-0.42377370595932007,-9.825803756713867,0.1628057211637497,0.01224433071911335,0.0420566126704216,0.0210283063352108
18511065273712,-0.4118027091026306,-9.821015357971191,0.12689268589019775,0.010114881210029125,0.038330078125,0.01889885775744915
18511066510875,-0.4297592043876648,-9.822212219238281,0.1256955862045288,0.010913425125181675,0.0399271659553051,0.0181003138422966
18511067748012,-0.4357447028160095,-9.860519409179688,0.14484921097755432,0.010913425125181675,0.0364668108522892,0.02182685025036335
18511068985175,-0.38905778527259827,-9.90122127532959,0.11133038252592087,0.013042873702943325,0.0404595248401165,0.0210283063352108
18511070222325,-0.40462008118629456,-9.837775230407715,0.08978256583213806,0.0042588976211845875,0.0393948033452034,0.014906140975654125
18511071459487,-0.4213795065879822,-9.865307807922363,0.1496376097202301,0.0037265352439135313,0.0316755510866642,0.01224433071911335
18511072696625,-0.3842693865299225,-9.891644477844238,0.12689268589019775,0.006122165359556675,0.0330064557492733,0.013309055007994175
18511073933775,-0.36750996112823486,-9.920374870300293,0.152031809091568,0.0026618109550327063,0.0356682650744915,0.0196974016726017
18511075170925,-0.45848962664604187,-9.908403396606445,0.13287819921970367,0.006122165359556675,0.0327402763068676,0.01996358297765255
18511076408075,-0.4010287821292877,-9.928754806518555,0.13287819921970367,0.0042588976211845875,0.03034464456140995,0.014906140975654125
18511077645225,-0.4118027091026306,-9.945513725280762,0.14484921097755432,0.005589802749454975,0.0324740931391716,0.0173017717897892
18511078882362,-0.3926490843296051,-9.93354320526123,0.15442600846290588,0.00452507846057415,0.03034464456140995,0.0196974016726017
18511080119537,-0.4010287821292877,-9.9586820602417,0.1149216815829277,0.0066545275039970875,0.023956298828125,0.02022976242005825
18511081356675,-0.37229835987091064,-9.96825885772705,0.14484921097755432,0.00452507846057415,0.02422248013317585,0.02129448764026165
18511082593812,-0.3711012601852417,-9.889249801635742,0.1364694982767105,-0.0002661811013240367,0.0204959437251091,0.01783413253724575
18511083830987,-0.4381389021873474,-9.854534149169922,0.15562310814857483,0.0015970865497365594,0.0220930315554142,0.01836649514734745
18511085068112,-0.41299980878829956,-9.907206535339355,0.1256955862045288,0.0026618109550327063,0.023956298828125,0.0210283063352108
18511086305287,-0.3627215623855591,-9.9000244140625,0.1173158809542656,0.0,0.0244886614382267,0.01703559048473835
18511087542425,-0.3878606855869293,-9.853337287902832,0.11372458189725876,-0.0007985432748682797,0.02608574740588665,0.0223592109978199
18511088779575,-0.3926490843296051,-9.861717224121094,0.18555063009262085,0.0018632676219567657,0.0210283063352108,0.02315775491297245
18511090016737,-0.37469255924224854,-9.819818496704102,0.14844051003456116,0.0015970865497365594,0.01943122036755085,0.0220930315554142
18511091253887,-0.33758243918418884,-9.829395294189453,0.181959331035614,0.0053236219100654125,0.0181003138422966,0.0247548408806324
18511092491037,-0.3842693865299225,-9.830592155456543,0.11252748221158981,0.0021294488105922937,0.014373779296875,0.02422248013317585
18511093728200,-0.3758896589279175,-9.805453300476074,0.1759738326072693,0.0002661811013240367,0.01224433071911335,0.0223592109978199
18511094965325,-0.3687070608139038,-9.761160850524902,0.17238251864910126,0.0023956298828125,0.00958251953125,0.0247548408806324
18511096202500,-0.3902548849582672,-9.759963035583496,0.15322890877723694,0.0013309054775163531,0.0021294488105922937,0.02981228195130825
18511097439637,-0.3842693865299225,-9.764751434326172,0.16639702022075653,0.0005323622026480734,0.0053236219100654125,0.0268842913210392
18511098676800,-0.39863458275794983,-9.786299705505371,0.17717093229293823,0.0031941730994731188,0.0063883461989462376,0.0268842913210392
18511099913912,-0.37229835987091064,-9.75517463684082,0.17956513166427612,0.0037265352439135313,0.0039927163161337376,0.0215606689453125
18511101151087,-0.33518823981285095,-9.737218856811523,0.14245499670505524,0.0042588976211845875,0.0037265352439135313,0.0271504707634449
18511102388237,-0.3794809579849243,-9.756372451782227,0.18555063009262085,0.005855984054505825,0.0005323622026480734,0.03034464456140995
18511103625387,-0.3770867586135864,-9.771934509277344,0.19871874153614044,0.0066545275039970875,0.0018632676219567657,0.02981228195130825
18511104862550,-0.3770867586135864,-9.792284965515137,0.13048399984836578,0.0037265352439135313,-0.0005323622026480734,0.0244886614382267
18511106099687,-0.36990416049957275,-9.761160850524902,0.13287819921970367,-0.0005323622026480734,0.0002661811013240367,0.0276828333735466
18511107336837,-0.39384618401527405,-9.782708168029785,0.1256955862045288,0.0021294488105922937,-0.0013309054775163531,0.0295461006462574
18511108574000,-0.40701428055763245,-9.747992515563965,0.15083470940589905,0.006122165359556675,-0.0071868896484375,0.0271504707634449
18511109811137,-0.41299980878829956,-9.791088104248047,0.12449848651885986,0.0015970865497365594,-0.006122165359556675,0.01410759799182415
18511111048300,-0.40462008118629456,-9.80904483795166,0.1496376097202301,0.003460354171693325,-0.008517795242369175,0.014906140975654125
18511112285462,-0.41778820753097534,-9.78869342803955,0.14365209639072418,0.0039927163161337376,-0.0090501569211483,0.0228915736079216
18511113522587,-0.4381389021873474,-9.793481826782227,0.16639702022075653,0.003460354171693325,-0.008783976547420025,0.0244886614382267
18511114759750,-0.43335050344467163,-9.782708168029785,0.15801730751991272,0.0,-0.0063883461989462376,0.0162370465695858
18511115996900,-0.4165911078453064,-9.831789016723633,0.1604115217924118,0.005589802749454975,-0.013309055007994175,0.014906140975654125
18511117234050,-0.4381389021873474,-9.781511306762695,0.1472434103488922,0.0018632676219567657,-0.010114881210029125,0.0162370465695858
18511118471212,-0.42018240690231323,-9.77791976928711,0.1412578970193863,0.0021294488105922937,-0.01224433071911335,0.015172322280704975
18511119708362,-0.43095630407333374,-9.770737648010254,0.19393034279346466,0.010647243820130825,-0.012776692397892475,0.014373779296875
18511120945512,-0.3998316824436188,-9.797073364257812,0.20350714027881622,0.0031941730994731188,-0.015438503585755825,0.010381062515079975
18511122182650,-0.39145198464393616,-9.78869342803955,0.20949265360832214,0.0029279920272529125,-0.014906140975654125,0.0119781494140625
18511123419812,-0.4034229815006256,-9.7791166305542,0.152031809091568,0.010647243820130825,-0.015172322280704975,0.01117960549890995
18511124656975,-0.3842693865299225,-9.771934509277344,0.14006079733371735,0.01171196810901165,-0.01650322787463665,0.014373779296875
18511125894100,-0.3818751871585846,-9.804256439208984,0.152031809091568,0.00958251953125,-0.01996358297765255,0.007453070487827063
18511127131250,-0.3758896589279175,-9.799468040466309,0.16400282084941864,0.005589802749454975,-0.01996358297765255,0.0021294488105922937
18511128368412,-0.3794809579849243,-9.78869342803955,0.152031809091568,0.0071868896484375,-0.02076212503015995,0.0023956298828125
18511129605562,-0.40940847992897034,-9.773131370544434,0.15682020783424377,0.010913425125181675,-0.0228915736079216,0.0029279920272529125
18511130842700,-0.40940847992897034,-9.81263542175293,0.20231004059314728,0.013042873702943325,-0.0247548408806324,0.0053236219100654125
18511132079875,-0.4082113802433014,-9.807847023010254,0.1735796183347702,0.005589802749454975,-0.0228915736079216,0.0029279920272529125
18511133317012,-0.40222588181495667,-9.794679641723633,0.16759411990642548,0.00931633822619915,-0.02315775491297245,-0.0005323622026480734
18511134554175,-0.41060560941696167,-9.818621635437012,0.1628057211637497,0.00931633822619915,-0.0244886614382267,-0.0031941730994731188
18511135791325,-0.43694180250167847,-9.81263542175293,0.1711854189634323,0.008783976547420025,-0.02555338479578495,0.0007985432748682797
18511137028475,-0.37469255924224854,-9.81263542175293,0.20231004059314728,0.015438503585755825,-0.0276828333735466,-0.0002661811013240367
18511138265625,-0.4058171808719635,-9.787496566772461,0.22385786473751068,0.0157046839594841,-0.0244886614382267,0.0
18511139502775,-0.4082113802433014,-9.782708168029785,0.20709845423698425,0.010647243820130825,-0.02661811001598835,0.0005323622026480734
18511140739925,-0.4010287821292877,-9.773131370544434,0.18076223134994507,0.010381062515079975,-0.0311431884765625,-0.0010647244052961469
18511141977087,-0.4082113802433014,-9.789891242980957,0.16879121959209442,0.01597086526453495,-0.0327402763068676,-0.0005323622026480734
18511143214225,-0.4644751250743866,-9.791088104248047,0.16160862147808075,0.01943122036755085,-0.0316755510866642,-0.0015970865497365594
18511144451375,-0.42018240690231323,-9.77672290802002,0.17238251864910126,0.01783413253724575,-0.03087700717151165,-0.0031941730994731188
18511145688550,-0.4141969084739685,-9.770737648010254,0.19033904373645782,0.0173017717897892,-0.0306108258664608,-0.0031941730994731188
18511146925687,-0.3770867586135864,-9.782708168029785,0.13766659796237946,0.0167694091796875,-0.0348697230219841,-0.0026618109550327063
18511148162837,-0.3842693865299225,-9.740809440612793,0.19871874153614044,0.02422248013317585,-0.0367329902946949,-0.008251613937318325
18511149399987,-0.41060560941696167,-9.740809440612793,0.17238251864910126,0.0215606689453125,-0.0354020856320858,-0.00984870083630085
18511150637150,-0.3711012601852417,-9.737218856811523,0.1604115217924118,0.02022976242005825,-0.038063894957304,-0.0037265352439135313
18511151874287,-0.3687070608139038,-9.716867446899414,0.13766659796237946,0.0223592109978199,-0.0385962575674057,-0.0031941730994731188
18511153111425,-0.3878606855869293,-9.730035781860352,0.12210428714752197,0.02129448764026165,-0.0396609827876091,-0.008783976547420025
18511154348587,-0.42018240690231323,-9.720458984375,0.16160862147808075,0.02555338479578495,-0.0377977155148983,-0.0114457868039608
18511155585762,-0.4034229815006256,-9.733627319335938,0.1975216418504715,0.0268842913210392,-0.0415242500603199,-0.010381062515079975
18511156822912,-0.4034229815006256,-9.738415718078613,0.21188685297966003,0.02901373989880085,-0.0439198799431324,-0.0077192517928779125
18511158060050,-0.3998316824436188,-9.697713851928711,0.2059013545513153,0.0292799212038517,-0.0441860631108284,-0.00984870083630085
18511159297200,-0.4297592043876648,-9.72165584564209,0.19033904373645782,0.02661811001598835,-0.0396609827876091,-0.0119781494140625
18511160534337,-0.4118027091026306,-9.736021041870117,0.1951274424791336,0.0300784632563591,-0.0463155098259449,-0.007985432632267475
18511161771500,-0.43095630407333374,-9.708487510681152,0.1951274424791336,0.0319417305290699,-0.0465816929936409,-0.00692070834338665
18511163008662,-0.41060560941696167,-9.724050521850586,0.1711854189634323,0.0330064557492733,-0.0415242500603199,-0.008517795242369175
18511164245787,-0.3663128614425659,-9.743204116821289,0.17836803197860718,0.0322079136967659,-0.0468478724360466,-0.008783976547420025
18511165482950,-0.395043283700943,-9.715670585632324,0.17238251864910126,0.02981228195130825,-0.0508405901491642,-0.008783976547420025
18511166720100,-0.4058171808719635,-9.734824180603027,0.20709845423698425,0.0372653529047966,-0.0500420443713665,-0.010913425125181675
18511167957262,-0.37469255924224854,-9.727641105651855,0.21547815203666687,0.0377977155148983,-0.0484449602663517,-0.0090501569211483
18511169194412,-0.363918662071228,-9.712079048156738,0.19871874153614044,0.0354020856320858,-0.0439198799431324,-0.0071868896484375
18511170431562,-0.4082113802433014,-9.726444244384766,0.19153614342212677,0.0441860631108284,-0.0468478724360466,-0.0063883461989462376
18511171668700,-0.36750996112823486,-9.718064308166504,0.23582887649536133,0.0399271659553051,-0.0484449602663517,-0.006122165359556675
18511172905862,-0.3579331636428833,-9.6989107131958,0.15682020783424377,0.0393948033452034,-0.0471140518784523,-0.007453070487827063
18511174143012,-0.4034229815006256,-9.695320129394531,0.16639702022075653,0.0412580706179142,-0.0487111397087574,-0.013042873702943325
18511175380162,-0.3794809579849243,-9.720458984375,0.1711854189634323,0.0436537005007267,-0.0519053116440773,-0.005057440605014563
18511176617325,-0.3794809579849243,-9.701305389404297,0.22744916379451752,0.042855154722929,-0.0529700368642807,-0.0039927163161337376
18511177854475,-0.43694180250167847,-9.700108528137207,0.20231004059314728,0.0433875173330307,-0.0543009415268898,-0.0021294488105922937
18511179091612,-0.42856210470199585,-9.703699111938477,0.20350714027881622,0.0444522425532341,-0.052437674254179,-0.0031941730994731188
18511180328762,-0.4513070285320282,-9.730035781860352,0.22026655077934265,0.0468478724360466,-0.0503082275390625,-0.005855984054505825
18511181565925,-0.41060560941696167,-9.774328231811523,0.2298433631658554,0.04791259765625,-0.0556318499147892,-0.004791259765625
18511182803075,-0.4465186297893524,-9.749189376831055,0.18914192914962769,0.0495096817612648,-0.0561642125248909,-0.0039927163161337376
18511184040225,-0.4357447028160095,-9.75158405303955,0.2214636653661728,0.0471140518784523,-0.0497758649289608,-0.006122165359556675
18511185277387,-0.42018240690231323,-9.75517463684082,0.2106897532939911,0.0463155098259449,-0.052703857421875,-0.0063883461989462376
18511186514537,-0.4441244304180145,-9.769539833068848,0.17238251864910126,0.0473802350461483,-0.0543009415268898,-0.003460354171693325
18511187751700,-0.4405331015586853,-9.769539833068848,0.16759411990642548,0.0492435023188591,-0.0582936592400074,-0.005589802749454975
18511188988825,-0.4345476031303406,-9.787496566772461,0.1412578970193863,0.043121337890625,-0.0492435023188591,-0.0026618109550327063
18511190225962,-0.40222588181495667,-9.81143856048584,0.1975216418504715,0.043121337890625,-0.0516391322016716,-0.0010647244052961469
18511191463137,-0.44532153010368347,-9.836577415466309,0.19273324310779572,0.0484449602663517,-0.0558980293571949,-0.0039927163161337376
18511192700300,-0.4668693244457245,-9.841365814208984,0.1604115217924118,0.0511067695915699,-0.0601569265127182,-0.0063883461989462376
18511193937450,-0.4189853072166443,-9.853337287902832,0.1388636976480484,0.0473802350461483,-0.0556318499147892,-0.005855984054505825
18511195174587,-0.4321534037590027,-9.84256362915039,0.15442600846290588,0.0444522425532341,-0.0585598424077034,-0.00931633822619915
18511196411750,-0.4141969084739685,-9.861717224121094,0.21188685297966003,0.042855154722929,-0.0582936592400074,-0.004791259765625
18511197648887,-0.4345476031303406,-9.860519409179688,0.23343466222286224,0.0465816929936409,-0.0625525563955307,-0.0071868896484375
18511198886037,-0.4345476031303406,-9.822212219238281,0.23582887649536133,0.043121337890625,-0.0598907470703125,-0.0071868896484375
18511200123187,-0.4082113802433014,-9.861717224121094,0.18555063009262085,0.0439198799431324,-0.0585598424077034,-0.0063883461989462376
18511201360337,-0.4273650050163269,-9.910798072814941,0.19632454216480255,0.0404595248401165,-0.0598907470703125,-0.0042588976211845875
18511202597487,-0.4513070285320282,-9.855731010437012,0.21428105235099792,0.0393948033452034,-0.0569627545773983,-0.0037265352439135313
18511203834650,-0.4644751250743866,-9.865307807922363,0.21667525172233582,0.0404595248401165,-0.0593583844602108,-0.006122165359556675
18511205071800,-0.4441244304180145,-9.884461402893066,0.17956513166427612,0.0436537005007267,-0.0564303919672966,-0.008517795242369175
18511206308950,-0.45250412821769714,-9.880870819091797,0.22266076505184174,0.0436537005007267,-0.0582936592400074,-0.008517795242369175
18511207546100,-0.44532153010368347,-9.806650161743164,0.22864626348018646,0.0404595248401165,-0.0593583844602108,-0.007453070487827063
18511208783250,-0.50876784324646,-9.80904483795166,0.2454056739807129,0.0343373604118824,-0.0569627545773983,-0.0119781494140625
18511210020412,-0.4572925269603729,-9.849745750427246,0.23582887649536133,0.0399271659553051,-0.0564303919672966,-0.00931633822619915
18511211257562,-0.4381389021873474,-9.818621635437012,0.22744916379451752,0.038330078125,-0.0604231096804142,-0.0119781494140625
18511212494712,-0.44532153010368347,-9.834183692932129,0.2513911724090576,0.038330078125,-0.0604231096804142,-0.01224433071911335
18511213731850,-0.4836287498474121,-9.78869342803955,0.22864626348018646,0.038063894957304,-0.0577612966299057,-0.0119781494140625
18511214969000,-0.4513070285320282,-9.837775230407715,0.23343466222286224,0.0354020856320858,-0.0590922012925148,-0.013309055007994175
18511216206150,-0.4429273307323456,-9.805453300476074,0.2190694510936737,0.0404595248401165,-0.0590922012925148,-0.0053236219100654125
18511217443300,-0.4357447028160095,-9.828198432922363,0.22625206410884857,0.0396609827876091,-0.0548333041369915,-0.005855984054505825
18511218680475,-0.4381389021873474,-9.848548889160156,0.2214636653661728,0.0425889752805233,-0.0545671246945858,-0.005855984054505825
18511219917600,-0.5027823448181152,-9.822212219238281,0.21308395266532898,0.0369991734623909,-0.0558980293571949,-0.0077192517928779125
18511221154762,-0.47165775299072266,-9.792284965515137,0.2537853717803955,0.0396609827876091,-0.0612216517329216,-0.008517795242369175
18511222391912,-0.4776432514190674,-9.840168952941895,0.243011474609375,0.0415242500603199,-0.062286376953125,-0.005057440605014563
18511223629062,-0.4836287498474121,-9.799468040466309,0.21547815203666687,0.0423227921128273,-0.0566965714097023,-0.00958251953125
18511224866225,-0.4572925269603729,-9.827000617980957,0.25019407272338867,0.0407257080078125,-0.0596245639026165,-0.008251613937318325
18511226103362,-0.4836287498474121,-9.800664901733398,0.22505496442317963,0.0393948033452034,-0.0582936592400074,-0.00984870083630085
18511227340537,-0.47644615173339844,-9.800664901733398,0.21787235140800476,0.0409918874502182,-0.0556318499147892,-0.00931633822619915
18511228577662,-0.47165775299072266,-9.805453300476074,0.21787235140800476,0.0412580706179142,-0.0561642125248909,-0.005855984054505825
18511229814837,-0.4345476031303406,-9.773131370544434,0.2214636653661728,0.0364668108522892,-0.0540347620844841,-0.00931633822619915
18511231051962,-0.5063736438751221,-9.803058624267578,0.23702597618103027,0.0338049978017807,-0.0543009415268898,-0.0066545275039970875
18511232289112,-0.47165775299072266,-9.771934509277344,0.23702597618103027,0.0356682650744915,-0.0532362200319767,-0.0042588976211845875
18511233526262,-0.4704606235027313,-9.77791976928711,0.25498247146606445,0.0399271659553051,-0.0566965714097023,-0.007453070487827063
18511234763425,-0.47644615173339844,-9.780314445495605,0.21547815203666687,0.0436537005007267,-0.0598907470703125,-0.007985432632267475
18511236000575,-0.4967968463897705,-9.799468040466309,0.27054479718208313,0.0396609827876091,-0.0556318499147892,-0.0077192517928779125
18511237237750,-0.4728548526763916,-9.840168952941895,0.2669534981250763,0.038330078125,-0.0543009415268898,-0.00931633822619915
18511238474887,-0.49559974670410156,-9.853337287902832,0.23942017555236816,0.0388624407351017,-0.0489773228764534,-0.010647243820130825
18511239712037,-0.48243165016174316,-9.849745750427246,0.1975216418504715,0.043121337890625,-0.0500420443713665,-0.0031941730994731188
18511240949187,-0.5291185975074768,-9.884461402893066,0.26575639843940735,0.0465816929936409,-0.0558980293571949,-0.0039927163161337376
18511242186337,-0.49320554733276367,-9.848548889160156,0.2082955539226532,0.0407257080078125,-0.0535023994743824,-0.0071868896484375
18511243423487,-0.4836287498474121,-9.885659217834473,0.21547815203666687,0.043121337890625,-0.0535023994743824,-0.0031941730994731188
18511244660637,-0.4704606235027313,-9.90241813659668,0.17717093229293823,0.0420566126704216,-0.052437674254179,0.0010647244052961469
18511245897787,-0.5135562419891357,-9.906009674072266,0.243011474609375,0.0423227921128273,-0.0532362200319767,0.0
18511247134962,-0.5446808934211731,-9.913191795349121,0.26336219906806946,0.0452507846057415,-0.0566965714097023,-0.0018632676219567657
18511248372100,-0.5494692921638489,-9.892841339111328,0.272938996553421,0.0425889752805233,-0.0545671246945858,-0.0037265352439135313
18511249609250,-0.5267243981361389,-9.860519409179688,0.24420857429504395,0.038063894957304,-0.0529700368642807,-0.00452507846057415
18511250846400,-0.5363011956214905,-9.873687744140625,0.22026655077934265,0.0385962575674057,-0.0465816929936409,-0.0007985432748682797
18511252083550,-0.52552729845047,-9.90122127532959,0.27653029561042786,0.0412580706179142,-0.0508405901491642,-0.0023956298828125
18511253320700,-0.524330198764801,-9.864110946655273,0.28969842195510864,0.0367329902946949,-0.0492435023188591,0.0007985432748682797
18511254557862,-0.5135562419891357,-9.821015357971191,0.28131869435310364,0.0356682650744915,-0.0484449602663517,0.0023956298828125
18511255795012,-0.5039794445037842,-9.813833236694336,0.2621650993824005,0.0404595248401165,-0.0473802350461483,0.0007985432748682797
18511257032162,-0.5003881454467773,-9.817423820495605,0.3292027413845062,0.0399271659553051,-0.0487111397087574,0.005855984054505825
18511258269325,-0.4812345504760742,-9.81024169921875,0.2454056739807129,0.0409918874502182,-0.0465816929936409,0.004791259765625
18511259506462,-0.5051765441894531,-9.782708168029785,0.22744916379451752,0.0372653529047966,-0.0492435023188591,0.00452507846057415
18511260743612,-0.4884171485900879,-9.795876502990723,0.29807811975479126,0.0348697230219841,-0.0489773228764534,0.0063883461989462376
18511261980762,-0.5530605912208557,-9.799468040466309,0.3016694188117981,0.0401933453977108,-0.0460493303835392,0.0021294488105922937
18511263217912,-0.5494692921638489,-9.800664901733398,0.272938996553421,0.043121337890625,-0.0452507846057415,0.0066545275039970875
18511264455075,-0.5710170865058899,-9.830592155456543,0.26815059781074524,0.0471140518784523,-0.0471140518784523,0.007453070487827063
18511265692225,-0.5542576909065247,-9.847352027893066,0.25019407272338867,0.0447184219956398,-0.0455169677734375,0.0077192517928779125
18511266929387,-0.5746083855628967,-9.836577415466309,0.2693476974964142,0.0436537005007267,-0.0399271659553051,0.008517795242369175
18511268166525,-0.585382342338562,-9.850942611694336,0.3100491166114807,0.04791259765625,-0.0447184219956398,0.00958251953125
18511269403675,-0.585382342338562,-9.86889934539795,0.21787235140800476,0.0457831472158432,-0.0364668108522892,0.010381062515079975
18511270640825,-0.5937620401382446,-9.885659217834473,0.24420857429504395,0.0401933453977108,-0.0372653529047966,0.010381062515079975
18511271877987,-0.5494692921638489,-9.872490882873535,0.2537853717803955,0.0452507846057415,-0.0385962575674057,0.0077192517928779125
18511273115112,-0.5901707410812378,-9.9000244140625,0.3148375153541565,0.0449846051633358,-0.0396609827876091,0.01224433071911335
18511274352287,-0.628477931022644,-9.907206535339355,0.29209262132644653,0.0385962575674057,-0.0348697230219841,0.01171196810901165
18511275589437,-0.6236895322799683,-9.943120002746582,0.3076549172401428,0.0354020856320858,-0.0292799212038517,0.00984870083630085
18511276826587,-0.6476315855979919,-9.927556991577148,0.29209262132644653,0.0377977155148983,-0.0306108258664608,0.008251613937318325
18511278063737,-0.6021417379379272,-9.959878921508789,0.29568392038345337,0.0364668108522892,-0.0311431884765625,0.008517795242369175
18511279300887,-0.5674257874488831,-9.93474006652832,0.2992752194404602,0.0316755510866642,-0.02608574740588665,0.0077192517928779125
18511280538037,-0.6236895322799683,-9.93474006652832,0.3064578175544739,0.0330064557492733,-0.033538818359375,0.0071868896484375
18511281775200,-0.5841852426528931,-9.909601211547852,0.27413609623908997,0.0316755510866642,-0.02794901467859745,0.0029279920272529125
18511283012350,-0.6009446382522583,-9.891644477844238,0.2753331959247589,0.0324740931391716,-0.0276828333735466,0.004791259765625
18511284249500,-0.6177040338516235,-9.908403396606445,0.25258827209472656,0.02901373989880085,-0.02661811001598835,0.0021294488105922937
18511285486625,-0.5901707410812378,-9.925163269042969,0.25019407272338867,0.02555338479578495,-0.0186326764523983,0.0031941730994731188
18511286723812,-0.5841852426528931,-9.945513725280762,0.2621650993824005,0.0282151959836483,-0.01996358297765255,0.005855984054505825
18511287960987,-0.5770025849342346,-9.944316864013672,0.29568392038345337,0.0276828333735466,-0.0210283063352108,0.005057440605014563
18511289198100,-0.6248866319656372,-9.904812812805176,0.31842881441116333,0.02661811001598835,-0.02022976242005825,0.0063883461989462376
18511290435262,-0.5482721924781799,-9.853337287902832,0.27653029561042786,0.0215606689453125,-0.00958251953125,0.0066545275039970875
18511291672412,-0.6009446382522583,-9.861717224121094,0.2908955216407776,0.0186326764523983,-0.005855984054505825,0.0063883461989462376
18511292909575,-0.6428431868553162,-9.883264541625977,0.2825157940387726,0.02741665206849575,-0.014373779296875,-0.0005323622026480734
18511294146725,-0.5889736413955688,-9.884461402893066,0.31962594389915466,0.0263519287109375,-0.013042873702943325,-0.0002661811013240367
18511295383862,-0.6356605291366577,-9.898826599121094,0.2992752194404602,0.0181003138422966,-0.0114457868039608,-0.0002661811013240367
18511296621000,-0.6117185354232788,-9.874884605407715,0.2669534981250763,0.01943122036755085,-0.0114457868039608,0.0042588976211845875
18511297858162,-0.5997475385665894,-9.883264541625977,0.30286651849746704,0.02262539230287075,-0.008251613937318325,0.0023956298828125
18511299095325,-0.5841852426528931,-9.892841339111328,0.2861070930957794,0.01703559048473835,-0.0042588976211845875,0.0026618109550327063
18511300332462,-0.585382342338562,-9.920374870300293,0.31364041566848755,0.0167694091796875,-0.005855984054505825,0.0
18511301569625,-0.629675030708313,-9.909601211547852,0.3100491166114807,0.02076212503015995,-0.006122165359556675,0.0077192517928779125
18511302806775,-0.569819986820221,-9.870096206665039,0.2944868206977844,0.01889885775744915,-0.0023956298828125,0.0039927163161337376
18511304043937,-0.5961562395095825,-9.891644477844238,0.2968810200691223,0.012776692397892475,0.0039927163161337376,-0.0015970865497365594
18511305281100,-0.5734112858772278,-9.858125686645508,0.29209262132644653,0.01357523538172245,-0.0023956298828125,0.00452507846057415
18511306518237,-0.6093243360519409,-9.872490882873535,0.2944868206977844,0.01463996060192585,-0.0005323622026480734,0.0077192517928779125
18511307755375,-0.5829881429672241,-9.859322547912598,0.304063618183136,0.015438503585755825,0.0023956298828125,0.0015970865497365594
18511308992537,-0.5650315880775452,-9.908403396606445,0.27413609623908997,0.0167694091796875,0.005057440605014563,0.0015970865497365594
18511310229675,-0.6021417379379272,-9.864110946655273,0.3016694188117981,0.01463996060192585,0.007453070487827063,0.0026618109550327063
18511311466837,-0.5626373887062073,-9.848548889160156,0.2861070930957794,0.010913425125181675,0.005057440605014563,0.0037265352439135313
18511312703987,-0.5793968439102173,-9.84376049041748,0.28371289372444153,0.012776692397892475,0.007453070487827063,0.0063883461989462376
18511313941150,-0.5734112858772278,-9.854534149169922,0.3232172429561615,0.010114881210029125,0.0026618109550327063,0.0039927163161337376
18511315178287,-0.5614402890205383,-9.824606895446777,0.2298433631658554,0.00984870083630085,0.005057440605014563,-0.0002661811013240367
18511316415437,-0.5602431893348694,-9.850942611694336,0.2908955216407776,0.00931633822619915,0.007453070487827063,0.0042588976211845875
18511317652600,-0.5482721924781799,-9.847352027893066,0.2932897210121155,0.012776692397892475,0.0114457868039608,0.00931633822619915
18511318889750,-0.5422866940498352,-9.849745750427246,0.2537853717803955,0.00984870083630085,0.010647243820130825,0.0042588976211845875
18511320126887,-0.5722141861915588,-9.864110946655273,0.2693476974964142,0.01171196810901165,0.008783976547420025,0.007453070487827063
18511321364062,-0.5398924946784973,-9.872490882873535,0.26336219906806946,0.01117960549890995,0.007985432632267475,0.0063883461989462376
18511322601200,-0.5315127968788147,-9.865307807922363,0.30526071786880493,0.0090501569211483,0.01357523538172245,0.0063883461989462376
18511323838350,-0.5099649429321289,-9.850942611694336,0.3124433159828186,0.0114457868039608,0.012510511092841625,0.0114457868039608
18511325075500,-0.5051765441894531,-9.815030097961426,0.28371289372444153,0.01171196810901165,0.01410759799182415,0.0090501569211483
18511326312675,-0.5351040959358215,-9.835380554199219,0.30047231912612915,0.01224433071911335,0.0186326764523983,0.005589802749454975
18511327549800,-0.5303156971931458,-9.838972091674805,0.28730419278144836,0.012776692397892475,0.015172322280704975,0.005855984054505825
18511328786962,-0.5039794445037842,-9.828198432922363,0.3064578175544739,0.010114881210029125,0.01597086526453495,0.01463996060192585
18511330024125,-0.48482584953308105,-9.798270225524902,0.3280056416988373,0.01171196810901165,0.014373779296875,0.0119781494140625
18511331261275,-0.48961424827575684,-9.850942611694336,0.3423708379268646,0.013042873702943325,0.0173017717897892,0.0119781494140625
18511332498425,-0.4944026470184326,-9.813833236694336,0.27054479718208313,0.010381062515079975,0.01463996060192585,0.01597086526453495
18511333735587,-0.4944026470184326,-9.7791166305542,0.2849099934101105,0.0029279920272529125,0.013309055007994175,0.00958251953125
18511334972725,-0.48482584953308105,-9.827000617980957,0.30047231912612915,0.008517795242369175,0.0196974016726017,0.00692070834338665
18511336209887,-0.4920084476470947,-9.797073364257812,0.2801215946674347,0.01410759799182415,0.013309055007994175,0.01224433071911335
18511337447012,-0.52552729845047,-9.762357711791992,0.2908955216407776,0.0063883461989462376,0.0181003138422966,0.0119781494140625
18511338684175,-0.50876784324646,-9.81143856048584,0.33279404044151306,0.010647243820130825,0.0186326764523983,0.0162370465695858
18511339921325,-0.5147533416748047,-9.764751434326172,0.2777273952960968,0.0114457868039608,0.01703559048473835,0.01597086526453495
18511341158487,-0.5446808934211731,-9.793481826782227,0.2849099934101105,0.0138414166867733,0.0162370465695858,0.00931633822619915
18511342395637,-0.49559974670410156,-9.793481826782227,0.2944868206977844,0.014906140975654125,0.015438503585755825,0.0077192517928779125
18511343632762,-0.5027823448181152,-9.798270225524902,0.3148375153541565,0.010114881210029125,0.0138414166867733,0.0138414166867733
18511344869937,-0.5039794445037842,-9.749189376831055,0.3315969407558441,0.007985432632267475,0.015172322280704975,0.0186326764523983
18511346107087,-0.43933600187301636,-9.789891242980957,0.30286651849746704,0.010647243820130825,0.0186326764523983,0.0157046839594841
18511347344250,-0.4920084476470947,-9.791088104248047,0.2992752194404602,0.008783976547420025,0.0191650390625,0.01410759799182415
18511348581400,-0.48482584953308105,-9.7791166305542,0.3172317147254944,0.0029279920272529125,0.01650322787463665,0.015438503585755825
18511349818537,-0.4920084476470947,-9.792284965515137,0.3148375153541565,0.0090501569211483,0.014373779296875,0.0157046839594841
18511351055687,-0.5027823448181152,-9.780314445495605,0.28371289372444153,0.01117960549890995,0.01650322787463665,0.01463996060192585
18511352292837,-0.4728548526763916,-9.818621635437012,0.29209262132644653,0.0071868896484375,0.02129448764026165,0.014373779296875
18511353530000,-0.5051765441894531,-9.858125686645508,0.29568392038345337,0.014906140975654125,0.0223592109978199,0.0157046839594841
18511354767150,-0.4800374507904053,-9.841365814208984,0.29209262132644653,0.01224433071911335,0.0196974016726017,0.010381062515079975
18511356004300,-0.4836287498474121,-9.849745750427246,0.3100491166114807,0.010381062515079975,0.0181003138422966,0.005589802749454975
18511357241462,-0.47405195236206055,-9.854534149169922,0.3280056416988373,0.007453070487827063,0.02369011752307415,0.0114457868039608
18511358478612,-0.507570743560791,-9.821015357971191,0.3016694188117981,0.01117960549890995,0.01943122036755085,0.0114457868039608
18511359715750,-0.4429273307323456,-9.872490882873535,0.27413609623908997,0.00958251953125,0.01703559048473835,0.013042873702943325
18511360952925,-0.4704606235027313,-9.885659217834473,0.29807811975479126,0.005589802749454975,0.0162370465695858,0.005057440605014563
18511362190075,-0.4225766062736511,-9.874884605407715,0.28131869435310364,0.003460354171693325,0.01703559048473835,0.007453070487827063
18511363427225,-0.46806642413139343,-9.9000244140625,0.2513911724090576,0.0015970865497365594,0.0196974016726017,0.015172322280704975
18511364664375,-0.4644751250743866,-9.84615421295166,0.25737667083740234,0.0026618109550327063,0.015438503585755825,0.012510511092841625
18511365901512,-0.4596867263317108,-9.889249801635742,0.28730419278144836,0.007453070487827063,0.014906140975654125,0.01171196810901165
18511367138675,-0.47405195236206055,-9.885659217834473,0.26575639843940735,0.007985432632267475,0.0181003138422966,0.015438503585755825
18511368375825,-0.456095427274704,-9.883264541625977,0.2513911724090576,0.0023956298828125,0.02022976242005825,0.01171196810901165
18511369612987,-0.4596867263317108,-9.873687744140625,0.31603461503982544,0.0021294488105922937,0.01650322787463665,0.00931633822619915
18511370850150,-0.4345476031303406,-9.855731010437012,0.304063618183136,0.0013309054775163531,0.01463996060192585,0.0023956298828125
18511372087287,-0.45250412821769714,-9.84256362915039,0.30047231912612915,0.0042588976211845875,0.01410759799182415,0.00931633822619915
18511373324437,-0.45250412821769714,-9.853337287902832,0.31603461503982544,0.0018632676219567657,0.012776692397892475,0.010381062515079975
18511374561587,-0.44173023104667664,-9.84256362915039,0.2825157940387726,-0.0023956298828125,0.0157046839594841,0.010114881210029125
18511375798737,-0.39863458275794983,-9.841365814208984,0.272938996553421,-0.0002661811013240367,0.01836649514734745,0.0114457868039608
18511377035887,-0.4189853072166443,-9.805453300476074,0.2585738003253937,0.0066545275039970875,0.015172322280704975,0.012776692397892475
18511378273037,-0.46327802538871765,-9.801861763000488,0.27413609623908997,0.0002661811013240367,0.010913425125181675,0.004791259765625
18511379510187,-0.43694180250167847,-9.81263542175293,0.3280056416988373,0.0018632676219567657,0.014906140975654125,0.0039927163161337376
18511380747350,-0.4465186297893524,-9.801861763000488,0.2861070930957794,0.0015970865497365594,0.01171196810901165,0.0042588976211845875
18511381984500,-0.4189853072166443,-9.773131370544434,0.28371289372444153,0.005589802749454975,0.01171196810901165,0.005589802749454975
18511383221662,-0.4141969084739685,-9.80904483795166,0.2861070930957794,0.0023956298828125,0.0173017717897892,0.008251613937318325
18511384458812,-0.4429273307323456,-9.792284965515137,0.2861070930957794,0.0010647244052961469,0.01703559048473835,0.0066545275039970875
18511385695950,-0.4165911078453064,-9.848548889160156,0.2908955216407776,0.005057440605014563,0.0138414166867733,0.008517795242369175
18511386933112,-0.43095630407333374,-9.81024169921875,0.26096799969673157,0.0010647244052961469,0.01597086526453495,0.007453070487827063
18511388170262,-0.42377370595932007,-9.838972091674805,0.26815059781074524,0.0013309054775163531,0.01410759799182415,0.008251613937318325
18511389407437,-0.42856210470199585,-9.87967300415039,0.2861070930957794,0.0018632676219567657,0.007985432632267475,0.0066545275039970875
18511390644562,-0.4225766062736511,-9.828198432922363,0.272938996553421,0.005057440605014563,0.006122165359556675,0.0039927163161337376
18511391881725,-0.4441244304180145,-9.829395294189453,0.24779987335205078,0.007985432632267475,0.0042588976211845875,0.007985432632267475
18511393118875,-0.4752490520477295,-9.80904483795166,0.31603461503982544,0.00452507846057415,0.0026618109550327063,0.012776692397892475
18511394356025,-0.4118027091026306,-9.840168952941895,0.2513911724090576,0.0026618109550327063,0.005057440605014563,0.0077192517928779125
18511395593162,-0.4034229815006256,-9.815030097961426,0.23942017555236816,-0.0002661811013240367,0.0071868896484375,0.0021294488105922937
18511396830350,-0.395043283700943,-9.81143856048584,0.2825157940387726,0.00452507846057415,0.007985432632267475,0.0021294488105922937
18511398067462,-0.4225766062736511,-9.824606895446777,0.26336219906806946,0.00452507846057415,0.0018632676219567657,0.0010647244052961469
18511399304625,-0.4405331015586853,-9.799468040466309,0.27054479718208313,-0.0021294488105922937,0.0015970865497365594,0.0029279920272529125
18511400541787,-0.42018240690231323,-9.789891242980957,0.2561795711517334,-0.0010647244052961469,0.006122165359556675,0.0063883461989462376
18511401778937,-0.4058171808719635,-9.773131370544434,0.2885012924671173,0.0023956298828125,0.004791259765625,0.0077192517928779125
18511403016087,-0.40940847992897034,-9.813833236694336,0.3232172429561615,0.0039927163161337376,0.003460354171693325,0.01117960549890995
18511404253250,-0.395043283700943,-9.819818496704102,0.2825157940387726,0.0031941730994731188,0.0021294488105922937,0.004791259765625
18511405490375,-0.4441244304180145,-9.782708168029785,0.2753331959247589,0.0002661811013240367,0.0063883461989462376,0.0066545275039970875
18511406727537,-0.33758243918418884,-9.806650161743164,0.2645592987537384,0.0071868896484375,0.0029279920272529125,0.010647243820130825
18511407964712,-0.38307228684425354,-9.795876502990723,0.25498247146606445,0.008517795242369175,0.0023956298828125,0.0066545275039970875
18511409201850,-0.3866635859012604,-9.750386238098145,0.2645592987537384,0.005855984054505825,-0.0018632676219567657,0.0063883461989462376
18511410438987,-0.3842693865299225,-9.769539833068848,0.2585738003253937,0.0018632676219567657,-0.0013309054775163531,0.00452507846057415
18511411676162,-0.3758896589279175,-9.773131370544434,0.2513911724090576,0.0037265352439135313,-0.00452507846057415,0.0007985432748682797
18511412913312,-0.4082113802433014,-9.84615421295166,0.31603461503982544,0.00452507846057415,-0.006122165359556675,-0.0005323622026480734
18511414150462,-0.3687070608139038,-9.793481826782227,0.27892449498176575,0.0018632676219567657,-0.0039927163161337376,-0.0005323622026480734
18511415387612,-0.39145198464393616,-9.815030097961426,0.24660277366638184,0.006122165359556675,-0.010114881210029125,0.0031941730994731188
18511416624775,-0.41060560941696167,-9.840168952941895,0.28131869435310364,0.005057440605014563,-0.013309055007994175,0.008783976547420025
18511417861900,-0.41778820753097534,-9.849745750427246,0.2932897210121155,0.0031941730994731188,-0.010114881210029125,0.0018632676219567657
18511419099062,-0.42377370595932007,-9.825803756713867,0.28371289372444153,0.0023956298828125,-0.008517795242369175,0.0007985432748682797
18511420336200,-0.42018240690231323,-9.849745750427246,0.2932897210121155,0.0007985432748682797,-0.007985432632267475,0.0053236219100654125
18511421573362,-0.38067808747291565,-9.886856079101562,0.27892449498176575,0.003460354171693325,-0.010381062515079975,0.0029279920272529125
18511422810512,-0.4118027091026306,-9.886856079101562,0.25498247146606445,0.004791259765625,-0.014906140975654125,0.0031941730994731188
18511424047662,-0.4034229815006256,-9.884461402893066,0.30286651849746704,0.0077192517928779125,-0.01410759799182415,0.0042588976211845875
18511425284837,-0.4058171808719635,-9.870096206665039,0.23822307586669922,0.0042588976211845875,-0.013309055007994175,0.0005323622026480734
18511426521987,-0.4010287821292877,-9.896432876586914,0.24660277366638184,0.0037265352439135313,-0.01756795309484005,-0.0029279920272529125
18511427759125,-0.37469255924224854,-9.8784761428833,0.18794482946395874,0.007453070487827063,-0.0157046839594841,-0.0023956298828125
18511428996287,-0.39863458275794983,-9.891644477844238,0.24779987335205078,0.010913425125181675,-0.01703559048473835,0.0023956298828125
