timestamp_ns,accel_x,accel_y,accel_z,gyro_x,gyro_y,gyro_z
2102339981725,0.5949591398239136,-9.920374870300293,0.6165069341659546,0.0316755510866642,0.0114457868039608,-0.0167694091796875
2102341219062,0.5949591398239136,-9.911994934082031,0.6823474764823914,0.03087700717151165,0.013309055007994175,-0.010647243820130825
2102342456412,0.6500257849693298,-9.908403396606445,0.6596025824546814,0.0324740931391716,0.010381062515079975,-0.01650322787463665
2102343693737,0.6320692300796509,-9.906009674072266,0.6811503767967224,0.03034464456140995,0.006122165359556675,-0.01650322787463665
2102344931100,0.6320692300796509,-9.9371337890625,0.6332663297653198,0.02848137728869915,0.008783976547420025,-0.0191650390625
2102346168437,0.6512228846549988,-9.90122127532959,0.6667851805686951,0.02794901467859745,0.008517795242369175,-0.0181003138422966
2102347405787,0.6189011335372925,-9.93593692779541,0.6009446382522583,0.0271504707634449,0.00931633822619915,-0.013309055007994175
2102348643137,0.5793968439102173,-9.959878921508789,0.646434485912323,0.0271504707634449,0.013042873702943325,-0.01783413253724575
2102349880450,0.645237386226654,-9.926360130310059,0.669179379940033,0.0247548408806324,0.01117960549890995,-0.01650322787463665
2102351117812,0.6260837316513062,-9.908403396606445,0.6320692300796509,0.0244886614382267,0.008783976547420025,-0.01783413253724575
2102352355162,0.6560112833976746,-9.923966407775879,0.6236895322799683,0.02182685025036335,0.007985432632267475,-0.0157046839594841
2102353592500,0.5973533391952515,-9.940725326538086,0.6236895322799683,0.02315775491297245,0.013309055007994175,-0.013042873702943325
2102354829825,0.6045359373092651,-9.927556991577148,0.6320692300796509,0.0258195661008358,0.0114457868039608,-0.0077192517928779125
2102356067162,0.5949591398239136,-9.910798072814941,0.6607996821403503,0.0223592109978199,0.014906140975654125,-0.00931633822619915
2102357304525,0.690727174282074,-9.93354320526123,0.6631938815116882,0.02262539230287075,0.014373779296875,-0.01597086526453495
2102358541875,0.6715735793113708,-9.9586820602417,0.6667851805686951,0.0228915736079216,0.01171196810901165,-0.00931633822619915
2102359779225,0.6380547285079956,-9.891644477844238,0.6248866319656372,0.02076212503015995,0.010647243820130825,-0.01224433071911335
2102361016550,0.7146692276000977,-9.90241813659668,0.628477931022644,0.01756795309484005,0.00931633822619915,-0.013309055007994175
2102362253887,0.6799532771110535,-9.90241813659668,0.6607996821403503,0.014373779296875,0.01357523538172245,-0.01171196810901165
2102363491237,0.6488286852836609,-9.922768592834473,0.6165069341659546,0.0181003138422966,0.01410759799182415,-0.01703559048473835
2102364728587,0.6596025824546814,-9.913191795349121,0.6392518877983093,0.0162370465695858,0.008783976547420025,-0.01171196810901165
2102365965912,0.6667851805686951,-9.910798072814941,0.690727174282074,0.01224433071911335,0.013042873702943325,-0.0114457868039608
2102367203262,0.6943184733390808,-9.922768592834473,0.6619967818260193,0.0186326764523983,0.01117960549890995,-0.01171196810901165
2102368440625,0.6560112833976746,-9.940725326538086,0.6332663297653198,0.0138414166867733,0.01463996060192585,-0.012776692397892475
2102369677937,0.6847416758537292,-9.921571731567383,0.6308721303939819,0.01117960549890995,0.0138414166867733,-0.014906140975654125
2102370915300,0.6224924325942993,-9.945513725280762,0.690727174282074,0.013042873702943325,0.013042873702943325,-0.0114457868039608
2102372152650,0.6835445761680603,-9.90122127532959,0.6667851805686951,0.015172322280704975,0.00984870083630085,-0.008783976547420025
2102373390000,0.6811503767967224,-9.915586471557617,0.6428431868553162,0.010913425125181675,0.0114457868039608,-0.007453070487827063
2102374627325,0.6500257849693298,-9.973047256469727,0.6392518877983093,0.010647243820130825,0.0162370465695858,-0.013309055007994175
2102375864675,0.6655880808830261,-9.921571731567383,0.6775590777397156,0.01224433071911335,0.01357523538172245,-0.00984870083630085
2102377102012,0.6308721303939819,-9.953893661499023,0.6631938815116882,0.0138414166867733,0.010647243820130825,-0.005057440605014563
2102378339350,0.6368576288223267,-9.959878921508789,0.645237386226654,0.0114457868039608,0.00958251953125,-0.010647243820130825
2102379576700,0.6715735793113708,-9.916783332824707,0.6811503767967224,0.005589802749454975,0.01410759799182415,-0.012510511092841625
2102380814037,0.6512228846549988,-9.956287384033203,0.6619967818260193,0.005057440605014563,0.01756795309484005,-0.007985432632267475
2102382051387,0.6739677786827087,-9.941922187805176,0.6548141837120056,0.0071868896484375,0.0173017717897892,-0.0063883461989462376
2102383288737,0.645237386226654,-9.961075782775879,0.6308721303939819,0.005057440605014563,0.01224433071911335,-0.008783976547420025
2102384526075,0.6308721303939819,-9.943120002746582,0.6117185354232788,0.0023956298828125,0.007453070487827063,-0.010647243820130825
2102385763425,0.6560112833976746,-9.913191795349121,0.6440402865409851,0.0077192517928779125,0.008783976547420025,-0.0053236219100654125
2102387000762,0.669179379940033,-9.917980194091797,0.6248866319656372,0.006122165359556675,0.012510511092841625,-0.0053236219100654125
2102388238087,0.6979097723960876,-9.940725326538086,0.608127236366272,-0.0021294488105922937,0.0186326764523983,-0.010913425125181675
2102389475437,0.6931213736534119,-9.941922187805176,0.6500257849693298,0.00452507846057415,0.0173017717897892,-0.006122165359556675
2102390712775,0.6811503767967224,-9.947908401489258,0.6859387755393982,-0.0007985432748682797,0.014906140975654125,-0.0066545275039970875
2102391950137,0.6847416758537292,-9.894038200378418,0.6476315855979919,-0.0002661811013240367,0.01117960549890995,-0.007985432632267475
2102393187475,0.6512228846549988,-9.90122127532959,0.6141127347946167,-0.0007985432748682797,0.013042873702943325,-0.004791259765625
2102394424800,0.629675030708313,-9.944316864013672,0.6560112833976746,0.0,0.007453070487827063,-0.0042588976211845875
2102395662150,0.6500257849693298,-9.931148529052734,0.6524199843406677,-0.0018632676219567657,0.013042873702943325,-0.007453070487827063
2102396899512,0.6320692300796509,-9.898826599121094,0.6715735793113708,-0.0042588976211845875,0.01410759799182415,-0.007453070487827063
2102398136837,0.6799532771110535,-9.915586471557617,0.6320692300796509,-0.003460354171693325,0.008783976547420025,-0.008783976547420025
2102399374200,0.6667851805686951,-9.880870819091797,0.6703764796257019,-0.0063883461989462376,0.01889885775744915,-0.008517795242369175
2102400611537,0.6715735793113708,-9.9000244140625,0.6512228846549988,-0.005855984054505825,0.01783413253724575,-0.007985432632267475
2102401848887,0.7038953304290771,-9.93354320526123,0.645237386226654,-0.00452507846057415,0.0157046839594841,-0.0066545275039970875
2102403086212,0.7170634269714355,-9.915586471557617,0.6512228846549988,-0.0021294488105922937,0.01889885775744915,-0.00692070834338665
2102404323550,0.6260837316513062,-9.939528465270996,0.6045359373092651,-0.0053236219100654125,0.013042873702943325,-0.0023956298828125
2102405560912,0.6655880808830261,-9.921571731567383,0.6584054827690125,-0.008251613937318325,0.007985432632267475,-0.0053236219100654125
2102406798262,0.6607996821403503,-9.946710586547852,0.6715735793113708,-0.008517795242369175,0.0119781494140625,-0.003460354171693325
2102408035600,0.5913678407669067,-9.888052940368652,0.6607996821403503,-0.010381062515079975,0.0162370465695858,-0.008251613937318325
2102409272937,0.608127236366272,-9.915586471557617,0.6404489874839783,-0.01357523538172245,0.0204959437251091,-0.0053236219100654125
2102410510287,0.6440402865409851,-9.941922187805176,0.6260837316513062,-0.010647243820130825,0.01756795309484005,-0.0002661811013240367
2102411747637,0.6500257849693298,-9.951498985290527,0.6548141837120056,-0.010647243820130825,0.0186326764523983,-0.0005323622026480734
2102412984962,0.6727706789970398,-9.921571731567383,0.606930136680603,-0.0114457868039608,0.0191650390625,-0.0026618109550327063
2102414222312,0.645237386226654,-9.914389610290527,0.6009446382522583,-0.012510511092841625,0.0186326764523983,-0.0002661811013240367
2102415459637,0.6643909811973572,-9.895236015319824,0.6189011335372925,-0.01703559048473835,0.0181003138422966,-0.0010647244052961469
2102416696987,0.628477931022644,-9.910798072814941,0.6476315855979919,-0.01703559048473835,0.01410759799182415,0.0
2102417934325,0.6919242739677429,-9.916783332824707,0.6236895322799683,-0.010913425125181675,0.0167694091796875,-0.0007985432748682797
2102419171675,0.6763619780540466,-9.909601211547852,0.6524199843406677,-0.0167694091796875,0.01650322787463665,0.0005323622026480734
2102420409025,0.6572083830833435,-9.884461402893066,0.6308721303939819,-0.01783413253724575,0.02182685025036335,-0.0013309054775163531
2102421646375,0.689530074596405,-9.895236015319824,0.608127236366272,-0.01783413253724575,0.0191650390625,0.0053236219100654125
2102422883700,0.6667851805686951,-9.860519409179688,0.5925649404525757,-0.02022976242005825,0.015172322280704975,-0.0010647244052961469
2102424121062,0.6524199843406677,-9.9371337890625,0.6236895322799683,-0.01783413253724575,0.0181003138422966,-0.0063883461989462376
2102425358387,0.6488286852836609,-9.86889934539795,0.5997475385665894,-0.01756795309484005,0.02022976242005825,-0.0026618109550327063
2102426595737,0.6392518877983093,-9.882067680358887,0.6440402865409851,-0.01783413253724575,0.01171196810901165,0.004791259765625
2102427833087,0.6177040338516235,-9.892841339111328,0.6344634294509888,-0.0191650390625,0.01943122036755085,0.0013309054775163531
2102429070425,0.669179379940033,-9.872490882873535,0.6248866319656372,-0.02076212503015995,0.02129448764026165,0.0007985432748682797
2102430307762,0.6308721303939819,-9.86650562286377,0.5901707410812378,-0.02076212503015995,0.01943122036755085,-0.0021294488105922937
2102431545112,0.6584054827690125,-9.911994934082031,0.646434485912323,-0.0223592109978199,0.014906140975654125,-0.0021294488105922937
2102432782462,0.6596025824546814,-9.882067680358887,0.6332663297653198,-0.02315775491297245,0.01650322787463665,-0.0018632676219567657
2102434019787,0.6560112833976746,-9.889249801635742,0.6536170840263367,-0.02022976242005825,0.01889885775744915,-0.0018632676219567657
2102435257150,0.6967126727104187,-9.876082420349121,0.6260837316513062,-0.0204959437251091,0.01996358297765255,0.0010647244052961469
2102436494500,0.6177040338516235,-9.837775230407715,0.6368576288223267,-0.0244886614382267,0.01889885775744915,0.004791259765625
2102437731850,0.6500257849693298,-9.888052940368652,0.6356605291366577,-0.02874755859375,0.01756795309484005,0.0010647244052961469
2102438969162,0.6416460871696472,-9.84615421295166,0.6117185354232788,-0.02502102218568325,0.0234239362180233,-0.0010647244052961469
2102440206512,0.6715735793113708,-9.882067680358887,0.6308721303939819,-0.02369011752307415,0.0191650390625,-0.0026618109550327063
2102441443850,0.6428431868553162,-9.86770248413086,0.6512228846549988,-0.02315775491297245,0.01703559048473835,0.0015970865497365594
2102442681200,0.6596025824546814,-9.860519409179688,0.6512228846549988,-0.0247548408806324,0.02848137728869915,-0.0002661811013240367
2102443918550,0.6141127347946167,-9.848548889160156,0.6248866319656372,-0.0276828333735466,0.023956298828125,0.004791259765625
2102445155887,0.6260837316513062,-9.860519409179688,0.5985504388809204,-0.023956298828125,0.02129448764026165,0.0021294488105922937
2102446393237,0.6344634294509888,-9.872490882873535,0.6021417379379272,-0.0263519287109375,0.0234239362180233,0.0037265352439135313
2102447630550,0.6512228846549988,-9.856928825378418,0.6117185354232788,-0.0300784632563591,0.02874755859375,-0.0021294488105922937
2102448867937,0.6548141837120056,-9.855731010437012,0.6093243360519409,-0.02901373989880085,0.02502102218568325,-0.0023956298828125
2102450105275,0.6404489874839783,-9.835380554199219,0.5961562395095825,-0.02502102218568325,0.02369011752307415,0.0002661811013240367
2102451342587,0.628477931022644,-9.883264541625977,0.6177040338516235,-0.02848137728869915,0.0268842913210392,-0.0031941730994731188
2102452579962,0.6248866319656372,-9.885659217834473,0.6260837316513062,-0.02315775491297245,0.02661811001598835,-0.0007985432748682797
2102453817287,0.6236895322799683,-9.860519409179688,0.6153098344802856,-0.023956298828125,0.0258195661008358,0.0002661811013240367
2102455054637,0.6512228846549988,-9.883264541625977,0.6212953329086304,-0.02794901467859745,0.02555338479578495,0.0015970865497365594
2102456291975,0.6811503767967224,-9.884461402893066,0.645237386226654,-0.02661811001598835,0.02076212503015995,0.0042588976211845875
2102457529337,0.6667851805686951,-9.870096206665039,0.646434485912323,-0.02608574740588665,0.0300784632563591,0.0010647244052961469
2102458766675,0.6775590777397156,-9.888052940368652,0.6260837316513062,-0.02848137728869915,0.0316755510866642,0.0010647244052961469
2102460004012,0.6224924325942993,-9.86889934539795,0.6177040338516235,-0.0292799212038517,0.0268842913210392,-0.0021294488105922937
2102461241362,0.6847416758537292,-9.832986831665039,0.6572083830833435,-0.033538818359375,0.0316755510866642,0.003460354171693325
2102462478700,0.6416460871696472,-9.859322547912598,0.6344634294509888,-0.02794901467859745,0.0268842913210392,0.0023956298828125
2102463716050,0.6739677786827087,-9.855731010437012,0.5722141861915588,-0.0268842913210392,0.0244886614382267,0.0013309054775163531
2102464953400,0.6524199843406677,-9.836577415466309,0.645237386226654,-0.0330064557492733,0.0295461006462574,-0.0026618109550327063
2102466190725,0.690727174282074,-9.86889934539795,0.6105214357376099,-0.0300784632563591,0.03087700717151165,0.0002661811013240367
2102467428075,0.6715735793113708,-9.849745750427246,0.6500257849693298,-0.0300784632563591,0.0319417305290699,0.0002661811013240367
2102468665412,0.6823474764823914,-9.872490882873535,0.5841852426528931,-0.0263519287109375,0.0327402763068676,0.0007985432748682797
2102469902775,0.6835445761680603,-9.817423820495605,0.6117185354232788,-0.02874755859375,0.0359344482421875,0.0007985432748682797
2102471140100,0.6619967818260193,-9.864110946655273,0.6021417379379272,-0.02901373989880085,0.0300784632563591,-0.0042588976211845875
2102472377450,0.6272808313369751,-9.852140426635742,0.6021417379379272,-0.03034464456140995,0.0319417305290699,-0.0013309054775163531
2102473614800,0.667982280254364,-9.861717224121094,0.5973533391952515,-0.0314093679189682,0.0346035435795784,-0.0023956298828125
2102474852125,0.6727706789970398,-9.856928825378418,0.5925649404525757,-0.03034464456140995,0.0295461006462574,-0.0005323622026480734
2102476089475,0.6536170840263367,-9.81143856048584,0.6033388376235962,-0.03087700717151165,0.0343373604118824,-0.0005323622026480734
2102477326837,0.667982280254364,-9.874884605407715,0.6129156351089478,-0.0300784632563591,0.0348697230219841,-0.0002661811013240367
2102478564175,0.6631938815116882,-9.874884605407715,0.6524199843406677,-0.03087700717151165,0.0401933453977108,-0.0029279920272529125
2102479801512,0.6428431868553162,-9.890447616577148,0.5889736413955688,-0.02794901467859745,0.0404595248401165,-0.0031941730994731188
2102481038825,0.6200982332229614,-9.848548889160156,0.586579442024231,-0.0311431884765625,0.033272635191679,0.0
2102482276187,0.6212953329086304,-9.813833236694336,0.5973533391952515,-0.02981228195130825,0.038063894957304,-0.00452507846057415
2102483513537,0.6775590777397156,-9.847352027893066,0.606930136680603,-0.0292799212038517,0.0412580706179142,-0.0013309054775163531
2102484750875,0.669179379940033,-9.883264541625977,0.5841852426528931,-0.0330064557492733,0.0444522425532341,-0.0021294488105922937
2102485988225,0.6500257849693298,-9.834183692932129,0.5937620401382446,-0.0316755510866642,0.0367329902946949,-0.0018632676219567657
2102487225562,0.6224924325942993,-9.81143856048584,0.5722141861915588,-0.0271504707634449,0.0399271659553051,-0.00452507846057415
2102488462912,0.6763619780540466,-9.835380554199219,0.5949591398239136,-0.023956298828125,0.0393948033452034,-0.005589802749454975
2102489700225,0.6560112833976746,-9.821015357971191,0.6021417379379272,-0.02608574740588665,0.0393948033452034,-0.005057440605014563
2102490937600,0.7122750282287598,-9.834183692932129,0.5985504388809204,-0.0295461006462574,0.0401933453977108,-0.0042588976211845875
2102492174950,0.6835445761680603,-9.832986831665039,0.5949591398239136,-0.0276828333735466,0.0404595248401165,-0.00958251953125
2102493412300,0.6643909811973572,-9.817423820495605,0.606930136680603,-0.02502102218568325,0.0359344482421875,-0.0077192517928779125
2102494649625,0.6631938815116882,-9.805453300476074,0.6368576288223267,-0.0271504707634449,0.038063894957304,-0.0026618109550327063
2102495886962,0.6332663297653198,-9.830592155456543,0.6236895322799683,-0.0244886614382267,0.042855154722929,-0.005855984054505825
2102497124300,0.6560112833976746,-9.798270225524902,0.6344634294509888,-0.02315775491297245,0.0441860631108284,-0.0077192517928779125
2102498361662,0.6763619780540466,-9.786299705505371,0.6368576288223267,-0.02874755859375,0.0433875173330307,-0.008783976547420025
2102499599000,0.6991068720817566,-9.800664901733398,0.6105214357376099,-0.02608574740588665,0.0359344482421875,-0.004791259765625
2102500836350,0.6655880808830261,-9.829395294189453,0.5793968439102173,-0.0311431884765625,0.0460493303835392,-0.0042588976211845875
2102502073687,0.6979097723960876,-9.825803756713867,0.6009446382522583,-0.0244886614382267,0.0441860631108284,-0.005589802749454975
2102503311025,0.645237386226654,-9.795876502990723,0.6189011335372925,-0.0215606689453125,0.0399271659553051,-0.00984870083630085
2102504548362,0.5829881429672241,-9.815030097961426,0.6093243360519409,-0.0292799212038517,0.0463155098259449,-0.0071868896484375
2102505785712,0.6799532771110535,-9.817423820495605,0.6177040338516235,-0.02661811001598835,0.0447184219956398,-0.0063883461989462376
2102507023075,0.7134721279144287,-9.825803756713867,0.6344634294509888,-0.02262539230287075,0.0409918874502182,-0.01171196810901165
2102508260400,0.6572083830833435,-9.831789016723633,0.586579442024231,-0.0252872034907341,0.0401933453977108,-0.00958251953125
2102509497750,0.667982280254364,-9.819818496704102,0.5638344883918762,-0.02502102218568325,0.0484449602663517,-0.00692070834338665
2102510735087,0.6967126727104187,-9.798270225524902,0.6057330369949341,-0.0247548408806324,0.0473802350461483,-0.008783976547420025
2102511972437,0.6967126727104187,-9.791088104248047,0.6129156351089478,-0.01943122036755085,0.0465816929936409,-0.008251613937318325
2102513209787,0.6859387755393982,-9.81143856048584,0.6033388376235962,-0.01783413253724575,0.0457831472158432,-0.00931633822619915
2102514447100,0.6751648783683777,-9.794679641723633,0.5829881429672241,-0.01836649514734745,0.04791259765625,-0.007985432632267475
2102515684450,0.6655880808830261,-9.815030097961426,0.5602431893348694,-0.02315775491297245,0.0513729527592659,-0.0090501569211483
2102516921800,0.6727706789970398,-9.834183692932129,0.6189011335372925,-0.0220930315554142,0.0481787770986557,-0.00984870083630085
2102518159137,0.706289529800415,-9.81143856048584,0.5889736413955688,-0.02369011752307415,0.0471140518784523,-0.01224433071911335
2102519396487,0.6811503767967224,-9.798270225524902,0.5770025849342346,-0.0223592109978199,0.0503082275390625,-0.012776692397892475
2102520633837,0.6931213736534119,-9.832986831665039,0.5805939435958862,-0.02022976242005825,0.0471140518784523,-0.014906140975654125
2102521871175,0.6655880808830261,-9.84615421295166,0.6117185354232788,-0.02315775491297245,0.0497758649289608,-0.0138414166867733
2102523108537,0.6823474764823914,-9.84495735168457,0.5829881429672241,-0.02076212503015995,0.052703857421875,-0.010647243820130825
2102524345875,0.6847416758537292,-9.84376049041748,0.5626373887062073,-0.01836649514734745,0.0537685826420784,-0.0114457868039608
2102525583212,0.6847416758537292,-9.84495735168457,0.5937620401382446,-0.02022976242005825,0.0508405901491642,-0.01410759799182415
2102526820550,0.6488286852836609,-9.805453300476074,0.5841852426528931,-0.01889885775744915,0.0471140518784523,-0.013042873702943325
2102528057875,0.6967126727104187,-9.837775230407715,0.5817910432815552,-0.01756795309484005,0.0487111397087574,-0.0077192517928779125
2102529295237,0.6488286852836609,-9.783905029296875,0.524330198764801,-0.0162370465695858,0.0537685826420784,-0.01171196810901165
2102530532575,0.6703764796257019,-9.853337287902832,0.5710170865058899,-0.01889885775744915,0.0497758649289608,-0.010114881210029125
2102531769925,0.6643909811973572,-9.835380554199219,0.568622887134552,-0.0191650390625,0.0439198799431324,-0.015172322280704975
2102533007262,0.7146692276000977,-9.806650161743164,0.5805939435958862,-0.01889885775744915,0.0455169677734375,-0.014373779296875
2102534244625,0.7314286231994629,-9.832986831665039,0.569819986820221,-0.0173017717897892,0.0457831472158432,-0.010381062515079975
2102535481962,0.689530074596405,-9.840168952941895,0.5722141861915588,-0.01836649514734745,0.0447184219956398,-0.0114457868039608
2102536719287,0.690727174282074,-9.800664901733398,0.5626373887062073,-0.0167694091796875,0.0492435023188591,-0.01224433071911335
2102537956637,0.7050924301147461,-9.798270225524902,0.5578489899635315,-0.0162370465695858,0.0553656667470932,-0.0173017717897892
2102539193987,0.729034423828125,-9.823410034179688,0.5434837937355042,-0.01703559048473835,0.052703857421875,-0.0186326764523983
2102540431312,0.730231523513794,-9.793481826782227,0.5734112858772278,-0.01783413253724575,0.0545671246945858,-0.01889885775744915
2102541668675,0.6739677786827087,-9.793481826782227,0.5901707410812378,-0.01756795309484005,0.0537685826420784,-0.0173017717897892
2102542906025,0.6883329749107361,-9.75517463684082,0.6021417379379272,-0.01943122036755085,0.047646414488554,-0.01703559048473835
2102544143350,0.7314286231994629,-9.783905029296875,0.6236895322799683,-0.0186326764523983,0.0521714948117733,-0.02315775491297245
2102545380700,0.6931213736534119,-9.800664901733398,0.6380547285079956,-0.01463996060192585,0.052703857421875,-0.0173017717897892
2102546618037,0.7230489253997803,-9.770737648010254,0.5506663918495178,-0.013042873702943325,0.0473802350461483,-0.013309055007994175
2102547855412,0.6883329749107361,-9.783905029296875,0.5997475385665894,-0.0191650390625,0.0505744069814682,-0.01463996060192585
2102549092750,0.7433996200561523,-9.793481826782227,0.5889736413955688,-0.01410759799182415,0.0497758649289608,-0.0167694091796875
2102550330075,0.7266402244567871,-9.771934509277344,0.608127236366272,-0.01117960549890995,0.052703857421875,-0.023956298828125
2102551567437,0.7158663272857666,-9.782708168029785,0.6105214357376099,-0.010647243820130825,0.0503082275390625,-0.01943122036755085
2102552804762,0.727837324142456,-9.771934509277344,0.5710170865058899,-0.010647243820130825,0.0519053116440773,-0.0210283063352108
2102554042125,0.7134721279144287,-9.759963035583496,0.5901707410812378,-0.01357523538172245,0.0516391322016716,-0.02129448764026165
2102555279487,0.7134721279144287,-9.769539833068848,0.6177040338516235,-0.01117960549890995,0.0492435023188591,-0.0215606689453125
2102556516787,0.7206547260284424,-9.813833236694336,0.5662286877632141,-0.0090501569211483,0.0497758649289608,-0.01836649514734745
2102557754150,0.750582218170166,-9.804256439208984,0.5327098965644836,-0.00984870083630085,0.0489773228764534,-0.01650322787463665
2102558991500,0.7230489253997803,-9.782708168029785,0.5638344883918762,-0.008251613937318325,0.0487111397087574,-0.0186326764523983
2102560228825,0.7038953304290771,-9.804256439208984,0.5602431893348694,-0.007985432632267475,0.0465816929936409,-0.01756795309484005
2102561466175,0.7182605266571045,-9.78869342803955,0.5327098965644836,-0.0063883461989462376,0.0516391322016716,-0.0157046839594841
2102562703500,0.7254431247711182,-9.78869342803955,0.5566518902778625,-0.0021294488105922937,0.0508405901491642,-0.01224433071911335
2102563940862,0.706289529800415,-9.824606895446777,0.547075092792511,-0.006122165359556675,0.052437674254179,-0.014373779296875
2102565178212,0.7445967197418213,-9.821015357971191,0.5770025849342346,-0.0090501569211483,0.052703857421875,-0.0157046839594841
2102566415525,0.7026982307434082,-9.807847023010254,0.5374982953071594,-0.00931633822619915,0.0532362200319767,-0.01783413253724575
2102567652887,0.6979097723960876,-9.825803756713867,0.5303156971931458,-0.013042873702943325,0.0545671246945858,-0.01783413253724575
2102568890250,0.7314286231994629,-9.856928825378418,0.5303156971931458,-0.013309055007994175,0.0508405901491642,-0.01889885775744915
2102570127562,0.6775590777397156,-9.821015357971191,0.5135562419891357,-0.008517795242369175,0.0495096817612648,-0.0210283063352108
2102571364925,0.6991068720817566,-9.849745750427246,0.5566518902778625,-0.010114881210029125,0.0519053116440773,-0.02022976242005825
2102572602262,0.7469909191131592,-9.852140426635742,0.6200982332229614,-0.0114457868039608,0.0513729527592659,-0.01943122036755085
2102573839600,0.7086837291717529,-9.813833236694336,0.5363011956214905,-0.01171196810901165,0.052703857421875,-0.01783413253724575
2102575076962,0.689530074596405,-9.831789016723633,0.5339069962501526,-0.0119781494140625,0.0487111397087574,-0.0181003138422966
2102576314275,0.7601590752601624,-9.84376049041748,0.5578489899635315,-0.010114881210029125,0.0465816929936409,-0.01943122036755085
2102577551637,0.6931213736534119,-9.819818496704102,0.6057330369949341,-0.01357523538172245,0.0473802350461483,-0.02262539230287075
2102578788987,0.729034423828125,-9.824606895446777,0.5722141861915588,-0.01171196810901165,0.0505744069814682,-0.01996358297765255
2102580026325,0.7314286231994629,-9.829395294189453,0.5889736413955688,-0.00452507846057415,0.0513729527592659,-0.01889885775744915
2102581263662,0.7601590752601624,-9.801861763000488,0.5602431893348694,-0.008517795242369175,0.0508405901491642,-0.02129448764026165
2102582501012,0.729034423828125,-9.858125686645508,0.5159504413604736,-0.013309055007994175,0.0508405901491642,-0.0162370465695858
2102583738350,0.751779317855835,-9.81143856048584,0.5506663918495178,-0.008783976547420025,0.0492435023188591,-0.0181003138422966
2102584975675,0.7410054206848145,-9.816226959228516,0.5422866940498352,-0.005589802749454975,0.0503082275390625,-0.0204959437251091
2102586213025,0.7457938194274902,-9.834183692932129,0.5554547905921936,-0.0138414166867733,0.0556318499147892,-0.0258195661008358
2102587450375,0.7649474740028381,-9.832986831665039,0.5374982953071594,-0.010913425125181675,0.0487111397087574,-0.02555338479578495
2102588687725,0.7410054206848145,-9.773131370544434,0.5386953949928284,-0.008517795242369175,0.047646414488554,-0.02129448764026165
2102589925075,0.6991068720817566,-9.84615421295166,0.5770025849342346,-0.010913425125181675,0.0508405901491642,-0.0228915736079216
2102591162425,0.730231523513794,-9.86650562286377,0.585382342338562,-0.0063883461989462376,0.0487111397087574,-0.02502102218568325
2102592399762,0.7817068696022034,-9.874884605407715,0.5913678407669067,-0.006122165359556675,0.0481787770986557,-0.0228915736079216
2102593637100,0.7422025203704834,-9.861717224121094,0.5817910432815552,-0.007453070487827063,0.0481787770986557,-0.02129448764026165
2102594874450,0.727837324142456,-9.864110946655273,0.5746083855628967,-0.0053236219100654125,0.0548333041369915,-0.01756795309484005
2102596111787,0.6967126727104187,-9.908403396606445,0.5889736413955688,-0.0053236219100654125,0.0505744069814682,-0.0210283063352108
2102597349150,0.6703764796257019,-9.836577415466309,0.5925649404525757,-0.0077192517928779125,0.0543009415268898,-0.02608574740588665
2102598586487,0.7194576263427734,-9.8784761428833,0.5638344883918762,-0.013042873702943325,0.0508405901491642,-0.02794901467859745
2102599823837,0.7314286231994629,-9.876082420349121,0.568622887134552,-0.007453070487827063,0.0481787770986557,-0.0247548408806324
2102601061162,0.7469909191131592,-9.90122127532959,0.5422866940498352,-0.008517795242369175,0.0569627545773983,-0.0295461006462574
2102602298525,0.7350199222564697,-9.886856079101562,0.569819986820221,-0.0063883461989462376,0.052703857421875,-0.0292799212038517
2102603535850,0.7697358727455139,-9.907206535339355,0.5159504413604736,-0.008517795242369175,0.0468478724360466,-0.0292799212038517
2102604773187,0.7218518257141113,-9.888052940368652,0.5614402890205383,-0.015172322280704975,0.0519053116440773,-0.0282151959836483
2102606010537,0.7445967197418213,-9.919178009033203,0.5710170865058899,-0.010114881210029125,0.0556318499147892,-0.0276828333735466
2102607247875,0.707486629486084,-9.921571731567383,0.5554547905921936,-0.0063883461989462376,0.0513729527592659,-0.0271504707634449
2102608485225,0.7493851184844971,-9.945513725280762,0.5554547905921936,-0.0119781494140625,0.0500420443713665,-0.0351359061896801
2102609722587,0.7386112213134766,-9.9000244140625,0.5542576909065247,-0.010647243820130825,0.04791259765625,-0.0343373604118824
2102610959900,0.7625532746315002,-9.90241813659668,0.5638344883918762,-0.010114881210029125,0.0487111397087574,-0.02608574740588665
2102612197262,0.7733271718025208,-9.9371337890625,0.5506663918495178,-0.013309055007994175,0.0556318499147892,-0.02901373989880085
2102613434612,0.7613561749458313,-9.886856079101562,0.5805939435958862,-0.0119781494140625,0.057228934019804,-0.02874755859375
2102614671950,0.7565677165985107,-9.892841339111328,0.5614402890205383,-0.01117960549890995,0.0532362200319767,-0.0295461006462574
2102615909287,0.7649474740028381,-9.922768592834473,0.5231330990791321,-0.013042873702943325,0.0556318499147892,-0.0295461006462574
2102617146637,0.7565677165985107,-9.896432876586914,0.5374982953071594,-0.0119781494140625,0.0540347620844841,-0.02741665206849575
2102618383987,0.7266402244567871,-9.896432876586914,0.5386953949928284,-0.00984870083630085,0.0582936592400074,-0.0319417305290699
2102619621312,0.730231523513794,-9.888052940368652,0.5817910432815552,-0.00984870083630085,0.052437674254179,-0.0356682650744915
2102620858675,0.7362170219421387,-9.911994934082031,0.5327098965644836,-0.015438503585755825,0.0548333041369915,-0.033272635191679
2102622096012,0.7445967197418213,-9.914389610290527,0.5506663918495178,-0.01171196810901165,0.0574951171875,-0.0322079136967659
2102623333350,0.751779317855835,-9.84376049041748,0.5446808934211731,-0.008783976547420025,0.0548333041369915,-0.0343373604118824
2102624570712,0.7709329724311829,-9.858125686645508,0.5051765441894531,-0.014906140975654125,0.0519053116440773,-0.0393948033452034
2102625808037,0.7541735172271729,-9.86770248413086,0.5398924946784973,-0.01597086526453495,0.0537685826420784,-0.0377977155148983
2102627045375,0.7433996200561523,-9.86770248413086,0.5674257874488831,-0.01783413253724575,0.0601569265127182,-0.0364668108522892
2102628282737,0.7422025203704834,-9.856928825378418,0.5829881429672241,-0.00984870083630085,0.0582936592400074,-0.0356682650744915
2102629520062,0.7637503743171692,-9.910798072814941,0.5997475385665894,-0.010647243820130825,0.0553656667470932,-0.0372653529047966
2102630757412,0.7936778664588928,-9.883264541625977,0.6141127347946167,-0.01463996060192585,0.0566965714097023,-0.0385962575674057
2102631994775,0.7350199222564697,-9.862914085388184,0.5530605912208557,-0.0162370465695858,0.0580274797976017,-0.0351359061896801
2102633232100,0.7733271718025208,-9.86650562286377,0.5841852426528931,-0.0167694091796875,0.0556318499147892,-0.038063894957304
2102634469437,0.7769184708595276,-9.885659217834473,0.5985504388809204,-0.0173017717897892,0.0569627545773983,-0.0338049978017807
2102635706787,0.7912836670875549,-9.895236015319824,0.5590460896492004,-0.015438503585755825,0.0505744069814682,-0.0316755510866642
2102636944137,0.7948749661445618,-9.880870819091797,0.545877993106842,-0.01224433071911335,0.0521714948117733,-0.0372653529047966
2102638181475,0.790086567401886,-9.856928825378418,0.5710170865058899,-0.0196974016726017,0.0574951171875,-0.0346035435795784
2102639418837,0.8188169598579407,-9.86650562286377,0.5889736413955688,-0.0204959437251091,0.0614878311753273,-0.0356682650744915
2102640656175,0.7493851184844971,-9.865307807922363,0.5734112858772278,-0.01463996060192585,0.0617540143430233,-0.033272635191679
2102641893525,0.7817068696022034,-9.853337287902832,0.6021417379379272,-0.0138414166867733,0.0556318499147892,-0.0351359061896801
2102643130862,0.7529764175415039,-9.84256362915039,0.5530605912208557,-0.015172322280704975,0.0580274797976017,-0.0327402763068676
2102644368212,0.7350199222564697,-9.785102844238281,0.606930136680603,-0.01410759799182415,0.0601569265127182,-0.03034464456140995
2102645605550,0.7817068696022034,-9.823410034179688,0.5758054852485657,-0.0162370465695858,0.0564303919672966,-0.0306108258664608
2102646842875,0.7733271718025208,-9.852140426635742,0.5746083855628967,-0.02076212503015995,0.0566965714097023,-0.0306108258664608
2102648080225,0.7936778664588928,-9.828198432922363,0.6057330369949341,-0.01597086526453495,0.057228934019804,-0.0292799212038517
2102649317575,0.8248025178909302,-9.823410034179688,0.547075092792511,-0.01463996060192585,0.0545671246945858,-0.02981228195130825
2102650554912,0.8236054182052612,-9.84495735168457,0.5710170865058899,-0.01703559048473835,0.0545671246945858,-0.0316755510866642
2102651792250,0.7613561749458313,-9.769539833068848,0.5578489899635315,-0.01889885775744915,0.0550994873046875,-0.03087700717151165
2102653029612,0.790086567401886,-9.773131370544434,0.5410895943641663,-0.0173017717897892,0.0569627545773983,-0.0311431884765625
2102654266950,0.8044517636299133,-9.815030097961426,0.5410895943641663,-0.0186326764523983,0.0577612966299057,-0.0300784632563591
2102655504287,0.790086567401886,-9.840168952941895,0.5901707410812378,-0.014373779296875,0.0548333041369915,-0.0292799212038517
2102656741625,0.7960720658302307,-9.837775230407715,0.5746083855628967,-0.014906140975654125,0.0540347620844841,-0.02661811001598835
2102657978962,0.7721300721168518,-9.817423820495605,0.5482721924781799,-0.010114881210029125,0.0535023994743824,-0.03034464456140995
2102659216312,0.7960720658302307,-9.84256362915039,0.5901707410812378,-0.01463996060192585,0.0561642125248909,-0.02741665206849575
2102660453650,0.7936778664588928,-9.798270225524902,0.585382342338562,-0.01171196810901165,0.0585598424077034,-0.0223592109978199
2102661691000,0.790086567401886,-9.836577415466309,0.5518634915351868,-0.010647243820130825,0.0497758649289608,-0.01836649514734745
2102662928362,0.7709329724311829,-9.824606895446777,0.5638344883918762,-0.010913425125181675,0.0545671246945858,-0.02182685025036335
2102664165700,0.8008604645729065,-9.855731010437012,0.5662286877632141,-0.013309055007994175,0.0580274797976017,-0.0204959437251091
2102665403037,0.8032546639442444,-9.873687744140625,0.5746083855628967,-0.012776692397892475,0.0556318499147892,-0.0186326764523983
2102666640400,0.788889467716217,-9.872490882873535,0.6332663297653198,-0.012776692397892475,0.0558980293571949,-0.01996358297765255
2102667877737,0.8307880163192749,-9.832986831665039,0.5817910432815552,-0.00984870083630085,0.0532362200319767,-0.02022976242005825
2102669115050,0.8200140595436096,-9.818621635437012,0.6009446382522583,-0.008517795242369175,0.0519053116440773,-0.0196974016726017
2102670352400,0.828393816947937,-9.823410034179688,0.5590460896492004,-0.0114457868039608,0.0513729527592659,-0.01996358297765255
2102671589762,0.8056488633155823,-9.848548889160156,0.6021417379379272,-0.008517795242369175,0.0505744069814682,-0.015172322280704975
2102672827100,0.8379706144332886,-9.84615421295166,0.5793968439102173,-0.0119781494140625,0.0487111397087574,-0.0138414166867733
2102674064450,0.8056488633155823,-9.827000617980957,0.606930136680603,-0.012510511092841625,0.0508405901491642,-0.01889885775744915
2102675301787,0.7769184708595276,-9.815030097961426,0.5949591398239136,-0.00984870083630085,0.052703857421875,-0.0162370465695858
2102676539137,0.8092401623725891,-9.84376049041748,0.5829881429672241,-0.0077192517928779125,0.0519053116440773,-0.01171196810901165
2102677776475,0.8020575642585754,-9.819818496704102,0.5841852426528931,-0.0119781494140625,0.0484449602663517,-0.00931633822619915
2102679013825,0.8212112188339233,-9.830592155456543,0.5985504388809204,-0.00984870083630085,0.0508405901491642,-0.01117960549890995
2102680251162,0.8056488633155823,-9.825803756713867,0.5889736413955688,-0.0063883461989462376,0.0519053116440773,-0.0119781494140625
2102681488500,0.7769184708595276,-9.836577415466309,0.6021417379379272,-0.007985432632267475,0.0471140518784523,-0.01117960549890995
2102682725850,0.7553706169128418,-9.853337287902832,0.5494692921638489,-0.008251613937318325,0.0495096817612648,-0.01171196810901165
2102683963175,0.7876923680305481,-9.827000617980957,0.5746083855628967,-0.004791259765625,0.0497758649289608,-0.006122165359556675
2102685200525,0.8152256608009338,-9.825803756713867,0.5422866940498352,-0.0063883461989462376,0.04791259765625,-0.004791259765625
2102686437887,0.7841010689735413,-9.818621635437012,0.5710170865058899,-0.0071868896484375,0.0495096817612648,-0.010913425125181675
2102687675212,0.8164227604866028,-9.891644477844238,0.5554547905921936,-0.0071868896484375,0.047646414488554,-0.0071868896484375
2102688912562,0.8056488633155823,-9.856928825378418,0.5985504388809204,-0.0090501569211483,0.0484449602663517,-0.0018632676219567657
2102690149912,0.8032546639442444,-9.821015357971191,0.6129156351089478,-0.00931633822619915,0.0537685826420784,-0.0010647244052961469
2102691387250,0.7852981686592102,-9.864110946655273,0.6332663297653198,-0.0077192517928779125,0.0492435023188591,0.0013309054775163531
2102692624600,0.7936778664588928,-9.872490882873535,0.5231330990791321,-0.0066545275039970875,0.0452507846057415,0.0021294488105922937
2102693861950,0.7876923680305481,-9.825803756713867,0.5997475385665894,-0.0023956298828125,0.0465816929936409,-0.0005323622026480734
2102695099287,0.8020575642585754,-9.86650562286377,0.5925649404525757,-0.0037265352439135313,0.0447184219956398,-0.0018632676219567657
2102696336637,0.828393816947937,-9.86650562286377,0.5626373887062073,-0.008251613937318325,0.0449846051633358,-0.0023956298828125
2102697573987,0.7793126702308655,-9.84615421295166,0.5746083855628967,-0.0066545275039970875,0.0492435023188591,-0.0010647244052961469
2102698811325,0.7864952683448792,-9.84615421295166,0.5841852426528931,-0.00692070834338665,0.0566965714097023,-0.0015970865497365594
2102700048637,0.7601590752601624,-9.793481826782227,0.6045359373092651,-0.0026618109550327063,0.0487111397087574,-0.0005323622026480734
2102701285975,0.7697358727455139,-9.821015357971191,0.5781997442245483,-0.0039927163161337376,0.0473802350461483,0.0013309054775163531
2102702523350,0.7709329724311829,-9.80904483795166,0.5662286877632141,-0.0021294488105922937,0.0433875173330307,0.010114881210029125
2102703760687,0.790086567401886,-9.794679641723633,0.5758054852485657,-0.00452507846057415,0.0505744069814682,0.005589802749454975
2102704998050,0.7637503743171692,-9.774328231811523,0.5817910432815552,-0.003460354171693325,0.0513729527592659,-0.0023956298828125
2102706235375,0.788889467716217,-9.829395294189453,0.5841852426528931,-0.0037265352439135313,0.0481787770986557,0.005589802749454975
2102707472712,0.7589619159698486,-9.862914085388184,0.5327098965644836,-0.0042588976211845875,0.0455169677734375,0.01224433071911335
2102708710062,0.767341673374176,-9.87967300415039,0.5638344883918762,-0.010114881210029125,0.0503082275390625,0.00931633822619915
2102709947412,0.7493851184844971,-9.859322547912598,0.5602431893348694,-0.004791259765625,0.0535023994743824,0.00931633822619915
2102711184750,0.7553706169128418,-9.848548889160156,0.5386953949928284,-0.0077192517928779125,0.0481787770986557,0.010114881210029125
2102712422100,0.7529764175415039,-9.864110946655273,0.4884171485900879,-0.0090501569211483,0.0513729527592659,0.0119781494140625
2102713659437,0.7541735172271729,-9.86650562286377,0.5279214978218079,-0.0007985432748682797,0.0481787770986557,0.012776692397892475
2102714896775,0.7326257228851318,-9.906009674072266,0.5662286877632141,-0.0042588976211845875,0.0511067695915699,0.015172322280704975
2102716134125,0.7529764175415039,-9.896432876586914,0.5566518902778625,-0.008251613937318325,0.0487111397087574,0.01463996060192585
2102717371462,0.7697358727455139,-9.910798072814941,0.5482721924781799,-0.0066545275039970875,0.0505744069814682,0.01650322787463665
2102718608812,0.729034423828125,-9.90361499786377,0.5805939435958862,-0.00931633822619915,0.0548333041369915,0.02076212503015995
2102719846162,0.7733271718025208,-9.864110946655273,0.5937620401382446,-0.003460354171693325,0.0537685826420784,0.0210283063352108
2102721083500,0.8020575642585754,-9.832986831665039,0.5746083855628967,-0.007453070487827063,0.0508405901491642,0.0167694091796875
2102722320850,0.7745242714881897,-9.872490882873535,0.585382342338562,-0.0114457868039608,0.0540347620844841,0.0181003138422966
2102723558200,0.7649474740028381,-9.870096206665039,0.5937620401382446,-0.007453070487827063,0.0529700368642807,0.02129448764026165
2102724795550,0.7553706169128418,-9.841365814208984,0.6272808313369751,-0.007453070487827063,0.0497758649289608,0.02076212503015995
2102726032887,0.727837324142456,-9.859322547912598,0.5410895943641663,-0.010913425125181675,0.0505744069814682,0.02555338479578495
2102727270225,0.7410054206848145,-9.852140426635742,0.5913678407669067,-0.01171196810901165,0.052437674254179,0.02981228195130825
2102728507575,0.7601590752601624,-9.81024169921875,0.569819986820221,-0.010647243820130825,0.0519053116440773,0.03087700717151165
2102729744912,0.7529764175415039,-9.827000617980957,0.5662286877632141,-0.008251613937318325,0.0558980293571949,0.02794901467859745
2102730982275,0.7314286231994629,-9.783905029296875,0.5446808934211731,-0.015438503585755825,0.0606892891228199,0.02901373989880085
2102732219612,0.7218518257141113,-9.798270225524902,0.5793968439102173,-0.01224433071911335,0.0569627545773983,0.0340711809694767
2102733456950,0.751779317855835,-9.823410034179688,0.5973533391952515,-0.010913425125181675,0.052703857421875,0.0340711809694767
2102734694300,0.7182605266571045,-9.797073364257812,0.6033388376235962,-0.0077192517928779125,0.0585598424077034,0.03087700717151165
2102735931637,0.707486629486084,-9.801861763000488,0.5518634915351868,-0.008783976547420025,0.0636172816157341,0.03034464456140995
2102737168975,0.7386112213134766,-9.780314445495605,0.5746083855628967,-0.010114881210029125,0.0641496405005455,0.0377977155148983
2102738406312,0.751779317855835,-9.80904483795166,0.6177040338516235,-0.008251613937318325,0.0617540143430233,0.0377977155148983
2102739643662,0.7433996200561523,-9.883264541625977,0.6236895322799683,-0.007453070487827063,0.0566965714097023,0.0343373604118824
2102740881012,0.7326257228851318,-9.90241813659668,0.5614402890205383,-0.010381062515079975,0.0617540143430233,0.038063894957304
2102742118362,0.6967126727104187,-9.815030097961426,0.5626373887062073,-0.010114881210029125,0.0678761824965477,0.0420566126704216
2102743355687,0.667982280254364,-9.819818496704102,0.6045359373092651,-0.008783976547420025,0.0660129114985466,0.0449846051633358
2102744593037,0.6787561774253845,-9.855731010437012,0.569819986820221,-0.0066545275039970875,0.0644158273935318,0.0444522425532341
2102745830375,0.6775590777397156,-9.818621635437012,0.5781997442245483,-0.0071868896484375,0.0652143657207489,0.0433875173330307
2102747067712,0.7003040313720703,-9.853337287902832,0.5913678407669067,-0.007453070487827063,0.062286376953125,0.0471140518784523
2102748305075,0.6799532771110535,-9.84376049041748,0.6117185354232788,-0.00692070834338665,0.0657467320561409,0.0460493303835392
2102749542412,0.6524199843406677,-9.848548889160156,0.5602431893348694,-0.0119781494140625,0.071868896484375,0.0556318499147892
2102750779762,0.6859387755393982,-9.835380554199219,0.586579442024231,-0.010647243820130825,0.0694732666015625,0.0487111397087574
2102752017087,0.6931213736534119,-9.859322547912598,0.6189011335372925,-0.007453070487827063,0.071868896484375,0.0492435023188591
2102753254462,0.6476315855979919,-9.86650562286377,0.5949591398239136,-0.007985432632267475,0.0739983469247818,0.0564303919672966
2102754491787,0.6883329749107361,-9.86650562286377,0.6212953329086304,-0.007453070487827063,0.0731998011469841,0.0545671246945858
2102755729125,0.6859387755393982,-9.861717224121094,0.6033388376235962,-0.0042588976211845875,0.0724012553691864,0.0582936592400074
2102756966462,0.6607996821403503,-9.889249801635742,0.5937620401382446,-0.007985432632267475,0.0710703507065773,0.0556318499147892
2102758203812,0.6871358752250671,-9.853337287902832,0.5770025849342346,-0.0077192517928779125,0.0758616104722023,0.0561642125248909
2102759441162,0.6919242739677429,-9.848548889160156,0.5590460896492004,-0.0018632676219567657,0.0801205113530159,0.0601569265127182
2102760678512,0.690727174282074,-9.861717224121094,0.5710170865058899,-0.008517795242369175,0.0787896066904068,0.0633511021733284
2102761915875,0.6488286852836609,-9.841365814208984,0.5662286877632141,-0.006122165359556675,0.0771925151348114,0.062020193785429
2102763153187,0.6488286852836609,-9.872490882873535,0.586579442024231,-0.008517795242369175,0.0774587020277977,0.0630849227309227
2102764390550,0.690727174282074,-9.862914085388184,0.5889736413955688,-0.0021294488105922937,0.0825161412358284,0.0644158273935318
2102765627887,0.669179379940033,-9.90122127532959,0.6165069341659546,-0.004791259765625,0.080919049680233,0.0638834610581398
2102766865237,0.629675030708313,-9.855731010437012,0.6200982332229614,-0.00452507846057415,0.0875735804438591,0.0676099956035614
2102768102575,0.6703764796257019,-9.876082420349121,0.5985504388809204,-0.0037265352439135313,0.0846455842256546,0.0644158273935318
2102769339925,0.6715735793113708,-9.87967300415039,0.5650315880775452,-0.005057440605014563,0.0838470458984375,0.0673438161611557
2102770577250,0.6979097723960876,-9.832986831665039,0.5913678407669067,-0.0071868896484375,0.0894368439912796,0.0684085413813591
2102771814612,0.6775590777397156,-9.914389610290527,0.5518634915351868,-0.005057440605014563,0.0881059393286705,0.0729336217045784
2102773051950,0.6560112833976746,-9.891644477844238,0.6009446382522583,-0.00452507846057415,0.0907677561044693,0.0731998011469841
2102774289287,0.6655880808830261,-9.864110946655273,0.606930136680603,-0.010381062515079975,0.0878397598862648,0.0716027170419693
2102775526637,0.6153098344802856,-9.836577415466309,0.6057330369949341,-0.007985432632267475,0.0838470458984375,0.0739983469247818
2102776763987,0.6643909811973572,-9.861717224121094,0.6177040338516235,-0.007453070487827063,0.0889044851064682,0.0721350759267807
2102778001325,0.646434485912323,-9.853337287902832,0.6105214357376099,-0.00692070834338665,0.0944942906498909,0.0668114572763443
2102779238662,0.6667851805686951,-9.828198432922363,0.6356605291366577,-0.0037265352439135313,0.0918324738740921,0.0745307058095932
2102780476012,0.6715735793113708,-9.859322547912598,0.645237386226654,-0.003460354171693325,0.0918324738740921,0.0825161412358284
2102781713350,0.6356605291366577,-9.836577415466309,0.646434485912323,-0.0039927163161337376,0.0947604700922966,0.0801205113530159
2102782950700,0.628477931022644,-9.832986831665039,0.6212953329086304,-0.00452507846057415,0.0939619243144989,0.0843794047832489
2102784188037,0.608127236366272,-9.852140426635742,0.5817910432815552,-0.008251613937318325,0.0968899205327034,0.0830485001206398
2102785425387,0.6248866319656372,-9.84615421295166,0.5949591398239136,-0.006122165359556675,0.0995517298579216,0.0830485001206398
2102786662725,0.6320692300796509,-9.832986831665039,0.5997475385665894,-0.005589802749454975,0.100084088742733,0.0833146795630455
2102787900100,0.6200982332229614,-9.831789016723633,0.6093243360519409,-0.00452507846057415,0.0998179093003273,0.0833146795630455
2102789137412,0.6260837316513062,-9.847352027893066,0.6380547285079956,-0.005057440605014563,0.0992855504155159,0.0811852365732193
2102790374787,0.6655880808830261,-9.849745750427246,0.6153098344802856,-0.0005323622026480734,0.1083357036113739,0.0795881450176239
2102791612100,0.6847416758537292,-9.86889934539795,0.5985504388809204,-0.0026618109550327063,0.1064724400639534,0.0822499617934227
2102792849475,0.6392518877983093,-9.877279281616211,0.5793968439102173,-0.0021294488105922937,0.1032782644033432,0.0867750346660614
2102794086800,0.628477931022644,-9.892841339111328,0.6236895322799683,-0.0031941730994731188,0.1043429896235466,0.0897030308842659
2102795324137,0.6332663297653198,-9.858125686645508,0.5758054852485657,-0.0026618109550327063,0.1032782644033432,0.090501569211483
2102796561500,0.5985504388809204,-9.870096206665039,0.608127236366272,-0.00452507846057415,0.1083357036113739,0.0889044851064682
2102797798825,0.6105214357376099,-9.865307807922363,0.6380547285079956,-0.0018632676219567657,0.1107313334941864,0.0870412141084671
2102799036162,0.6380547285079956,-9.832986831665039,0.6260837316513062,-0.0039927163161337376,0.1094004288315773,0.0873074010014534
2102800273525,0.5901707410812378,-9.850942611694336,0.5913678407669067,-0.0066545275039970875,0.1064724400639534,0.0923648402094841
2102801510850,0.6045359373092651,-9.84256362915039,0.6344634294509888,-0.0053236219100654125,0.1104651540517807,0.0960913747549057
2102802748200,0.6607996821403503,-9.830592155456543,0.586579442024231,-0.0018632676219567657,0.1125946044921875,0.0889044851064682
2102803985550,0.6272808313369751,-9.904812812805176,0.5877765417098999,-0.0042588976211845875,0.1136593297123909,0.0881059393286705
2102805222900,0.6153098344802856,-9.838972091674805,0.5901707410812378,0.0007985432748682797,0.114990234375,0.0928971990942955
2102806460237,0.629675030708313,-9.86770248413086,0.5925649404525757,0.00452507846057415,0.1184505894780159,0.0942281037569046
2102807697600,0.6380547285079956,-9.84615421295166,0.5147533416748047,0.0005323622026480734,0.1168534979224205,0.0873074010014534
2102808934937,0.6380547285079956,-9.853337287902832,0.6009446382522583,-0.0013309054775163531,0.1176520437002182,0.0870412141084671
2102810172275,0.6392518877983093,-9.84495735168457,0.5781997442245483,-0.0039927163161337376,0.1131269633769989,0.0939619243144989
2102811409625,0.6189011335372925,-9.882067680358887,0.5985504388809204,-0.0026618109550327063,0.109666608273983,0.0960913747549057
2102812646987,0.6165069341659546,-9.818621635437012,0.5949591398239136,0.0013309054775163531,0.1165873184800148,0.095292828977108
2102813884300,0.645237386226654,-9.84256362915039,0.6189011335372925,-0.0023956298828125,0.1203138530254364,0.0875735804438591
2102815121650,0.6368576288223267,-9.889249801635742,0.6236895322799683,-0.00692070834338665,0.1235080286860466,0.0883721262216568
2102816359012,0.6356605291366577,-9.895236015319824,0.5949591398239136,-0.0021294488105922937,0.1203138530254364,0.0926310196518898
2102817596337,0.6093243360519409,-9.883264541625977,0.5841852426528931,0.0,0.1227094829082489,0.0913001149892807
2102818833687,0.6548141837120056,-9.855731010437012,0.5913678407669067,0.0,0.1269683837890625,0.0881059393286705
2102820071025,0.6320692300796509,-9.84256362915039,0.6236895322799683,-0.0005323622026480734,0.129364013671875,0.0947604700922966
2102821308375,0.5973533391952515,-9.853337287902832,0.6153098344802856,-0.0023956298828125,0.1267022043466568,0.0926310196518898
2102822545725,0.6224924325942993,-9.886856079101562,0.6153098344802856,0.0005323622026480734,0.1219109445810318,0.0923648402094841
2102823783050,0.6057330369949341,-9.909601211547852,0.608127236366272,0.0031941730994731188,0.1290978342294693,0.0942281037569046
2102825020400,0.6165069341659546,-9.86770248413086,0.6500257849693298,-0.003460354171693325,0.1344214528799057,0.0947604700922966
2102826257750,0.608127236366272,-9.885659217834473,0.6524199843406677,-0.00931633822619915,0.1376156210899353,0.0974222794175148
2102827495087,0.6392518877983093,-9.815030097961426,0.6021417379379272,-0.0002661811013240367,0.1370832622051239,0.0968899205327034
2102828732437,0.6344634294509888,-9.86889934539795,0.5674257874488831,0.0029279920272529125,0.1341552734375,0.0987531840801239
2102829969800,0.6093243360519409,-9.854534149169922,0.6272808313369751,-0.0010647244052961469,0.1338890939950943,0.0920986607670784
2102831207125,0.568622887134552,-9.84495735168457,0.6189011335372925,0.0013309054775163531,0.1354861706495285,0.0891706645488739
2102832444462,0.6380547285079956,-9.850942611694336,0.585382342338562,0.0066545275039970875,0.1349538117647171,0.0963575541973114
2102833681812,0.6356605291366577,-9.849745750427246,0.5913678407669067,0.0026618109550327063,0.1338890939950943,0.0960913747549057
2102834919162,0.5973533391952515,-9.861717224121094,0.606930136680603,0.0037265352439135313,0.1322920024394989,0.0950266495347023
2102836156512,0.6596025824546814,-9.849745750427246,0.5925649404525757,-0.0005323622026480734,0.1360185444355011,0.0982208251953125
2102837393850,0.6344634294509888,-9.81024169921875,0.6009446382522583,0.0013309054775163531,0.1338890939950943,0.100084088742733
2102838631212,0.6177040338516235,-9.825803756713867,0.6021417379379272,0.0023956298828125,0.1354861706495285,0.0915662944316864
2102839868537,0.5985504388809204,-9.81263542175293,0.5770025849342346,0.0007985432748682797,0.1381479948759079,0.095292828977108
2102841105875,0.5710170865058899,-9.84495735168457,0.6093243360519409,0.0026618109550327063,0.1394788920879364,0.1027459055185318
2102842343225,0.6200982332229614,-9.848548889160156,0.5925649404525757,0.0018632676219567657,0.1386803537607193,0.0968899205327034
2102843580587,0.6787561774253845,-9.823410034179688,0.6320692300796509,0.0023956298828125,0.1424068808555603,0.095292828977108
2102844817937,0.5925649404525757,-9.838972091674805,0.5770025849342346,0.003460354171693325,0.1432054340839386,0.0923648402094841
2102846055262,0.5985504388809204,-9.850942611694336,0.6416460871696472,0.005589802749454975,0.1362847238779068,0.091033935546875
2102847292600,0.608127236366272,-9.835380554199219,0.5973533391952515,0.0066545275039970875,0.1394788920879364,0.0913001149892807
2102848529937,0.6320692300796509,-9.78869342803955,0.6380547285079956,0.005057440605014563,0.1413421630859375,0.0923648402094841
2102849767312,0.5925649404525757,-9.81143856048584,0.6428431868553162,0.0053236219100654125,0.1432054340839386,0.0902353897690773
2102851004650,0.6416460871696472,-9.864110946655273,0.6440402865409851,0.006122165359556675,0.1450686901807785,0.0913001149892807
2102852241987,0.6165069341659546,-9.818621635437012,0.5997475385665894,0.005057440605014563,0.1413421630859375,0.0934295654296875
2102853479325,0.608127236366272,-9.824606895446777,0.608127236366272,-0.0010647244052961469,0.1418745219707489,0.091033935546875
2102854716650,0.646434485912323,-9.84256362915039,0.6488286852836609,0.0015970865497365594,0.1461334228515625,0.0881059393286705
2102855954012,0.608127236366272,-9.825803756713867,0.6344634294509888,0.0018632676219567657,0.1458672434091568,0.0897030308842659
2102857191362,0.645237386226654,-9.876082420349121,0.628477931022644,0.0053236219100654125,0.147464320063591,0.0920986607670784
2102858428712,0.6488286852836609,-9.817423820495605,0.6404489874839783,0.004791259765625,0.14373779296875,0.0899692103266716
2102859666050,0.5841852426528931,-9.852140426635742,0.629675030708313,0.008783976547420025,0.1418745219707489,0.0886383056640625
2102860903400,0.5997475385665894,-9.829395294189453,0.5913678407669067,0.012776692397892475,0.142673060297966,0.0902353897690773
2102862140762,0.6105214357376099,-9.862914085388184,0.5734112858772278,0.008783976547420025,0.1442701518535614,0.0907677561044693
2102863378075,0.5434837937355042,-9.825803756713867,0.6428431868553162,0.0039927163161337376,0.1450686901807785,0.0897030308842659
2102864615437,0.5997475385665894,-9.850942611694336,0.6500257849693298,0.0053236219100654125,0.1453348845243454,0.0873074010014534
2102865852775,0.5997475385665894,-9.838972091674805,0.6009446382522583,0.005589802749454975,0.1445363312959671,0.0875735804438591
2102867090125,0.6033388376235962,-9.876082420349121,0.6200982332229614,0.008517795242369175,0.1445363312959671,0.0897030308842659
2102868327450,0.6212953329086304,-9.871294021606445,0.5925649404525757,0.0071868896484375,0.1458672434091568,0.0846455842256546
2102869564800,0.5913678407669067,-9.856928825378418,0.585382342338562,0.005589802749454975,0.1495937705039978,0.0883721262216568
2102870802162,0.5590460896492004,-9.817423820495605,0.5877765417098999,0.0071868896484375,0.1479966938495636,0.0891706645488739
2102872039500,0.5997475385665894,-9.86650562286377,0.585382342338562,0.005057440605014563,0.1458672434091568,0.0870412141084671
2102873276850,0.6165069341659546,-9.853337287902832,0.5841852426528931,0.005855984054505825,0.1445363312959671,0.0899692103266716
2102874514175,0.6344634294509888,-9.830592155456543,0.6212953329086304,0.0066545275039970875,0.1461334228515625,0.0875735804438591
2102875751525,0.6607996821403503,-9.835380554199219,0.5829881429672241,0.0063883461989462376,0.1440039724111557,0.0886383056640625
2102876988875,0.608127236366272,-9.813833236694336,0.569819986820221,0.0039927163161337376,0.1487952321767807,0.0902353897690773
2102878226200,0.645237386226654,-9.813833236694336,0.606930136680603,0.0063883461989462376,0.1466657817363739,0.0846455842256546
2102879463562,0.6548141837120056,-9.819818496704102,0.6368576288223267,0.008517795242369175,0.1450686901807785,0.0920986607670784
2102880700912,0.6248866319656372,-9.882067680358887,0.6392518877983093,0.00984870083630085,0.1445363312959671,0.0942281037569046
2102881938250,0.6763619780540466,-9.840168952941895,0.6200982332229614,0.0053236219100654125,0.1416083425283432,0.0939619243144989
2102883175587,0.7038953304290771,-9.84376049041748,0.6212953329086304,0.0039927163161337376,0.1410759836435318,0.0846455842256546
2102884412937,0.6955155730247498,-9.795876502990723,0.6596025824546814,0.008517795242369175,0.1418745219707489,0.0854441300034523
2102885650287,0.6596025824546814,-9.815030097961426,0.6584054827690125,0.010114881210029125,0.1397450715303421,0.090501569211483
2102886887625,0.6332663297653198,-9.822212219238281,0.6368576288223267,0.0042588976211845875,0.1416083425283432,0.0865088552236557
2102888124962,0.6153098344802856,-9.792284965515137,0.6093243360519409,0.010114881210029125,0.1418745219707489,0.0843794047832489
2102889362325,0.6344634294509888,-9.815030097961426,0.6117185354232788,0.0090501569211483,0.1450686901807785,0.0867750346660614
2102890599675,0.6655880808830261,-9.855731010437012,0.6105214357376099,0.0053236219100654125,0.1408098042011261,0.0851779505610466
2102891837000,0.6596025824546814,-9.84615421295166,0.606930136680603,0.00984870083630085,0.1400112509727478,0.0806528702378273
2102893074337,0.6667851805686951,-9.848548889160156,0.5722141861915588,0.0090501569211483,0.1461334228515625,0.0811852365732193
2102894311700,0.6045359373092651,-9.884461402893066,0.5758054852485657,0.0066545275039970875,0.1413421630859375,0.0891706645488739
2102895549037,0.646434485912323,-9.877279281616211,0.569819986820221,0.006122165359556675,0.1365509033203125,0.0851779505610466
2102896786387,0.6272808313369751,-9.86650562286377,0.5710170865058899,0.0090501569211483,0.1397450715303421,0.0785234197974205
2102898023725,0.6045359373092651,-9.860519409179688,0.6320692300796509,0.00931633822619915,0.1400112509727478,0.0822499617934227
2102899261075,0.6440402865409851,-9.858125686645508,0.6404489874839783,0.0023956298828125,0.1392127126455307,0.0806528702378273
2102900498425,0.6572083830833435,-9.877279281616211,0.6308721303939819,0.006122165359556675,0.1386803537607193,0.0803866907954216
2102901735750,0.6248866319656372,-9.84495735168457,0.5997475385665894,0.005057440605014563,0.1360185444355011,0.0745307058095932
2102902973100,0.6739677786827087,-9.848548889160156,0.586579442024231,0.006122165359556675,0.1373494416475296,0.0716027170419693
2102904210450,0.7086837291717529,-9.870096206665039,0.5602431893348694,0.005057440605014563,0.1373494416475296,0.0731998011469841
2102905447787,0.6428431868553162,-9.848548889160156,0.6057330369949341,0.004791259765625,0.1357523649930954,0.0742645263671875
2102906685125,0.6703764796257019,-9.872490882873535,0.5674257874488831,0.005855984054505825,0.1336229145526886,0.0758616104722023
2102907922475,0.7003040313720703,-9.873687744140625,0.5877765417098999,0.0023956298828125,0.1365509033203125,0.0737321600317955
2102909159800,0.6524199843406677,-9.87967300415039,0.646434485912323,0.0063883461989462376,0.1344214528799057,0.0724012553691864
2102910397175,0.6739677786827087,-9.854534149169922,0.5913678407669067,0.0015970865497365594,0.1352199912071228,0.0758616104722023
2102911634525,0.6248866319656372,-9.864110946655273,0.5937620401382446,-0.0013309054775163531,0.1365509033203125,0.0705379918217659
2102912871862,0.6787561774253845,-9.848548889160156,0.608127236366272,0.006122165359556675,0.1320258229970932,0.0686747208237648
2102914109212,0.6847416758537292,-9.84615421295166,0.6165069341659546,0.0029279920272529125,0.1322920024394989,0.0694732666015625
2102915346550,0.6739677786827087,-9.832986831665039,0.6153098344802856,0.0015970865497365594,0.1277669221162796,0.0726674422621727
2102916583900,0.6859387755393982,-9.861717224121094,0.6177040338516235,0.0,0.1261698454618454,0.0724012553691864
2102917821237,0.6703764796257019,-9.86650562286377,0.5985504388809204,0.0021294488105922937,0.1267022043466568,0.0716027170419693
2102919058600,0.6500257849693298,-9.84256362915039,0.6021417379379272,0.0026618109550327063,0.1309611052274704,0.0625525563955307
2102920295937,0.6799532771110535,-9.80904483795166,0.6248866319656372,-0.0037265352439135313,0.1290978342294693,0.0649481862783432
2102921533287,0.7026982307434082,-9.84256362915039,0.5961562395095825,0.0029279920272529125,0.1264360249042511,0.0724012553691864
2102922770612,0.6643909811973572,-9.837775230407715,0.6356605291366577,0.0039927163161337376,0.1229756623506546,0.0662790909409523
2102924007950,0.6631938815116882,-9.837775230407715,0.6380547285079956,0.0026618109550327063,0.119781494140625,0.0625525563955307
2102925245287,0.6631938815116882,-9.862914085388184,0.6212953329086304,0.005057440605014563,0.1251051127910614,0.0636172816157341
2102926482637,0.6847416758537292,-9.917980194091797,0.628477931022644,0.0029279920272529125,0.124040387570858,0.0657467320561409
2102927720000,0.7038953304290771,-9.873687744140625,0.5805939435958862,-0.0026618109550327063,0.119249127805233,0.0606892891228199
2102928957337,0.7026982307434082,-9.880870819091797,0.6033388376235962,-0.007985432632267475,0.1168534979224205,0.062286376953125
2102930194700,0.6643909811973572,-9.856928825378418,0.6165069341659546,0.0037265352439135313,0.1187167689204216,0.0612216517329216
2102931432037,0.6428431868553162,-9.855731010437012,0.608127236366272,-0.0010647244052961469,0.119249127805233,0.0612216517329216
2102932669362,0.6476315855979919,-9.883264541625977,0.6177040338516235,-0.00452507846057415,0.1168534979224205,0.0596245639026165
2102933906712,0.6823474764823914,-9.8784761428833,0.6045359373092651,-0.005589802749454975,0.1160549595952034,0.0625525563955307
2102935144062,0.6596025824546814,-9.927556991577148,0.585382342338562,-0.0031941730994731188,0.1147240549325943,0.0574951171875
2102936381400,0.690727174282074,-9.86889934539795,0.5722141861915588,0.0007985432748682797,0.1165873184800148,0.0606892891228199
2102937618750,0.646434485912323,-9.898826599121094,0.5626373887062073,-0.0018632676219567657,0.1139255091547966,0.0644158273935318
2102938856087,0.606930136680603,-9.888052940368652,0.6117185354232788,-0.0013309054775163531,0.1075371652841568,0.0596245639026165
2102940093437,0.6320692300796509,-9.908403396606445,0.6009446382522583,0.0,0.1078033447265625,0.0633511021733284
2102941330787,0.6572083830833435,-9.914389610290527,0.628477931022644,-0.0005323622026480734,0.1083357036113739,0.0590922012925148
2102942568125,0.6619967818260193,-9.90361499786377,0.5722141861915588,-0.0010647244052961469,0.10540771484375,0.0614878311753273
2102943805487,0.6057330369949341,-9.880870819091797,0.5781997442245483,-0.0002661811013240367,0.114457868039608,0.057228934019804
2102945042825,0.6428431868553162,-9.906009674072266,0.6177040338516235,-0.0002661811013240367,0.1088680699467659,0.0638834610581398
2102946280175,0.6871358752250671,-9.877279281616211,0.6129156351089478,-0.0015970865497365594,0.1070047989487648,0.062286376953125
2102947517512,0.6655880808830261,-9.837775230407715,0.645237386226654,-0.0021294488105922937,0.1030120849609375,0.0654805526137352
2102948754837,0.7098808288574219,-9.877279281616211,0.6212953329086304,-0.0031941730994731188,0.1014149934053421,0.0625525563955307
2102949992200,0.6775590777397156,-9.86650562286377,0.5997475385665894,-0.0007985432748682797,0.095292828977108,0.0638834610581398
2102951229550,0.6548141837120056,-9.86889934539795,0.5889736413955688,-0.0023956298828125,0.0979546457529068,0.0689409002661705
2102952466887,0.6248866319656372,-9.861717224121094,0.5925649404525757,0.0010647244052961469,0.0992855504155159,0.0686747208237648
2102953704250,0.6607996821403503,-9.855731010437012,0.6248866319656372,0.008251613937318325,0.095292828977108,0.0652143657207489
2102954941575,0.6512228846549988,-9.871294021606445,0.6392518877983093,0.0018632676219567657,0.0947604700922966,0.0673438161611557
2102956178925,0.6440402865409851,-9.856928825378418,0.6572083830833435,-0.0039927163161337376,0.0947604700922966,0.0686747208237648
2102957416275,0.6787561774253845,-9.860519409179688,0.585382342338562,0.004791259765625,0.0944942906498909,0.0676099956035614
2102958653625,0.6512228846549988,-9.821015357971191,0.5889736413955688,0.00452507846057415,0.0918324738740921,0.0633511021733284
2102959890962,0.6727706789970398,-9.829395294189453,0.6500257849693298,-0.0010647244052961469,0.0907677561044693,0.0612216517329216
2102961128312,0.6332663297653198,-9.854534149169922,0.629675030708313,0.0018632676219567657,0.0923648402094841,0.0662790909409523
2102962365650,0.6703764796257019,-9.84376049041748,0.6153098344802856,0.0066545275039970875,0.0902353897690773,0.0646820068359375
2102963603012,0.646434485912323,-9.822212219238281,0.6141127347946167,-0.0005323622026480734,0.0838470458984375,0.0681423619389534
2102964840350,0.6272808313369751,-9.84495735168457,0.6021417379379272,0.0005323622026480734,0.0819837749004364,0.0742645263671875
2102966077687,0.606930136680603,-9.852140426635742,0.6727706789970398,0.0015970865497365594,0.0803866907954216,0.0737321600317955
2102967315050,0.6775590777397156,-9.823410034179688,0.6512228846549988,0.0018632676219567657,0.0811852365732193,0.0657467320561409
2102968552375,0.667982280254364,-9.830592155456543,0.5817910432815552,0.0029279920272529125,0.0835808664560318,0.0708041712641716
2102969789737,0.6703764796257019,-9.861717224121094,0.6596025824546814,-0.0002661811013240367,0.0841132253408432,0.0705379918217659
2102971027075,0.6619967818260193,-9.818621635437012,0.5925649404525757,0.0015970865497365594,0.0777248814702034,0.0697394460439682
2102972264437,0.5961562395095825,-9.870096206665039,0.6021417379379272,0.0026618109550327063,0.0803866907954216,0.0673438161611557
2102973501775,0.629675030708313,-9.873687744140625,0.606930136680603,0.005057440605014563,0.0787896066904068,0.071868896484375
2102974739100,0.6332663297653198,-9.908403396606445,0.6236895322799683,0.00452507846057415,0.0758616104722023,0.0668114572763443
2102975976462,0.6488286852836609,-9.84376049041748,0.667982280254364,0.00452507846057415,0.0729336217045784,0.0654805526137352
2102977213787,0.6655880808830261,-9.861717224121094,0.6308721303939819,0.0026618109550327063,0.0779910609126091,0.0652143657207489
2102978451150,0.6584054827690125,-9.847352027893066,0.6141127347946167,0.0042588976211845875,0.0745307058095932,0.0708041712641716
2102979688487,0.6021417379379272,-9.871294021606445,0.628477931022644,0.005855984054505825,0.0724012553691864,0.0692070871591568
2102980925837,0.5889736413955688,-9.859322547912598,0.6200982332229614,0.0021294488105922937,0.071336530148983,0.0724012553691864
2102982163187,0.6129156351089478,-9.874884605407715,0.6153098344802856,0.0053236219100654125,0.0708041712641716,0.0769263356924057
2102983400500,0.6536170840263367,-9.864110946655273,0.629675030708313,0.004791259765625,0.0686747208237648,0.0755954310297966
2102984637875,0.5997475385665894,-9.897629737854004,0.586579442024231,0.0010647244052961469,0.0694732666015625,0.0700056254863739
2102985875212,0.6129156351089478,-9.854534149169922,0.5841852426528931,0.0029279920272529125,0.0678761824965477,0.0702718123793602
2102987112562,0.6560112833976746,-9.871294021606445,0.6141127347946167,0.0010647244052961469,0.0633511021733284,0.0729336217045784
2102988349900,0.5877765417098999,-9.870096206665039,0.5985504388809204,0.0023956298828125,0.0638834610581398,0.0753292515873909
2102989587275,0.6248866319656372,-9.906009674072266,0.6392518877983093,0.0071868896484375,0.0614878311753273,0.0731998011469841
2102990824600,0.5781997442245483,-9.90122127532959,0.6607996821403503,0.003460354171693325,0.0630849227309227,0.071868896484375
2102992061937,0.6488286852836609,-9.882067680358887,0.5746083855628967,0.0063883461989462376,0.062020193785429,0.0798543319106102
2102993299287,0.5841852426528931,-9.864110946655273,0.5937620401382446,0.0029279920272529125,0.0588260218501091,0.0755954310297966
2102994536637,0.585382342338562,-9.906009674072266,0.5901707410812378,0.0023956298828125,0.0601569265127182,0.0708041712641716
2102995773962,0.6224924325942993,-9.885659217834473,0.6596025824546814,0.0063883461989462376,0.0617540143430233,0.0753292515873909
2102997011312,0.5937620401382446,-9.895236015319824,0.586579442024231,0.010114881210029125,0.0601569265127182,0.076127789914608
2102998248662,0.5937620401382446,-9.860519409179688,0.6117185354232788,0.00931633822619915,0.0535023994743824,0.0795881450176239
2102999486012,0.5710170865058899,-9.874884605407715,0.6524199843406677,0.0010647244052961469,0.0521714948117733,0.0825161412358284
2103000723350,0.6344634294509888,-9.885659217834473,0.6236895322799683,0.0023956298828125,0.0564303919672966,0.0785234197974205
2103001960687,0.5566518902778625,-9.87967300415039,0.6057330369949341,0.0002661811013240367,0.0521714948117733,0.0769263356924057
2103003198050,0.5925649404525757,-9.922768592834473,0.5985504388809204,0.0023956298828125,0.0508405901491642,0.0795881450176239
2103004435400,0.5997475385665894,-9.847352027893066,0.608127236366272,0.0039927163161337376,0.0511067695915699,0.0777248814702034
2103005672737,0.5937620401382446,-9.873687744140625,0.6320692300796509,0.0039927163161337376,0.0447184219956398,0.0811852365732193
2103006910100,0.5506663918495178,-9.873687744140625,0.6560112833976746,0.0042588976211845875,0.0519053116440773,0.0774587020277977
2103008147437,0.6045359373092651,-9.928754806518555,0.6212953329086304,0.0029279920272529125,0.0500420443713665,0.0763939768075943
2103009384762,0.569819986820221,-9.860519409179688,0.5781997442245483,0.0031941730994731188,0.0457831472158432,0.0734659805893898
2103010622112,0.5219359993934631,-9.838972091674805,0.6117185354232788,0.0015970865497365594,0.0457831472158432,0.0737321600317955
2103011859450,0.5554547905921936,-9.877279281616211,0.6021417379379272,-0.0013309054775163531,0.0449846051633358,0.0721350759267807
2103013096800,0.5710170865058899,-9.874884605407715,0.6356605291366577,-0.0023956298828125,0.0441860631108284,0.0708041712641716
2103014334150,0.5135562419891357,-9.84615421295166,0.608127236366272,0.003460354171693325,0.0465816929936409,0.0734659805893898
2103015571512,0.5650315880775452,-9.836577415466309,0.6236895322799683,0.0029279920272529125,0.0481787770986557,0.0755954310297966
2103016808850,0.5506663918495178,-9.896432876586914,0.628477931022644,-0.0013309054775163531,0.0481787770986557,0.0731998011469841
2103018046175,0.5734112858772278,-9.897629737854004,0.6332663297653198,-0.0002661811013240367,0.043121337890625,0.0737321600317955
2103019283525,0.5123591423034668,-9.889249801635742,0.5961562395095825,0.005057440605014563,0.0399271659553051,0.0739983469247818
2103020520875,0.5267243981361389,-9.850942611694336,0.5734112858772278,-0.0002661811013240367,0.0444522425532341,0.0700056254863739
2103021758225,0.5183447003364563,-9.838972091674805,0.6033388376235962,-0.0013309054775163531,0.0367329902946949,0.0771925151348114
2103022995587,0.5829881429672241,-9.870096206665039,0.6236895322799683,-0.0026618109550327063,0.0391286201775074,0.0729336217045784
2103024232912,0.5578489899635315,-9.87967300415039,0.6584054827690125,0.0005323622026480734,0.0441860631108284,0.0700056254863739
2103025470262,0.5530605912208557,-9.894038200378418,0.6129156351089478,0.0013309054775163531,0.0399271659553051,0.0734659805893898
2103026707587,0.5530605912208557,-9.90361499786377,0.6308721303939819,-0.004791259765625,0.0362006276845932,0.0700056254863739
2103027944950,0.5590460896492004,-9.850942611694336,0.6045359373092651,-0.0037265352439135313,0.0441860631108284,0.0660129114985466
2103029182300,0.5734112858772278,-9.911994934082031,0.6057330369949341,-0.0013309054775163531,0.0351359061896801,0.0734659805893898
2103030419650,0.5351040959358215,-9.884461402893066,0.646434485912323,-0.005589802749454975,0.0407257080078125,0.0708041712641716
2103031656962,0.5374982953071594,-9.834183692932129,0.6009446382522583,-0.007985432632267475,0.0372653529047966,0.0630849227309227
2103032894312,0.5638344883918762,-9.914389610290527,0.6392518877983093,-0.0015970865497365594,0.0372653529047966,0.0705379918217659
2103034131675,0.5638344883918762,-9.895236015319824,0.6787561774253845,0.0005323622026480734,0.0388624407351017,0.0731998011469841
2103035369025,0.5482721924781799,-9.86650562286377,0.606930136680603,-0.0026618109550327063,0.0351359061896801,0.0708041712641716
2103036606362,0.5386953949928284,-9.890447616577148,0.6440402865409851,0.0010647244052961469,0.0375315360724926,0.0686747208237648
2103037843712,0.5339069962501526,-9.883264541625977,0.6404489874839783,-0.0026618109550327063,0.0327402763068676,0.0700056254863739
2103039081062,0.5482721924781799,-9.841365814208984,0.6320692300796509,-0.0015970865497365594,0.0324740931391716,0.0660129114985466
2103040318400,0.5386953949928284,-9.860519409179688,0.6009446382522583,-0.0015970865497365594,0.033538818359375,0.0689409002661705
2103041555762,0.5901707410812378,-9.90122127532959,0.6165069341659546,-0.0031941730994731188,0.02981228195130825,0.0606892891228199
2103042793087,0.5542576909065247,-9.884461402893066,0.6260837316513062,-0.0031941730994731188,0.0319417305290699,0.0612216517329216
2103044030437,0.5231330990791321,-9.862914085388184,0.6272808313369751,-0.0039927163161337376,0.0322079136967659,0.0641496405005455
2103045267775,0.5530605912208557,-9.889249801635742,0.5985504388809204,-0.0031941730994731188,0.0324740931391716,0.0636172816157341
2103046505125,0.5386953949928284,-9.840168952941895,0.6165069341659546,-0.0037265352439135313,0.0346035435795784,0.0641496405005455
2103047742462,0.5171476006507874,-9.847352027893066,0.6224924325942993,-0.0077192517928779125,0.0327402763068676,0.0606892891228199
2103048979812,0.52552729845047,-9.837775230407715,0.6057330369949341,-0.00452507846057415,0.0311431884765625,0.0657467320561409
2103050217150,0.49799394607543945,-9.828198432922363,0.6428431868553162,-0.005589802749454975,0.02555338479578495,0.0649481862783432
2103051454500,0.5099649429321289,-9.835380554199219,0.6177040338516235,-0.007985432632267475,0.0311431884765625,0.0630849227309227
2103052691837,0.4800374507904053,-9.836577415466309,0.6272808313369751,-0.005057440605014563,0.0324740931391716,0.0614878311753273
2103053929212,0.4752490520477295,-9.835380554199219,0.6033388376235962,-0.007985432632267475,0.02874755859375,0.0601569265127182
2103055166537,0.4991910457611084,-9.835380554199219,0.6153098344802856,-0.005589802749454975,0.0306108258664608,0.0652143657207489
2103056403887,0.5219359993934631,-9.829395294189453,0.6177040338516235,-0.0037265352439135313,0.02901373989880085,0.0662790909409523
2103057641225,0.45489832758903503,-9.819818496704102,0.6392518877983093,-0.005057440605014563,0.0311431884765625,0.0628187358379364
2103058878575,0.5207388997077942,-9.771934509277344,0.6524199843406677,-0.006122165359556675,0.0311431884765625,0.0628187358379364
2103060115912,0.4967968463897705,-9.832986831665039,0.6105214357376099,-0.0077192517928779125,0.0316755510866642,0.062020193785429
2103061353275,0.5135562419891357,-9.830592155456543,0.6045359373092651,-0.005057440605014563,0.0300784632563591,0.0585598424077034
2103062590600,0.4991910457611084,-9.821015357971191,0.6332663297653198,-0.0026618109550327063,0.0300784632563591,0.0580274797976017
2103063827962,0.4441244304180145,-9.815030097961426,0.6524199843406677,-0.0026618109550327063,0.0258195661008358,0.0604231096804142
2103065065312,0.5051765441894531,-9.819818496704102,0.6476315855979919,-0.0031941730994731188,0.0247548408806324,0.0580274797976017
2103066302675,0.4692635238170624,-9.81263542175293,0.5949591398239136,-0.006122165359556675,0.02502102218568325,0.0556318499147892
2103067539987,0.4596867263317108,-9.81024169921875,0.6368576288223267,-0.0077192517928779125,0.0271504707634449,0.0566965714097023
2103068777337,0.43095630407333374,-9.837775230407715,0.606930136680603,-0.005589802749454975,0.0276828333735466,0.0521714948117733
2103070014700,0.4800374507904053,-9.817423820495605,0.6260837316513062,0.0031941730994731188,0.03087700717151165,0.0487111397087574
2103071252037,0.4812345504760742,-9.787496566772461,0.6021417379379272,-0.004791259765625,0.02502102218568325,0.0489773228764534
2103072489375,0.4381389021873474,-9.806650161743164,0.5758054852485657,-0.0031941730994731188,0.0295461006462574,0.052703857421875
2103073726737,0.4812345504760742,-9.827000617980957,0.5925649404525757,-0.0015970865497365594,0.0300784632563591,0.0487111397087574
2103074964062,0.456095427274704,-9.807847023010254,0.6224924325942993,0.0,0.02901373989880085,0.0545671246945858
2103076201400,0.43694180250167847,-9.848548889160156,0.6655880808830261,-0.008517795242369175,0.0268842913210392,0.0500420443713665
2103077438762,0.46327802538871765,-9.834183692932129,0.6368576288223267,-0.004791259765625,0.02661811001598835,0.0505744069814682
2103078676100,0.48482584953308105,-9.81263542175293,0.5997475385665894,-0.0039927163161337376,0.02874755859375,0.0505744069814682
2103079913437,0.46327802538871765,-9.824606895446777,0.6021417379379272,-0.0010647244052961469,0.02874755859375,0.04791259765625
2103081150812,0.4668693244457245,-9.871294021606445,0.5937620401382446,0.003460354171693325,0.02848137728869915,0.052703857421875
2103082388137,0.47884035110473633,-9.882067680358887,0.6272808313369751,0.005057440605014563,0.0314093679189682,0.0516391322016716
2103083625487,0.4345476031303406,-9.874884605407715,0.6212953329086304,-0.0007985432748682797,0.0295461006462574,0.0481787770986557
2103084862837,0.4513070285320282,-9.873687744140625,0.6177040338516235,-0.0039927163161337376,0.0263519287109375,0.0473802350461483
2103086100187,0.4513070285320282,-9.897629737854004,0.6572083830833435,-0.0021294488105922937,0.02794901467859745,0.0463155098259449
2103087337512,0.4836287498474121,-9.898826599121094,0.646434485912323,-0.0026618109550327063,0.0282151959836483,0.0420566126704216
2103088574850,0.48722004890441895,-9.895236015319824,0.6380547285079956,-0.0031941730994731188,0.02608574740588665,0.0423227921128273
2103089812212,0.4692635238170624,-9.86650562286377,0.5925649404525757,-0.004791259765625,0.02874755859375,0.0465816929936409
2103091049550,0.4776432514190674,-9.86650562286377,0.6177040338516235,-0.0031941730994731188,0.0300784632563591,0.0468478724360466
2103092286912,0.4489128291606903,-9.850942611694336,0.6368576288223267,-0.005589802749454975,0.02874755859375,0.0449846051633358
2103093524237,0.4489128291606903,-9.864110946655273,0.6236895322799683,-0.0077192517928779125,0.0306108258664608,0.0468478724360466
2103094761612,0.4776432514190674,-9.854534149169922,0.6332663297653198,-0.0013309054775163531,0.0252872034907341,0.0420566126704216
2103095998937,0.46806642413139343,-9.829395294189453,0.6356605291366577,-0.0023956298828125,0.02182685025036335,0.0441860631108284
2103097236312,0.4836287498474121,-9.84256362915039,0.6548141837120056,-0.0031941730994731188,0.02901373989880085,0.0455169677734375
2103098473637,0.44532153010368347,-9.819818496704102,0.6141127347946167,-0.0018632676219567657,0.02901373989880085,0.0393948033452034
2103099710962,0.46327802538871765,-9.831789016723633,0.5817910432815552,-0.0013309054775163531,0.0276828333735466,0.0439198799431324
2103100948325,0.4572925269603729,-9.806650161743164,0.6536170840263367,-0.0002661811013240367,0.0263519287109375,0.0396609827876091
2103102185675,0.4537012279033661,-9.817423820495605,0.6536170840263367,-0.005855984054505825,0.0292799212038517,0.038330078125
2103103423012,0.4884171485900879,-9.81143856048584,0.6392518877983093,-0.0007985432748682797,0.0316755510866642,0.0354020856320858
2103104660337,0.46806642413139343,-9.84615421295166,0.6177040338516235,0.0015970865497365594,0.03034464456140995,0.0324740931391716
2103105897687,0.48961424827575684,-9.837775230407715,0.6440402865409851,-0.0010647244052961469,0.0300784632563591,0.0316755510866642
2103107135062,0.4273650050163269,-9.840168952941895,0.6584054827690125,0.0002661811013240367,0.0282151959836483,0.0346035435795784
2103108372400,0.43933600187301636,-9.838972091674805,0.5770025849342346,0.0,0.03087700717151165,0.0385962575674057
2103109609737,0.4381389021873474,-9.817423820495605,0.6045359373092651,-0.0005323622026480734,0.0311431884765625,0.038330078125
2103110847087,0.4213795065879822,-9.84495735168457,0.645237386226654,0.0021294488105922937,0.0300784632563591,0.038330078125
2103112084437,0.44532153010368347,-9.852140426635742,0.6631938815116882,-0.00452507846057415,0.02741665206849575,0.0346035435795784
2103113321762,0.46088382601737976,-9.86889934539795,0.6021417379379272,-0.0015970865497365594,0.02981228195130825,0.0348697230219841
2103114559112,0.43694180250167847,-9.84615421295166,0.6236895322799683,-0.0026618109550327063,0.0322079136967659,0.033538818359375
2103115796450,0.4489128291606903,-9.838972091674805,0.6751648783683777,-0.0013309054775163531,0.02848137728869915,0.0314093679189682
2103117033812,0.42018240690231323,-9.855731010437012,0.6560112833976746,-0.0042588976211845875,0.0330064557492733,0.02981228195130825
2103118271162,0.42616790533065796,-9.848548889160156,0.645237386226654,-0.0005323622026480734,0.0276828333735466,0.02502102218568325
2103119508500,0.4345476031303406,-9.855731010437012,0.6236895322799683,-0.0023956298828125,0.0311431884765625,0.02741665206849575
2103120745837,0.3878606855869293,-9.907206535339355,0.6129156351089478,-0.0039927163161337376,0.0314093679189682,0.0282151959836483
2103121983187,0.42616790533065796,-9.892841339111328,0.6093243360519409,-0.00452507846057415,0.0327402763068676,0.0292799212038517
2103123220525,0.4489128291606903,-9.862914085388184,0.646434485912323,-0.0071868896484375,0.0340711809694767,0.0292799212038517
2103124457887,0.4465186297893524,-9.871294021606445,0.6368576288223267,-0.0023956298828125,0.0300784632563591,0.02741665206849575
2103125695250,0.43694180250167847,-9.883264541625977,0.5829881429672241,0.0021294488105922937,0.038063894957304,0.0258195661008358
2103126932587,0.41778820753097534,-9.898826599121094,0.5925649404525757,-0.0021294488105922937,0.0393948033452034,0.01943122036755085
2103128169912,0.43335050344467163,-9.889249801635742,0.6200982332229614,-0.008517795242369175,0.033272635191679,0.02262539230287075
2103129407262,0.40222588181495667,-9.907206535339355,0.606930136680603,-0.0026618109550327063,0.0354020856320858,0.02608574740588665
2103130644612,0.4213795065879822,-9.922768592834473,0.5973533391952515,-0.0066545275039970875,0.0369991734623909,0.02315775491297245
2103131881950,0.4141969084739685,-9.920374870300293,0.5937620401382446,-0.007985432632267475,0.0343373604118824,0.0316755510866642
2103133119300,0.41539400815963745,-9.895236015319824,0.6033388376235962,-0.007453070487827063,0.0362006276845932,0.0292799212038517
2103134356637,0.3842693865299225,-9.929951667785645,0.6332663297653198,-0.00692070834338665,0.0393948033452034,0.0271504707634449
2103135593987,0.3818751871585846,-9.882067680358887,0.6751648783683777,-0.00931633822619915,0.0388624407351017,0.0276828333735466
2103136831325,0.45489832758903503,-9.86650562286377,0.606930136680603,-0.007985432632267475,0.038330078125,0.02741665206849575
2103138068687,0.40222588181495667,-9.90122127532959,0.6272808313369751,-0.0063883461989462376,0.0372653529047966,0.0276828333735466
2103139306037,0.3902548849582672,-9.854534149169922,0.6356605291366577,-0.004791259765625,0.038063894957304,0.02741665206849575
2103140543350,0.40462008118629456,-9.873687744140625,0.6189011335372925,-0.0039927163161337376,0.0388624407351017,0.0282151959836483
2103141780712,0.41060560941696167,-9.911994934082031,0.5770025849342346,-0.0114457868039608,0.0444522425532341,0.02901373989880085
2103143018062,0.42377370595932007,-9.880870819091797,0.6560112833976746,-0.010114881210029125,0.0396609827876091,0.03087700717151165
2103144255425,0.40940847992897034,-9.90361499786377,0.646434485912323,-0.010647243820130825,0.038330078125,0.0324740931391716
2103145492750,0.4225766062736511,-9.891644477844238,0.6260837316513062,-0.0114457868039608,0.0377977155148983,0.0359344482421875
2103146730100,0.41299980878829956,-9.865307807922363,0.5949591398239136,-0.0071868896484375,0.0367329902946949,0.0340711809694767
2103147967425,0.45010992884635925,-9.849745750427246,0.6165069341659546,-0.00984870083630085,0.0385962575674057,0.0322079136967659
2103149204787,0.40701428055763245,-9.883264541625977,0.6368576288223267,-0.008517795242369175,0.0436537005007267,0.0319417305290699
2103150442137,0.4465186297893524,-9.892841339111328,0.6224924325942993,-0.010647243820130825,0.04791259765625,0.033538818359375
2103151679475,0.42377370595932007,-9.884461402893066,0.6093243360519409,-0.01357523538172245,0.0399271659553051,0.0343373604118824
2103152916837,0.42616790533065796,-9.898826599121094,0.6392518877983093,-0.008783976547420025,0.0369991734623909,0.0314093679189682
2103154154175,0.4141969084739685,-9.865307807922363,0.606930136680603,-0.01410759799182415,0.0396609827876091,0.0343373604118824
2103155391500,0.44532153010368347,-9.915586471557617,0.6200982332229614,-0.015172322280704975,0.0425889752805233,0.0364668108522892
2103156628850,0.49559974670410156,-9.853337287902832,0.6057330369949341,-0.0119781494140625,0.0503082275390625,0.0399271659553051
2103157866200,0.4596867263317108,-9.862914085388184,0.6392518877983093,-0.01357523538172245,0.0489773228764534,0.03087700717151165
2103159103537,0.46327802538871765,-9.897629737854004,0.5793968439102173,-0.00931633822619915,0.043121337890625,0.0367329902946949
2103160340887,0.41539400815963745,-9.859322547912598,0.6380547285079956,-0.01357523538172245,0.0471140518784523,0.0393948033452034
2103161578262,0.4441244304180145,-9.865307807922363,0.6536170840263367,-0.01703559048473835,0.0463155098259449,0.0399271659553051
2103162815587,0.44771572947502136,-9.898826599121094,0.6248866319656372,-0.0181003138422966,0.0441860631108284,0.033538818359375
2103164052925,0.4429273307323456,-9.897629737854004,0.6177040338516235,-0.0162370465695858,0.0513729527592659,0.0367329902946949
2103165290287,0.4812345504760742,-9.922768592834473,0.6021417379379272,-0.014906140975654125,0.0447184219956398,0.0399271659553051
2103166527612,0.4465186297893524,-9.898826599121094,0.6440402865409851,-0.01463996060192585,0.0492435023188591,0.0401933453977108
2103167764975,0.4165911078453064,-9.894038200378418,0.628477931022644,-0.0186326764523983,0.0497758649289608,0.0359344482421875
2103169002312,0.40462008118629456,-9.852140426635742,0.5997475385665894,-0.015438503585755825,0.0497758649289608,0.0327402763068676
2103170239662,0.4225766062736511,-9.891644477844238,0.6200982332229614,-0.01703559048473835,0.052703857421875,0.0359344482421875
2103171477012,0.44173023104667664,-9.872490882873535,0.6356605291366577,-0.0162370465695858,0.052703857421875,0.0362006276845932
2103172714350,0.43335050344467163,-9.925163269042969,0.6057330369949341,-0.01463996060192585,0.0465816929936409,0.0417904332280159
2103173951687,0.4345476031303406,-9.874884605407715,0.6093243360519409,-0.01463996060192585,0.0487111397087574,0.0409918874502182
2103175189025,0.4321534037590027,-9.885659217834473,0.6500257849693298,-0.0173017717897892,0.0543009415268898,0.0362006276845932
2103176426375,0.4225766062736511,-9.943120002746582,0.6057330369949341,-0.01703559048473835,0.052437674254179,0.0343373604118824
2103177663725,0.424970805644989,-9.885659217834473,0.6488286852836609,-0.0167694091796875,0.0508405901491642,0.0412580706179142
2103178901087,0.40940847992897034,-9.885659217834473,0.6380547285079956,-0.01943122036755085,0.0543009415268898,0.0391286201775074
2103180138425,0.42018240690231323,-9.917980194091797,0.6177040338516235,-0.0196974016726017,0.0564303919672966,0.0375315360724926
2103181375787,0.4273650050163269,-9.916783332824707,0.6153098344802856,-0.013309055007994175,0.0543009415268898,0.0412580706179142
2103182613100,0.45489832758903503,-9.925163269042969,0.5937620401382446,-0.0220930315554142,0.0553656667470932,0.0415242500603199
2103183850475,0.48722004890441895,-9.86770248413086,0.6200982332229614,-0.0215606689453125,0.0585598424077034,0.0433875173330307
2103185087800,0.47165775299072266,-9.882067680358887,0.6141127347946167,-0.01703559048473835,0.0585598424077034,0.042855154722929
2103186325162,0.4572925269603729,-9.890447616577148,0.6260837316513062,-0.0173017717897892,0.0577612966299057,0.0377977155148983
2103187562512,0.46088382601737976,-9.862914085388184,0.6189011335372925,-0.02182685025036335,0.0606892891228199,0.0404595248401165
2103188799837,0.4213795065879822,-9.910798072814941,0.6093243360519409,-0.0173017717897892,0.0548333041369915,0.0412580706179142
2103190037175,0.47165775299072266,-9.909601211547852,0.6332663297653198,-0.0196974016726017,0.0614878311753273,0.0391286201775074
2103191274537,0.4836287498474121,-9.891644477844238,0.6404489874839783,-0.02129448764026165,0.0590922012925148,0.0425889752805233
2103192511875,0.44173023104667664,-9.872490882873535,0.629675030708313,-0.0191650390625,0.0617540143430233,0.0401933453977108
2103193749225,0.43694180250167847,-9.8784761428833,0.5889736413955688,-0.0210283063352108,0.0614878311753273,0.0377977155148983
2103194986575,0.4465186297893524,-9.876082420349121,0.6404489874839783,-0.02262539230287075,0.0606892891228199,0.0401933453977108
2103196223912,0.45010992884635925,-9.911994934082031,0.6200982332229614,-0.02369011752307415,0.0641496405005455,0.0465816929936409
2103197461262,0.48243165016174316,-9.884461402893066,0.6596025824546814,-0.01703559048473835,0.0585598424077034,0.0423227921128273
2103198698600,0.4441244304180145,-9.86889934539795,0.5913678407669067,-0.02076212503015995,0.0652143657207489,0.0404595248401165
2103199935950,0.4165911078453064,-9.852140426635742,0.5889736413955688,-0.0215606689453125,0.0657467320561409,0.0423227921128273
2103201173312,0.4429273307323456,-9.84615421295166,0.5949591398239136,-0.0276828333735466,0.0596245639026165,0.0377977155148983
2103202410637,0.4381389021873474,-9.859322547912598,0.5542576909065247,-0.0247548408806324,0.0646820068359375,0.0354020856320858
2103203647987,0.45250412821769714,-9.837775230407715,0.5829881429672241,-0.01889885775744915,0.0660129114985466,0.0436537005007267
2103204885325,0.456095427274704,-9.84256362915039,0.6404489874839783,-0.0228915736079216,0.0673438161611557,0.0404595248401165
2103206122687,0.4596867263317108,-9.835380554199219,0.6488286852836609,-0.02422248013317585,0.0705379918217659,0.0369991734623909
2103207360025,0.4357447028160095,-9.874884605407715,0.6200982332229614,-0.0210283063352108,0.0681423619389534,0.0404595248401165
2103208597362,0.4513070285320282,-9.890447616577148,0.6236895322799683,-0.02129448764026165,0.0678761824965477,0.043121337890625
2103209834725,0.4465186297893524,-9.84495735168457,0.5889736413955688,-0.01996358297765255,0.0708041712641716,0.0404595248401165
2103211072050,0.45489832758903503,-9.858125686645508,0.5758054852485657,-0.02262539230287075,0.0681423619389534,0.0399271659553051
2103212309412,0.46088382601737976,-9.90241813659668,0.6165069341659546,-0.02076212503015995,0.06707763671875,0.0396609827876091
2103213546750,0.4357447028160095,-9.84615421295166,0.6189011335372925,-0.0234239362180233,0.0662790909409523,0.043121337890625
2103214784100,0.49320554733276367,-9.862914085388184,0.5758054852485657,-0.0210283063352108,0.0636172816157341,0.0423227921128273
2103216021450,0.4752490520477295,-9.86889934539795,0.5889736413955688,-0.0215606689453125,0.0710703507065773,0.0425889752805233
2103217258775,0.4704606235027313,-9.883264541625977,0.6368576288223267,-0.0228915736079216,0.0753292515873909,0.0375315360724926
2103218496125,0.45250412821769714,-9.862914085388184,0.6416460871696472,-0.0223592109978199,0.0737321600317955,0.0396609827876091
2103219733475,0.47165775299072266,-9.860519409179688,0.6093243360519409,-0.01943122036755085,0.0641496405005455,0.0423227921128273
2103220970825,0.46567222476005554,-9.882067680358887,0.5770025849342346,-0.0223592109978199,0.0681423619389534,0.0425889752805233
2103222208175,0.4513070285320282,-9.862914085388184,0.5961562395095825,-0.0258195661008358,0.0689409002661705,0.0375315360724926
2103223445512,0.4596867263317108,-9.86650562286377,0.6153098344802856,-0.01889885775744915,0.06707763671875,0.0375315360724926
2103224682887,0.456095427274704,-9.838972091674805,0.6045359373092651,-0.015172322280704975,0.0684085413813591,0.0412580706179142
2103225920212,0.44532153010368347,-9.836577415466309,0.6368576288223267,-0.0210283063352108,0.0705379918217659,0.0436537005007267
2103227157550,0.4225766062736511,-9.835380554199219,0.5901707410812378,-0.0268842913210392,0.0734659805893898,0.0385962575674057
2103228394900,0.41778820753097534,-9.840168952941895,0.5901707410812378,-0.02262539230287075,0.0705379918217659,0.0375315360724926
2103229632250,0.4345476031303406,-9.86889934539795,0.5805939435958862,-0.02076212503015995,0.0708041712641716,0.0359344482421875
2103230869587,0.44532153010368347,-9.854534149169922,0.6236895322799683,-0.01943122036755085,0.0721350759267807,0.0409918874502182
2103232106937,0.4489128291606903,-9.81143856048584,0.6057330369949341,-0.02129448764026165,0.0731998011469841,0.0439198799431324
2103233344275,0.42377370595932007,-9.829395294189453,0.5829881429672241,-0.01943122036755085,0.0742645263671875,0.0364668108522892
2103234581637,0.4118027091026306,-9.827000617980957,0.6033388376235962,-0.0186326764523983,0.0745307058095932,0.033272635191679
2103235818962,0.41778820753097534,-9.821015357971191,0.6368576288223267,-0.01756795309484005,0.0729336217045784,0.0407257080078125
2103237056325,0.4010287821292877,-9.797073364257812,0.5913678407669067,-0.01597086526453495,0.0689409002661705,0.043121337890625
2103238293675,0.4465186297893524,-9.84376049041748,0.5889736413955688,-0.01996358297765255,0.0692070871591568,0.0409918874502182
2103239531000,0.43335050344467163,-9.84256362915039,0.6033388376235962,-0.01783413253724575,0.0769263356924057,0.0489773228764534
2103240768375,0.42616790533065796,-9.86889934539795,0.5614402890205383,-0.0186326764523983,0.0737321600317955,0.0444522425532341
2103242005687,0.4429273307323456,-9.84615421295166,0.6643909811973572,-0.01597086526453495,0.0739983469247818,0.042855154722929
2103243243025,0.45489832758903503,-9.815030097961426,0.569819986820221,-0.0167694091796875,0.0721350759267807,0.042855154722929
2103244480400,0.47165775299072266,-9.824606895446777,0.6763619780540466,-0.015172322280704975,0.0710703507065773,0.0420566126704216
2103245717725,0.4920084476470947,-9.821015357971191,0.6177040338516235,-0.0138414166867733,0.0724012553691864,0.0396609827876091
2103246955087,0.4704606235027313,-9.837775230407715,0.6404489874839783,-0.012776692397892475,0.0750630721449852,0.0377977155148983
2103248192437,0.48243165016174316,-9.825803756713867,0.6177040338516235,-0.015172322280704975,0.0769263356924057,0.0356682650744915
2103249429775,0.4800374507904053,-9.792284965515137,0.6308721303939819,-0.01463996060192585,0.0737321600317955,0.042855154722929
2103250667125,0.4800374507904053,-9.81263542175293,0.6320692300796509,-0.015438503585755825,0.0771925151348114,0.0401933453977108
2103251904475,0.47884035110473633,-9.84615421295166,0.6440402865409851,-0.015172322280704975,0.0729336217045784,0.0436537005007267
2103253141800,0.46567222476005554,-9.86770248413086,0.6572083830833435,-0.0119781494140625,0.0753292515873909,0.0444522425532341
2103254379162,0.46806642413139343,-9.832986831665039,0.6416460871696472,-0.01117960549890995,0.0734659805893898,0.0425889752805233
2103255616487,0.4381389021873474,-9.870096206665039,0.5793968439102173,-0.015172322280704975,0.0710703507065773,0.0359344482421875
2103256853875,0.4704606235027313,-9.852140426635742,0.5734112858772278,-0.01836649514734745,0.0708041712641716,0.0455169677734375
2103258091200,0.4991910457611084,-9.830592155456543,0.5973533391952515,-0.0186326764523983,0.0742645263671875,0.0433875173330307
2103259328550,0.48602294921875,-9.852140426635742,0.6141127347946167,-0.01410759799182415,0.0734659805893898,0.0399271659553051
2103260565900,0.5123591423034668,-9.891644477844238,0.629675030708313,-0.012510511092841625,0.076127789914608,0.0420566126704216
2103261803237,0.4752490520477295,-9.897629737854004,0.5746083855628967,-0.0196974016726017,0.07666015625,0.0436537005007267
2103263040575,0.47644615173339844,-9.914389610290527,0.5901707410812378,-0.01597086526453495,0.0734659805893898,0.0441860631108284
2103264277925,0.4572925269603729,-9.897629737854004,0.6045359373092651,-0.01357523538172245,0.0708041712641716,0.0449846051633358
2103265515275,0.4884171485900879,-9.90122127532959,0.6272808313369751,-0.0157046839594841,0.0739983469247818,0.0396609827876091
2103266752612,0.4620809257030487,-9.889249801635742,0.6332663297653198,-0.01357523538172245,0.0747968852519989,0.0407257080078125
2103267989975,0.48961424827575684,-9.90241813659668,0.5829881429672241,-0.0173017717897892,0.0726674422621727,0.0401933453977108
2103269227300,0.48722004890441895,-9.853337287902832,0.5805939435958862,-0.01756795309484005,0.076127789914608,0.0447184219956398
2103270464662,0.4884171485900879,-9.890447616577148,0.5111620426177979,-0.01783413253724575,0.0737321600317955,0.0420566126704216
2103271702000,0.49799394607543945,-9.90122127532959,0.5219359993934631,-0.01889885775744915,0.0758616104722023,0.0401933453977108
2103272939325,0.44771572947502136,-9.850942611694336,0.5770025849342346,-0.0167694091796875,0.0731998011469841,0.0388624407351017
2103274176687,0.4644751250743866,-9.913191795349121,0.5841852426528931,-0.02022976242005825,0.0702718123793602,0.0354020856320858
2103275414012,0.4620809257030487,-9.848548889160156,0.5913678407669067,-0.0173017717897892,0.0729336217045784,0.0364668108522892
2103276651375,0.45848962664604187,-9.860519409179688,0.5925649404525757,-0.0173017717897892,0.0726674422621727,0.0348697230219841
2103277888712,0.5099649429321289,-9.885659217834473,0.5638344883918762,-0.0196974016726017,0.0782572403550148,0.0372653529047966
2103279126075,0.5147533416748047,-9.87967300415039,0.5566518902778625,-0.0196974016726017,0.0777248814702034,0.0404595248401165
2103280363437,0.4812345504760742,-9.871294021606445,0.5386953949928284,-0.01756795309484005,0.0716027170419693,0.0433875173330307
2103281600762,0.48602294921875,-9.829395294189453,0.5566518902778625,-0.0181003138422966,0.0708041712641716,0.0404595248401165
2103282838100,0.4991910457611084,-9.835380554199219,0.5781997442245483,-0.0173017717897892,0.0753292515873909,0.0356682650744915
2103284075437,0.50876784324646,-9.838972091674805,0.5781997442245483,-0.01597086526453495,0.0686747208237648,0.0372653529047966
2103285312800,0.43933600187301636,-9.840168952941895,0.5925649404525757,-0.01597086526453495,0.0681423619389534,0.0354020856320858
2103286550162,0.46567222476005554,-9.849745750427246,0.5638344883918762,-0.01224433071911335,0.066545270383358,0.0367329902946949
2103287787500,0.43335050344467163,-9.838972091674805,0.5710170865058899,-0.0181003138422966,0.0726674422621727,0.0396609827876091
2103289024837,0.44532153010368347,-9.849745750427246,0.6105214357376099,-0.01650322787463665,0.0729336217045784,0.0399271659553051
2103290262187,0.5015852451324463,-9.827000617980957,0.5889736413955688,-0.01171196810901165,0.0708041712641716,0.0367329902946949
2103291499512,0.46327802538871765,-9.852140426635742,0.5638344883918762,-0.012776692397892475,0.0708041712641716,0.0340711809694767
2103292736862,0.45250412821769714,-9.890447616577148,0.5626373887062073,-0.0114457868039608,0.0726674422621727,0.0338049978017807
2103293974225,0.47884035110473633,-9.858125686645508,0.5626373887062073,-0.0186326764523983,0.071336530148983,0.0359344482421875
2103295211562,0.45010992884635925,-9.853337287902832,0.5602431893348694,-0.0204959437251091,0.0694732666015625,0.0364668108522892
2103296448925,0.46806642413139343,-9.8784761428833,0.629675030708313,-0.015438503585755825,0.071868896484375,0.0401933453977108
2103297686250,0.4967968463897705,-9.834183692932129,0.5985504388809204,-0.01703559048473835,0.0684085413813591,0.0359344482421875
2103298923600,0.5063736438751221,-9.871294021606445,0.5722141861915588,-0.0181003138422966,0.0731998011469841,0.0354020856320858
2103300160950,0.45848962664604187,-9.838972091674805,0.5925649404525757,-0.015172322280704975,0.0700056254863739,0.0367329902946949
2103301398300,0.4752490520477295,-9.883264541625977,0.5841852426528931,-0.01357523538172245,0.0654805526137352,0.0393948033452034
2103302635662,0.52552729845047,-9.883264541625977,0.5746083855628967,-0.0157046839594841,0.0705379918217659,0.0375315360724926
2103303872987,0.4920084476470947,-9.858125686645508,0.5602431893348694,-0.01943122036755085,0.071336530148983,0.038063894957304
2103305110325,0.48961424827575684,-9.873687744140625,0.6009446382522583,-0.0191650390625,0.0676099956035614,0.038330078125
2103306347687,0.5183447003364563,-9.837775230407715,0.569819986820221,-0.0138414166867733,0.0598907470703125,0.0348697230219841
2103307585025,0.5051765441894531,-9.816226959228516,0.5770025849342346,-0.01650322787463665,0.0652143657207489,0.0319417305290699
2103308822362,0.5291185975074768,-9.836577415466309,0.5614402890205383,-0.02022976242005825,0.0676099956035614,0.0362006276845932
2103310059712,0.47405195236206055,-9.840168952941895,0.5746083855628967,-0.01996358297765255,0.0644158273935318,0.0388624407351017
2103311297062,0.4967968463897705,-9.829395294189453,0.5889736413955688,-0.0167694091796875,0.0628187358379364,0.038330078125
2103312534400,0.456095427274704,-9.84615421295166,0.5817910432815552,-0.01996358297765255,0.0657467320561409,0.0420566126704216
2103313771762,0.5039794445037842,-9.856928825378418,0.5650315880775452,-0.0204959437251091,0.0617540143430233,0.0359344482421875
2103315009100,0.5171476006507874,-9.818621635437012,0.5578489899635315,-0.01756795309484005,0.0564303919672966,0.0359344482421875
2103316246450,0.4596867263317108,-9.861717224121094,0.5386953949928284,-0.01410759799182415,0.0649481862783432,0.0319417305290699
2103317483775,0.4596867263317108,-9.894038200378418,0.5662286877632141,-0.014373779296875,0.0684085413813591,0.033272635191679
2103318721150,0.45489832758903503,-9.841365814208984,0.569819986820221,-0.01463996060192585,0.0657467320561409,0.038063894957304
2103319958487,0.4537012279033661,-9.821015357971191,0.5422866940498352,-0.0138414166867733,0.0596245639026165,0.0338049978017807
2103321195837,0.4704606235027313,-9.81263542175293,0.5518634915351868,-0.0157046839594841,0.0593583844602108,0.0359344482421875
2103322433187,0.4728548526763916,-9.849745750427246,0.5841852426528931,-0.0167694091796875,0.0630849227309227,0.0354020856320858
2103323670537,0.48722004890441895,-9.848548889160156,0.6236895322799683,-0.0119781494140625,0.0612216517329216,0.02901373989880085
2103324907862,0.4537012279033661,-9.84256362915039,0.6033388376235962,-0.0157046839594841,0.0630849227309227,0.0271504707634449
2103326145212,0.4967968463897705,-9.822212219238281,0.5710170865058899,-0.0138414166867733,0.0614878311753273,0.0327402763068676
2103327382575,0.4537012279033661,-9.830592155456543,0.5195418000221252,-0.0114457868039608,0.0604231096804142,0.0322079136967659
2103328619900,0.47884035110473633,-9.832986831665039,0.5722141861915588,-0.012776692397892475,0.0569627545773983,0.0338049978017807
2103329857262,0.4728548526763916,-9.883264541625977,0.5913678407669067,-0.0173017717897892,0.052437674254179,0.0319417305290699
2103331094612,0.46327802538871765,-9.807847023010254,0.5781997442245483,-0.012776692397892475,0.0596245639026165,0.0314093679189682
2103332331950,0.43694180250167847,-9.848548889160156,0.5805939435958862,-0.01357523538172245,0.0564303919672966,0.0346035435795784
2103333569287,0.4465186297893524,-9.848548889160156,0.5003881454467773,-0.0119781494140625,0.0545671246945858,0.0356682650744915
2103334806637,0.43694180250167847,-9.81263542175293,0.5770025849342346,-0.010647243820130825,0.0529700368642807,0.0282151959836483
2103336043987,0.43933600187301636,-9.822212219238281,0.585382342338562,-0.0119781494140625,0.0550994873046875,0.0314093679189682
2103337281325,0.4884171485900879,-9.794679641723633,0.5626373887062073,-0.01357523538172245,0.0569627545773983,0.0300784632563591
2103338518675,0.4596867263317108,-9.807847023010254,0.5734112858772278,-0.013042873702943325,0.0566965714097023,0.02981228195130825
2103339756025,0.4572925269603729,-9.832986831665039,0.5446808934211731,-0.01357523538172245,0.0537685826420784,0.0300784632563591
2103340993375,0.4620809257030487,-9.793481826782227,0.5746083855628967,-0.012776692397892475,0.0545671246945858,0.0327402763068676
2103342230700,0.45489832758903503,-9.821015357971191,0.547075092792511,-0.0157046839594841,0.0535023994743824,0.02874755859375
2103343468075,0.4465186297893524,-9.798270225524902,0.5746083855628967,-0.012776692397892475,0.04791259765625,0.02848137728869915
2103344705412,0.46567222476005554,-9.831789016723633,0.5638344883918762,-0.008783976547420025,0.0492435023188591,0.0319417305290699
2103345942750,0.4692635238170624,-9.804256439208984,0.5446808934211731,-0.010381062515079975,0.0508405901491642,0.0295461006462574
2103347180100,0.44173023104667664,-9.785102844238281,0.5434837937355042,-0.013309055007994175,0.0511067695915699,0.0263519287109375
2103348417462,0.46088382601737976,-9.77791976928711,0.5925649404525757,-0.010381062515079975,0.0489773228764534,0.0276828333735466
2103349654787,0.4692635238170624,-9.81263542175293,0.5614402890205383,-0.007453070487827063,0.0508405901491642,0.02848137728869915
2103350892150,0.46088382601737976,-9.829395294189453,0.5339069962501526,-0.005855984054505825,0.0487111397087574,0.03087700717151165
2103352129475,0.45010992884635925,-9.840168952941895,0.5829881429672241,-0.008517795242369175,0.0513729527592659,0.0244886614382267
2103353366825,0.5099649429321289,-9.84256362915039,0.5614402890205383,-0.0071868896484375,0.0521714948117733,0.02608574740588665
2103354604187,0.43335050344467163,-9.865307807922363,0.5722141861915588,-0.0090501569211483,0.04791259765625,0.0276828333735466
2103355841525,0.47884035110473633,-9.860519409179688,0.5722141861915588,-0.007985432632267475,0.0495096817612648,0.02422248013317585
2103357078850,0.4644751250743866,-9.86650562286377,0.5710170865058899,-0.0066545275039970875,0.0516391322016716,0.0223592109978199
2103358316225,0.4381389021873474,-9.841365814208984,0.5434837937355042,-0.0053236219100654125,0.0497758649289608,0.0215606689453125
2103359553562,0.43694180250167847,-9.801861763000488,0.5626373887062073,-0.003460354171693325,0.0444522425532341,0.02502102218568325
2103360790900,0.45489832758903503,-9.840168952941895,0.5722141861915588,-0.0053236219100654125,0.0455169677734375,0.0234239362180233
2103362028262,0.4836287498474121,-9.84256362915039,0.5841852426528931,-0.005589802749454975,0.0484449602663517,0.0173017717897892
2103363265600,0.4944026470184326,-9.86770248413086,0.5171476006507874,-0.00692070834338665,0.0471140518784523,0.0210283063352108
2103364502937,0.4704606235027313,-9.84376049041748,0.5590460896492004,-0.0090501569211483,0.0473802350461483,0.02182685025036335
2103365740287,0.4644751250743866,-9.853337287902832,0.5722141861915588,-0.003460354171693325,0.0439198799431324,0.02315775491297245
2103366977637,0.4572925269603729,-9.832986831665039,0.585382342338562,0.0002661811013240367,0.0425889752805233,0.0268842913210392
2103368214975,0.4297592043876648,-9.819818496704102,0.5937620401382446,0.0029279920272529125,0.0407257080078125,0.0300784632563591
2103369452312,0.4728548526763916,-9.853337287902832,0.507570743560791,0.0029279920272529125,0.0417904332280159,0.01996358297765255
2103370689687,0.4321534037590027,-9.824606895446777,0.5398924946784973,0.0007985432748682797,0.0444522425532341,0.023956298828125
2103371927025,0.45250412821769714,-9.856928825378418,0.5985504388809204,0.004791259765625,0.0423227921128273,0.02608574740588665
2103373164375,0.43095630407333374,-9.837775230407715,0.568622887134552,0.0026618109550327063,0.0420566126704216,0.0244886614382267
2103374401725,0.4357447028160095,-9.829395294189453,0.5410895943641663,0.0013309054775163531,0.0404595248401165,0.02129448764026165
2103375639050,0.48482584953308105,-9.858125686645508,0.5578489899635315,0.0037265352439135313,0.0393948033452034,0.0210283063352108
2103376876400,0.40940847992897034,-9.801861763000488,0.5542576909065247,-0.003460354171693325,0.0441860631108284,0.0167694091796875
2103378113750,0.4345476031303406,-9.84256362915039,0.5518634915351868,-0.0039927163161337376,0.0465816929936409,0.0234239362180233
2103379351100,0.4513070285320282,-9.859322547912598,0.5207388997077942,-0.0029279920272529125,0.0396609827876091,0.0181003138422966
2103380588450,0.4405331015586853,-9.885659217834473,0.48602294921875,-0.0031941730994731188,0.0407257080078125,0.0196974016726017
2103381825787,0.40940847992897034,-9.90122127532959,0.5746083855628967,0.0023956298828125,0.0425889752805233,0.0191650390625
2103383063137,0.4357447028160095,-9.898826599121094,0.5566518902778625,-0.0005323622026480734,0.0407257080078125,0.01943122036755085
2103384300487,0.39863458275794983,-9.885659217834473,0.5434837937355042,-0.0007985432748682797,0.0415242500603199,0.01943122036755085
2103385537825,0.3794809579849243,-9.929951667785645,0.5590460896492004,-0.005057440605014563,0.0399271659553051,0.01410759799182415
2103386775162,0.44173023104667664,-9.906009674072266,0.5554547905921936,-0.0039927163161337376,0.038063894957304,0.01756795309484005
2103388012512,0.40701428055763245,-9.865307807922363,0.5123591423034668,-0.0015970865497365594,0.0399271659553051,0.0119781494140625
2103389249862,0.4225766062736511,-9.883264541625977,0.5602431893348694,0.0002661811013240367,0.0377977155148983,0.0210283063352108
2103390487187,0.39863458275794983,-9.896432876586914,0.5363011956214905,-0.0021294488105922937,0.0404595248401165,0.0210283063352108
2103391724550,0.39384618401527405,-9.864110946655273,0.5422866940498352,0.0005323622026480734,0.0372653529047966,0.01703559048473835
2103392961912,0.39863458275794983,-9.86770248413086,0.5279214978218079,0.0018632676219567657,0.0375315360724926,0.01357523538172245
2103394199250,0.41778820753097534,-9.852140426635742,0.5386953949928284,0.0013309054775163531,0.0407257080078125,0.0167694091796875
2103395436600,0.4225766062736511,-9.871294021606445,0.5410895943641663,-0.005589802749454975,0.0369991734623909,0.01224433071911335
2103396673950,0.3878606855869293,-9.898826599121094,0.5339069962501526,-0.00692070834338665,0.038330078125,0.0191650390625
2103397911275,0.39624038338661194,-9.891644477844238,0.52552729845047,-0.0029279920272529125,0.0409918874502182,0.015172322280704975
2103399148637,0.3902548849582672,-9.861717224121094,0.568622887134552,-0.0002661811013240367,0.0412580706179142,0.014373779296875
2103400385987,0.41539400815963745,-9.836577415466309,0.4991910457611084,-0.0026618109550327063,0.0420566126704216,0.014373779296875
2103401623312,0.39624038338661194,-9.858125686645508,0.5111620426177979,-0.003460354171693325,0.0391286201775074,0.014906140975654125
2103402860675,0.4321534037590027,-9.852140426635742,0.5183447003364563,-0.0023956298828125,0.0359344482421875,0.01224433071911335
2103404098025,0.4213795065879822,-9.837775230407715,0.5422866940498352,-0.0031941730994731188,0.0369991734623909,0.01357523538172245
2103405335362,0.42018240690231323,-9.815030097961426,0.5973533391952515,-0.0010647244052961469,0.0346035435795784,0.01756795309484005
2103406572700,0.395043283700943,-9.838972091674805,0.5327098965644836,0.0013309054775163531,0.0348697230219841,0.023956298828125
2103407810050,0.3794809579849243,-9.807847023010254,0.5734112858772278,-0.0018632676219567657,0.0391286201775074,0.0228915736079216
2103409047400,0.40222588181495667,-9.849745750427246,0.547075092792511,-0.0063883461989462376,0.038330078125,0.01357523538172245
2103410284737,0.40222588181495667,-9.859322547912598,0.5039794445037842,-0.007453070487827063,0.0377977155148983,0.0119781494140625
2103411522100,0.4010287821292877,-9.84495735168457,0.5207388997077942,-0.0018632676219567657,0.0330064557492733,0.01597086526453495
2103412759425,0.424970805644989,-9.852140426635742,0.5279214978218079,-0.005057440605014563,0.0367329902946949,0.0162370465695858
2103413996775,0.41060560941696167,-9.852140426635742,0.5135562419891357,-0.004791259765625,0.0372653529047966,0.01756795309484005
2103415234137,0.4213795065879822,-9.847352027893066,0.5279214978218079,-0.0031941730994731188,0.0343373604118824,0.01597086526453495
2103416471487,0.4118027091026306,-9.84615421295166,0.6009446382522583,-0.007453070487827063,0.0351359061896801,0.01357523538172245
2103417708812,0.42856210470199585,-9.829395294189453,0.49559974670410156,-0.00931633822619915,0.0367329902946949,0.01756795309484005
2103418946175,0.4225766062736511,-9.873687744140625,0.5351040959358215,-0.00452507846057415,0.033272635191679,0.01889885775744915
2103420183525,0.41778820753097534,-9.84256362915039,0.5446808934211731,-0.01224433071911335,0.0314093679189682,0.01650322787463665
2103421420862,0.3998316824436188,-9.860519409179688,0.4812345504760742,-0.0023956298828125,0.0343373604118824,0.015172322280704975
2103422658212,0.36990416049957275,-9.90122127532959,0.50876784324646,-0.007453070487827063,0.0346035435795784,0.01650322787463665
2103423895550,0.3687070608139038,-9.86889934539795,0.5135562419891357,-0.00931633822619915,0.0348697230219841,0.0157046839594841
2103425132912,0.38905778527259827,-9.871294021606445,0.5051765441894531,-0.010114881210029125,0.03087700717151165,0.012510511092841625
2103426370250,0.41539400815963745,-9.874884605407715,0.5734112858772278,-0.01171196810901165,0.0316755510866642,0.01171196810901165
2103427607587,0.3926490843296051,-9.859322547912598,0.5003881454467773,-0.0114457868039608,0.033272635191679,0.0090501569211483
2103428844950,0.39145198464393616,-9.876082420349121,0.5327098965644836,-0.01117960549890995,0.0322079136967659,0.01410759799182415
2103430082275,0.3926490843296051,-9.850942611694336,0.5147533416748047,-0.01224433071911335,0.0319417305290699,0.012510511092841625
2103431319637,0.34835633635520935,-9.90122127532959,0.5207388997077942,-0.008251613937318325,0.0362006276845932,0.015438503585755825
2103432556975,0.32680854201316833,-9.931148529052734,0.5267243981361389,-0.0063883461989462376,0.0324740931391716,0.01410759799182415
2103433794325,0.3926490843296051,-9.884461402893066,0.5159504413604736,-0.0114457868039608,0.0354020856320858,0.01597086526453495
2103435031675,0.37828385829925537,-9.929951667785645,0.5231330990791321,-0.00958251953125,0.0330064557492733,0.01357523538172245
2103436269025,0.3687070608139038,-9.884461402893066,0.5434837937355042,-0.0138414166867733,0.02981228195130825,0.010913425125181675
2103437506362,0.3902548849582672,-9.870096206665039,0.5554547905921936,-0.0162370465695858,0.033272635191679,0.010647243820130825
2103438743725,0.3627215623855591,-9.877279281616211,0.4812345504760742,-0.01597086526453495,0.0311431884765625,0.008517795242369175
2103439981050,0.3842693865299225,-9.885659217834473,0.547075092792511,-0.012776692397892475,0.02661811001598835,0.010114881210029125
2103441218412,0.39863458275794983,-9.836577415466309,0.5231330990791321,-0.015438503585755825,0.0340711809694767,0.01171196810901165
2103442455750,0.3866635859012604,-9.872490882873535,0.5590460896492004,-0.0196974016726017,0.0367329902946949,0.00931633822619915
2103443693087,0.3902548849582672,-9.895236015319824,0.5434837937355042,-0.01463996060192585,0.0388624407351017,0.0007985432748682797
2103444930450,0.36990416049957275,-9.927556991577148,0.49559974670410156,-0.014373779296875,0.0316755510866642,0.0077192517928779125
2103446167800,0.395043283700943,-9.897629737854004,0.5494692921638489,-0.014906140975654125,0.03087700717151165,0.01117960549890995
2103447405137,0.4082113802433014,-9.888052940368652,0.4967968463897705,-0.01597086526453495,0.0300784632563591,0.01224433071911335
2103448642487,0.39145198464393616,-9.86650562286377,0.5327098965644836,-0.01783413253724575,0.0346035435795784,0.008251613937318325
2103449879837,0.3770867586135864,-9.931148529052734,0.5446808934211731,-0.0215606689453125,0.0359344482421875,0.0071868896484375
2103451117162,0.4225766062736511,-9.861717224121094,0.5518634915351868,-0.015438503585755825,0.0343373604118824,0.010114881210029125
2103452354537,0.363918662071228,-9.888052940368652,0.49799394607543945,-0.01756795309484005,0.0364668108522892,0.00984870083630085
2103453591875,0.4118027091026306,-9.87967300415039,0.5303156971931458,-0.0220930315554142,0.0375315360724926,0.0063883461989462376
2103454829212,0.40940847992897034,-9.885659217834473,0.49799394607543945,-0.01836649514734745,0.038330078125,0.005057440605014563
2103456066562,0.3663128614425659,-9.890447616577148,0.5494692921638489,-0.0228915736079216,0.0346035435795784,0.008517795242369175
2103457303912,0.3770867586135864,-9.847352027893066,0.49799394607543945,-0.01889885775744915,0.0340711809694767,0.006122165359556675
2103458541250,0.3627215623855591,-9.834183692932129,0.50876784324646,-0.0181003138422966,0.0346035435795784,0.005855984054505825
2103459778600,0.3579331636428833,-9.909601211547852,0.5183447003364563,-0.0234239362180233,0.0340711809694767,0.006122165359556675
2103461015937,0.4189853072166443,-9.896432876586914,0.5434837937355042,-0.02262539230287075,0.0388624407351017,0.005057440605014563
2103462253300,0.39863458275794983,-9.897629737854004,0.52552729845047,-0.0244886614382267,0.0377977155148983,0.0018632676219567657
2103463490625,0.365115761756897,-9.920374870300293,0.4920084476470947,-0.02182685025036335,0.0300784632563591,0.0018632676219567657
2103464727987,0.36750996112823486,-9.84615421295166,0.5147533416748047,-0.02369011752307415,0.0354020856320858,0.0026618109550327063
2103465965325,0.39624038338661194,-9.877279281616211,0.5410895943641663,-0.0268842913210392,0.0391286201775074,0.0037265352439135313
