timestamp_ns,accel_x,accel_y,accel_z,gyro_x,gyro_y,gyro_z
18943355725850,1.0211269855499268,-9.816226959228516,1.1216834783554077,-0.02315775491297245,0.0364668108522892,0.0319417305290699
18943356963175,1.0342952013015747,-9.815030097961426,1.171961784362793,-0.0234239362180233,0.0369991734623909,0.0292799212038517
18943358200487,1.0666168928146362,-9.813833236694336,1.1599907875061035,-0.02555338479578495,0.0377977155148983,0.0244886614382267
18943359437800,1.0319008827209473,-9.793481826782227,1.1887211799621582,-0.0252872034907341,0.0412580706179142,0.02262539230287075
18943360675137,1.05105459690094,-9.781511306762695,1.1959037780761719,-0.0258195661008358,0.0404595248401165,0.01783413253724575
18943361912450,0.970848798751831,-9.783905029296875,1.169567584991455,-0.02848137728869915,0.0407257080078125,0.0247548408806324
18943363149787,1.0103530883789062,-9.81143856048584,1.171961784362793,-0.0282151959836483,0.0399271659553051,0.01996358297765255
18943364387087,1.0043675899505615,-9.77791976928711,1.2210428714752197,-0.0268842913210392,0.0356682650744915,0.01943122036755085
18943365624425,1.070208191871643,-9.762357711791992,1.1959037780761719,-0.02315775491297245,0.0359344482421875,0.01783413253724575
18943366861750,1.0283095836639404,-9.782708168029785,1.1420341730117798,-0.0210283063352108,0.0372653529047966,0.0167694091796875
18943368099050,0.9600749015808105,-9.764751434326172,1.1623849868774414,-0.02502102218568325,0.0401933453977108,0.01889885775744915
18943369336375,1.0019733905792236,-9.744400978088379,1.1516109704971313,-0.0244886614382267,0.0372653529047966,0.01943122036755085
18943370573700,1.0043675899505615,-9.75397777557373,1.1635820865631104,-0.01996358297765255,0.0346035435795784,0.02262539230287075
18943371811025,1.0211269855499268,-9.774328231811523,1.1587936878204346,-0.0252872034907341,0.0354020856320858,0.0191650390625
18943373048337,1.0043675899505615,-9.787496566772461,1.1647791862487793,-0.02981228195130825,0.0385962575674057,0.010114881210029125
18943374285662,0.9780313968658447,-9.746795654296875,1.1599907875061035,-0.02901373989880085,0.0369991734623909,0.01357523538172245
18943375522987,0.9792284965515137,-9.745597839355469,1.1755530834197998,-0.0316755510866642,0.0407257080078125,0.00931633822619915
18943376760300,0.9660604000091553,-9.759963035583496,1.1623849868774414,-0.0314093679189682,0.038063894957304,0.0026618109550327063
18943377997637,0.9828197956085205,-9.749189376831055,1.1552022695541382,-0.0220930315554142,0.0404595248401165,0.010647243820130825
18943379234975,0.9588778018951416,-9.769539833068848,1.114500880241394,-0.02848137728869915,0.0415242500603199,0.012776692397892475
18943380472275,1.0211269855499268,-9.75517463684082,1.1540051698684692,-0.033272635191679,0.038330078125,0.0066545275039970875
18943381709575,0.9923965930938721,-9.747992515563965,1.1599907875061035,-0.0271504707634449,0.0415242500603199,0.005855984054505825
18943382946900,0.9959878921508789,-9.780314445495605,1.169567584991455,-0.0247548408806324,0.0377977155148983,0.0063883461989462376
18943384184237,0.9840168952941895,-9.7791166305542,1.1528080701828003,-0.0271504707634449,0.0391286201775074,0.007985432632267475
18943385421550,0.9816226959228516,-9.758766174316406,1.171961784362793,-0.0252872034907341,0.043121337890625,0.0071868896484375
18943386658875,1.0055646896362305,-9.761160850524902,1.1599907875061035,-0.0196974016726017,0.042855154722929,0.005855984054505825
18943387896200,0.9911994934082031,-9.799468040466309,1.1312602758407593,-0.02315775491297245,0.0412580706179142,0.0114457868039608
18943389133512,0.9648633003234863,-9.745597839355469,1.1611878871917725,-0.02182685025036335,0.0449846051633358,0.008517795242369175
18943390370825,0.9612720012664795,-9.807847023010254,1.1228805780410767,-0.02369011752307415,0.0404595248401165,0.0066545275039970875
18943391608150,1.0115501880645752,-9.791088104248047,1.138442873954773,-0.01889885775744915,0.0409918874502182,0.0037265352439135313
18943392845487,1.016338586807251,-9.77791976928711,1.1516109704971313,-0.0234239362180233,0.038063894957304,0.00931633822619915
18943394082800,1.0043675899505615,-9.794679641723633,1.1623849868774414,-0.023956298828125,0.0393948033452034,0.007985432632267475
18943395320087,1.0307037830352783,-9.829395294189453,1.1647791862487793,-0.0181003138422966,0.0369991734623909,0.00931633822619915
18943396557437,0.9744400978088379,-9.801861763000488,1.1312602758407593,-0.01889885775744915,0.038063894957304,0.0039927163161337376
18943397794762,1.0354923009872437,-9.840168952941895,1.1420341730117798,-0.0228915736079216,0.0425889752805233,0.0042588976211845875
18943399032075,1.0259153842926025,-9.831789016723633,1.1264718770980835,-0.01836649514734745,0.043121337890625,0.0039927163161337376
18943400269400,1.0127472877502441,-9.801861763000488,1.1480196714401245,-0.02608574740588665,0.0396609827876091,0.0066545275039970875
18943401506737,1.0235211849212646,-9.819818496704102,1.136048674583435,-0.0252872034907341,0.0423227921128273,0.01117960549890995
18943402744037,1.0043675899505615,-9.793481826782227,1.1336544752120972,-0.0244886614382267,0.0433875173330307,0.0063883461989462376
18943403981350,1.0211269855499268,-9.794679641723633,1.1803414821624756,-0.02794901467859745,0.0409918874502182,0.005057440605014563
18943405218687,1.0438719987869263,-9.782708168029785,1.1432312726974487,-0.02422248013317585,0.0391286201775074,0.0042588976211845875
18943406456012,0.993593692779541,-9.765949249267578,1.139639973640442,-0.0268842913210392,0.0449846051633358,0.0013309054775163531
18943407693337,1.016338586807251,-9.785102844238281,1.136048674583435,-0.0263519287109375,0.0444522425532341,0.0021294488105922937
18943408930637,0.9971849918365479,-9.761160850524902,1.1516109704971313,-0.02502102218568325,0.0449846051633358,0.0010647244052961469
18943410167975,1.0366894006729126,-9.757569313049316,1.1180921792984009,-0.0252872034907341,0.0455169677734375,0.0
18943411405300,1.0019733905792236,-9.744400978088379,1.137245774269104,-0.0244886614382267,0.043121337890625,0.0021294488105922937
18943412642612,1.0079588890075684,-9.7420072555542,1.138442873954773,-0.0215606689453125,0.0444522425532341,-0.0021294488105922937
18943413879950,1.016338586807251,-9.769539833068848,1.1420341730117798,-0.02022976242005825,0.0441860631108284,-0.0021294488105922937
18943415117262,0.9911994934082031,-9.733627319335938,1.1001356840133667,-0.02741665206849575,0.0460493303835392,-0.0002661811013240367
18943416354562,1.0211269855499268,-9.75278091430664,1.1252747774124146,-0.02369011752307415,0.0409918874502182,-0.0037265352439135313
18943417591887,1.0402806997299194,-9.731232643127441,1.1288660764694214,-0.01996358297765255,0.0423227921128273,-0.005589802749454975
18943418829225,1.0283095836639404,-9.732430458068848,1.0654197931289673,-0.0223592109978199,0.0441860631108284,-0.006122165359556675
18943420066537,1.0187327861785889,-9.75517463684082,1.0905588865280151,-0.0181003138422966,0.0415242500603199,-0.00452507846057415
18943421303862,1.0366894006729126,-9.734824180603027,1.1097124814987183,-0.0162370465695858,0.0452507846057415,-0.0031941730994731188
18943422541187,1.0546458959579468,-9.75397777557373,1.0893617868423462,-0.0204959437251091,0.0505744069814682,-0.007985432632267475
18943423778512,1.0342952013015747,-9.75278091430664,1.0809820890426636,-0.0186326764523983,0.0449846051633358,-0.005855984054505825
18943425015812,1.0642226934432983,-9.737218856811523,1.0989385843276978,-0.0181003138422966,0.0452507846057415,-0.0018632676219567657
18943426253125,1.0390836000442505,-9.763554573059082,1.1516109704971313,-0.0173017717897892,0.0420566126704216,-0.0013309054775163531
18943427490462,1.0223240852355957,-9.773131370544434,1.1097124814987183,-0.0210283063352108,0.0439198799431324,-0.012776692397892475
18943428727787,0.9828197956085205,-9.80904483795166,1.0821791887283325,-0.0234239362180233,0.0495096817612648,-0.010647243820130825
18943429965125,1.0522516965866089,-9.781511306762695,1.1109095811843872,-0.0173017717897892,0.0489773228764534,-0.010114881210029125
18943431202437,1.0319008827209473,-9.792284965515137,1.1085153818130493,-0.0173017717897892,0.0511067695915699,-0.010647243820130825
18943432439750,1.0259153842926025,-9.852140426635742,1.1013327836990356,-0.02076212503015995,0.0481787770986557,-0.01463996060192585
18943433677075,1.0546458959579468,-9.770737648010254,1.1444283723831177,-0.0210283063352108,0.0407257080078125,-0.01410759799182415
18943434914387,1.0271124839782715,-9.793481826782227,1.094150185585022,-0.02022976242005825,0.047646414488554,-0.0119781494140625
18943436151712,1.0223240852355957,-9.786299705505371,1.1324573755264282,-0.01889885775744915,0.0449846051633358,-0.006122165359556675
18943437389037,1.0223240852355957,-9.791088104248047,1.1073182821273804,-0.01836649514734745,0.0484449602663517,-0.00931633822619915
18943438626350,1.0295066833496094,-9.821015357971191,1.1312602758407593,-0.01756795309484005,0.0473802350461483,-0.012776692397892475
18943439863662,1.0354923009872437,-9.75397777557373,1.0809820890426636,-0.0181003138422966,0.0455169677734375,-0.0119781494140625
18943441100975,1.0211269855499268,-9.75278091430664,1.1228805780410767,-0.0181003138422966,0.04791259765625,-0.012776692397892475
18943442338325,1.0797849893569946,-9.758766174316406,1.1180921792984009,-0.01783413253724575,0.0463155098259449,-0.008517795242369175
18943443575625,1.0414777994155884,-9.736021041870117,1.1121066808700562,-0.01357523538172245,0.0425889752805233,-0.0114457868039608
18943444812950,1.048660397529602,-9.743204116821289,1.094150185585022,-0.01463996060192585,0.0455169677734375,-0.01756795309484005
18943446050287,1.0426748991012573,-9.759963035583496,1.0989385843276978,-0.015438503585755825,0.0447184219956398,-0.013309055007994175
18943447287612,1.0259153842926025,-9.744400978088379,1.1468225717544556,-0.01703559048473835,0.0452507846057415,-0.013042873702943325
18943448524925,0.9995791912078857,-9.749189376831055,1.115697979927063,-0.0244886614382267,0.0449846051633358,-0.01171196810901165
18943449762250,1.0558429956436157,-9.738415718078613,1.1001356840133667,-0.0196974016726017,0.0492435023188591,-0.01836649514734745
18943450999562,1.0594342947006226,-9.734824180603027,1.1037269830703735,-0.010381062515079975,0.0516391322016716,-0.014906140975654125
18943452236887,1.0414777994155884,-9.77672290802002,1.1336544752120972,-0.005589802749454975,0.0455169677734375,-0.00958251953125
18943453474200,1.0414777994155884,-9.767146110534668,1.1121066808700562,-0.0114457868039608,0.0449846051633358,-0.0119781494140625
18943454711512,1.0450690984725952,-9.764751434326172,1.0965443849563599,-0.014906140975654125,0.0449846051633358,-0.01650322787463665
18943455948837,1.0115501880645752,-9.764751434326172,1.0965443849563599,-0.01357523538172245,0.0423227921128273,-0.0181003138422966
18943457186175,1.0438719987869263,-9.734824180603027,1.0809820890426636,-0.013309055007994175,0.043121337890625,-0.014373779296875
18943458423475,1.0642226934432983,-9.720458984375,1.1049240827560425,-0.015172322280704975,0.0465816929936409,-0.01410759799182415
18943459660800,1.0450690984725952,-9.726444244384766,1.0989385843276978,-0.010913425125181675,0.0444522425532341,-0.01224433071911335
18943460898125,1.0438719987869263,-9.743204116821289,1.0809820890426636,-0.00984870083630085,0.0409918874502182,-0.00984870083630085
18943462135450,1.0809820890426636,-9.708487510681152,1.114500880241394,-0.01224433071911335,0.0447184219956398,-0.013042873702943325
18943463372775,1.0654197931289673,-9.701305389404297,1.0857704877853394,-0.0063883461989462376,0.0497758649289608,-0.0210283063352108
18943464610087,1.0785878896713257,-9.697713851928711,1.0965443849563599,-0.005057440605014563,0.0441860631108284,-0.010647243820130825
18943465847400,1.0618284940719604,-9.72165584564209,1.092953085899353,-0.005589802749454975,0.0420566126704216,-0.005855984054505825
18943467084737,1.0893617868423462,-9.697713851928711,1.114500880241394,-0.0021294488105922937,0.0436537005007267,-0.007985432632267475
18943468322037,1.0462661981582642,-9.726444244384766,1.1420341730117798,-0.0018632676219567657,0.0412580706179142,-0.012776692397892475
18943469559375,1.0642226934432983,-9.730035781860352,1.1623849868774414,-0.0063883461989462376,0.0423227921128273,-0.014373779296875
18943470796687,1.0570400953292847,-9.739612579345703,1.1504138708114624,-0.00452507846057415,0.0468478724360466,-0.00958251953125
18943472034012,1.0462661981582642,-9.738415718078613,1.1240776777267456,-0.0021294488105922937,0.0439198799431324,-0.012510511092841625
18943473271350,1.0067617893218994,-9.714473724365234,1.1121066808700562,-0.0039927163161337376,0.042855154722929,-0.01410759799182415
18943474508662,1.0821791887283325,-9.692925453186035,1.1037269830703735,-0.005589802749454975,0.0452507846057415,-0.010913425125181675
18943475745962,1.0749965906143188,-9.71926212310791,1.1085153818130493,-0.0005323622026480734,0.043121337890625,-0.0119781494140625
18943476983300,1.0749965906143188,-9.733627319335938,1.0582371950149536,0.0013309054775163531,0.0409918874502182,-0.0071868896484375
18943478220612,1.071405291557312,-9.728838920593262,1.1073182821273804,-0.00452507846057415,0.0388624407351017,-0.010114881210029125
18943479457950,1.070208191871643,-9.720458984375,1.113303780555725,0.0,0.0441860631108284,-0.01117960549890995
18943480695262,1.047463297843933,-9.739612579345703,1.091755986213684,0.0029279920272529125,0.0460493303835392,-0.007985432632267475
18943481932587,1.0785878896713257,-9.691728591918945,1.1049240827560425,0.0037265352439135313,0.0409918874502182,-0.00931633822619915
18943483169900,1.0546458959579468,-9.75158405303955,1.1228805780410767,0.005057440605014563,0.0393948033452034,-0.0090501569211483
18943484407237,1.0462661981582642,-9.730035781860352,1.1300631761550903,0.003460354171693325,0.0369991734623909,-0.005589802749454975
18943485644550,1.0618284940719604,-9.736021041870117,1.1348515748977661,0.00692070834338665,0.0415242500603199,-0.007453070487827063
18943486881875,1.0558429956436157,-9.709685325622559,1.1025298833847046,0.00692070834338665,0.043121337890625,-0.004791259765625
18943488119175,1.0618284940719604,-9.724050521850586,1.1180921792984009,0.00931633822619915,0.0364668108522892,-0.0090501569211483
18943489356500,1.0809820890426636,-9.714473724365234,1.095347285270691,0.01357523538172245,0.0415242500603199,-0.003460354171693325
18943490593825,1.0558429956436157,-9.739612579345703,1.138442873954773,0.0071868896484375,0.0452507846057415,0.0002661811013240367
18943491831175,1.0546458959579468,-9.72165584564209,1.0905588865280151,0.00931633822619915,0.0420566126704216,-0.0007985432748682797
18943493068475,1.1001356840133667,-9.682151794433594,1.0857704877853394,0.01171196810901165,0.0375315360724926,-0.0026618109550327063
18943494305800,1.1109095811843872,-9.731232643127441,1.0893617868423462,0.004791259765625,0.0436537005007267,-0.007453070487827063
18943495543112,1.1204863786697388,-9.697713851928711,1.1121066808700562,0.00692070834338665,0.043121337890625,-0.005057440605014563
18943496780450,1.0893617868423462,-9.715670585632324,1.1408370733261108,0.010913425125181675,0.0425889752805233,-0.0002661811013240367
18943498017750,1.0965443849563599,-9.749189376831055,1.1073182821273804,0.00931633822619915,0.0396609827876091,-0.0021294488105922937
18943499255075,1.0749965906143188,-9.732430458068848,1.1061211824417114,0.010913425125181675,0.0399271659553051,-0.0053236219100654125
18943500492412,1.070208191871643,-9.725247383117676,1.0857704877853394,0.0157046839594841,0.038330078125,-0.0010647244052961469
18943501729725,1.1180921792984009,-9.709685325622559,1.138442873954773,0.012510511092841625,0.0372653529047966,-0.0010647244052961469
18943502967037,1.0534487962722778,-9.744400978088379,1.1204863786697388,0.012510511092841625,0.0359344482421875,0.0005323622026480734
18943504204362,1.0079588890075684,-9.72165584564209,1.0797849893569946,0.01410759799182415,0.0351359061896801,-0.0023956298828125
18943505441675,1.071405291557312,-9.72285270690918,1.0654197931289673,0.0114457868039608,0.0375315360724926,-0.0029279920272529125
18943506679000,1.1097124814987183,-9.730035781860352,1.070208191871643,0.013042873702943325,0.0399271659553051,0.0
18943507916337,1.0187327861785889,-9.710882186889648,1.0989385843276978,0.01224433071911335,0.0404595248401165,-0.006122165359556675
18943509153637,1.0857704877853394,-9.710882186889648,1.1599907875061035,0.0157046839594841,0.0420566126704216,-0.0021294488105922937
18943510390975,1.0594342947006226,-9.743204116821289,1.1276689767837524,0.01650322787463665,0.0396609827876091,-0.0015970865497365594
18943511628287,1.0809820890426636,-9.72285270690918,1.1312602758407593,0.0173017717897892,0.0425889752805233,-0.0026618109550327063
18943512865600,1.0797849893569946,-9.743204116821289,1.1324573755264282,0.0181003138422966,0.0393948033452034,-0.0002661811013240367
18943514102925,1.0845733880996704,-9.725247383117676,1.1300631761550903,0.01650322787463665,0.0377977155148983,-0.0037265352439135313
18943515340237,1.094150185585022,-9.725247383117676,1.1432312726974487,0.01463996060192585,0.0311431884765625,-0.003460354171693325
18943516577575,1.1049240827560425,-9.730035781860352,1.1121066808700562,0.015172322280704975,0.0292799212038517,0.0010647244052961469
18943517814887,1.0893617868423462,-9.762357711791992,1.1420341730117798,0.0204959437251091,0.0343373604118824,0.0029279920272529125
18943519052212,1.0965443849563599,-9.71926212310791,1.1300631761550903,0.0220930315554142,0.0340711809694767,-0.00452507846057415
18943520289525,1.0462661981582642,-9.738415718078613,1.1587936878204346,0.01703559048473835,0.0343373604118824,-0.0037265352439135313
18943521526850,1.0761936902999878,-9.750386238098145,1.1599907875061035,0.01889885775744915,0.033538818359375,-0.003460354171693325
18943522764200,1.114500880241394,-9.780314445495605,1.1288660764694214,0.01996358297765255,0.0338049978017807,0.0015970865497365594
18943524001487,1.0881646871566772,-9.798270225524902,1.1456254720687866,0.02022976242005825,0.0311431884765625,0.0007985432748682797
18943525238837,1.0749965906143188,-9.769539833068848,1.1085153818130493,0.0223592109978199,0.0316755510866642,-0.0018632676219567657
18943526476137,1.0845733880996704,-9.750386238098145,1.1492167711257935,0.0210283063352108,0.033538818359375,0.0005323622026480734
18943527713462,1.0845733880996704,-9.78869342803955,1.1300631761550903,0.02076212503015995,0.02874755859375,-0.005589802749454975
18943528950787,1.094150185585022,-9.773131370544434,1.1336544752120972,0.01703559048473835,0.0348697230219841,-0.00692070834338665
18943530188100,1.1109095811843872,-9.764751434326172,1.116895079612732,0.02076212503015995,0.0295461006462574,-0.0042588976211845875
18943531425412,1.0749965906143188,-9.798270225524902,1.1300631761550903,0.02022976242005825,0.03034464456140995,-0.003460354171693325
18943532662750,1.1013327836990356,-9.787496566772461,1.0989385843276978,0.014373779296875,0.0311431884765625,-0.0023956298828125
18943533900075,1.092953085899353,-9.797073364257812,1.1288660764694214,0.01650322787463665,0.0338049978017807,-0.005589802749454975
18943535137387,1.095347285270691,-9.80904483795166,1.1468225717544556,0.01597086526453495,0.0322079136967659,-0.0039927163161337376
18943536374712,1.0678139925003052,-9.797073364257812,1.1228805780410767,0.0162370465695858,0.0330064557492733,-0.0021294488105922937
18943537612037,1.0797849893569946,-9.819818496704102,1.1180921792984009,0.02262539230287075,0.03087700717151165,-0.0037265352439135313
18943538849350,1.0809820890426636,-9.829395294189453,1.1563994884490967,0.0215606689453125,0.02901373989880085,-0.0018632676219567657
18943540086662,1.0857704877853394,-9.821015357971191,1.1683704853057861,0.02022976242005825,0.02794901467859745,0.0002661811013240367
18943541324000,1.1216834783554077,-9.827000617980957,1.1444283723831177,0.0220930315554142,0.0271504707634449,-0.0007985432748682797
18943542561325,1.1109095811843872,-9.78869342803955,1.1264718770980835,0.02076212503015995,0.0252872034907341,-0.0029279920272529125
18943543798625,1.048660397529602,-9.737218856811523,1.1827356815338135,0.02129448764026165,0.02901373989880085,-0.005589802749454975
18943545035950,1.1180921792984009,-9.791088104248047,1.136048674583435,0.01410759799182415,0.0234239362180233,-0.0023956298828125
18943546273275,1.0678139925003052,-9.850942611694336,1.1575965881347656,0.0215606689453125,0.02422248013317585,0.0015970865497365594
18943547510612,1.07379949092865,-9.799468040466309,1.1480196714401245,0.02182685025036335,0.02661811001598835,0.0007985432748682797
18943548747925,1.1049240827560425,-9.799468040466309,1.1001356840133667,0.02076212503015995,0.02182685025036335,0.0023956298828125
18943549985237,1.0785878896713257,-9.794679641723633,1.1288660764694214,0.0196974016726017,0.02369011752307415,0.0
18943551222562,1.115697979927063,-9.781511306762695,1.1013327836990356,0.02262539230287075,0.0263519287109375,-0.0015970865497365594
18943552459875,1.115697979927063,-9.740809440612793,1.115697979927063,0.01943122036755085,0.01783413253724575,-0.0029279920272529125
18943553697200,1.0857704877853394,-9.770737648010254,1.113303780555725,0.0162370465695858,0.01756795309484005,-0.0029279920272529125
18943554934525,1.092953085899353,-9.793481826782227,1.137245774269104,0.0215606689453125,0.02182685025036335,-0.00452507846057415
18943556171850,1.1228805780410767,-9.759963035583496,1.138442873954773,0.0204959437251091,0.0247548408806324,-0.003460354171693325
18943557409175,1.0845733880996704,-9.759963035583496,1.1611878871917725,0.0196974016726017,0.0228915736079216,-0.0039927163161337376
18943558646487,1.0881646871566772,-9.758766174316406,1.1791443824768066,0.01597086526453495,0.0228915736079216,-0.0031941730994731188
18943559883812,1.1180921792984009,-9.731232643127441,1.1587936878204346,0.02022976242005825,0.01889885775744915,-0.0007985432748682797
18943561121150,1.0965443849563599,-9.750386238098145,1.1468225717544556,0.023956298828125,0.01836649514734745,-0.004791259765625
18943562358475,1.0773907899856567,-9.7420072555542,1.1408370733261108,0.0234239362180233,0.0191650390625,0.0
18943563595787,1.1121066808700562,-9.767146110534668,1.1252747774124146,0.02022976242005825,0.01996358297765255,0.0053236219100654125
18943564833087,1.0881646871566772,-9.789891242980957,1.1097124814987183,0.0204959437251091,0.02022976242005825,0.0010647244052961469
18943566070412,1.0821791887283325,-9.793481826782227,1.1599907875061035,0.01889885775744915,0.01943122036755085,-0.0053236219100654125
18943567307725,1.0833762884140015,-9.764751434326172,1.1827356815338135,0.01996358297765255,0.0191650390625,-0.005855984054505825
18943568545050,1.0797849893569946,-9.7420072555542,1.137245774269104,0.02315775491297245,0.01996358297765255,-0.0005323622026480734
18943569782387,1.0977414846420288,-9.732430458068848,1.1528080701828003,0.02262539230287075,0.0173017717897892,-0.0037265352439135313
18943571019700,1.1192892789840698,-9.726444244384766,1.1528080701828003,0.0204959437251091,0.013309055007994175,0.0013309054775163531
18943572257037,1.092953085899353,-9.791088104248047,1.1240776777267456,0.0210283063352108,0.014906140975654125,-0.00452507846057415
18943573494350,1.1001356840133667,-9.771934509277344,1.1420341730117798,0.0196974016726017,0.01410759799182415,-0.005057440605014563
18943574731675,1.0869675874710083,-9.786299705505371,1.1599907875061035,0.01650322787463665,0.0162370465695858,-0.0021294488105922937
18943575968987,1.1324573755264282,-9.762357711791992,1.173158884048462,0.01996358297765255,0.01756795309484005,-0.0010647244052961469
18943577206312,1.1037269830703735,-9.744400978088379,1.1408370733261108,0.0191650390625,0.0119781494140625,0.0005323622026480734
18943578443637,1.0905588865280151,-9.813833236694336,1.1456254720687866,0.02182685025036335,0.0138414166867733,-0.0031941730994731188
18943579680975,1.0749965906143188,-9.81143856048584,1.1647791862487793,0.0196974016726017,0.010381062515079975,0.0002661811013240367
18943580918262,1.1408370733261108,-9.795876502990723,1.1073182821273804,0.01463996060192585,0.012776692397892475,0.003460354171693325
18943582155600,1.0797849893569946,-9.792284965515137,1.169567584991455,0.01756795309484005,0.014373779296875,0.0007985432748682797
18943583392925,1.0977414846420288,-9.817423820495605,1.173158884048462,0.01996358297765255,0.0167694091796875,-0.0023956298828125
18943584630250,1.095347285270691,-9.864110946655273,1.171961784362793,0.0220930315554142,0.0119781494140625,0.0018632676219567657
18943585867550,1.07379949092865,-9.800664901733398,1.1288660764694214,0.01996358297765255,0.013042873702943325,0.0018632676219567657
18943587104887,1.1037269830703735,-9.84495735168457,1.1049240827560425,0.01597086526453495,0.010913425125181675,-0.0007985432748682797
18943588342225,1.0582371950149536,-9.865307807922363,1.1312602758407593,0.0191650390625,0.010381062515079975,0.0021294488105922937
18943589579537,1.0785878896713257,-9.86650562286377,1.1121066808700562,0.01756795309484005,0.00692070834338665,0.0007985432748682797
18943590816837,1.1336544752120972,-9.815030097961426,1.136048674583435,0.0186326764523983,0.0119781494140625,-0.0002661811013240367
18943592054162,1.1312602758407593,-9.837775230407715,1.1779472827911377,0.0186326764523983,0.007985432632267475,0.0
18943593291500,1.113303780555725,-9.853337287902832,1.1683704853057861,0.014906140975654125,0.0066545275039970875,-0.0013309054775163531
18943594528812,1.0905588865280151,-9.836577415466309,1.0989385843276978,0.014906140975654125,0.005057440605014563,0.0
18943595766150,1.0833762884140015,-9.838972091674805,1.1575965881347656,0.01224433071911335,0.005057440605014563,0.0007985432748682797
18943597003475,1.1264718770980835,-9.792284965515137,1.1887211799621582,0.01410759799182415,0.0071868896484375,0.0013309054775163531
18943598240787,1.1276689767837524,-9.815030097961426,1.1240776777267456,0.01597086526453495,0.0077192517928779125,0.00452507846057415
18943599478100,1.094150185585022,-9.800664901733398,1.1791443824768066,0.00958251953125,0.005057440605014563,0.0
18943600715425,1.1468225717544556,-9.799468040466309,1.215057373046875,0.00984870083630085,0.0005323622026480734,0.0015970865497365594
18943601952737,1.1216834783554077,-9.789891242980957,1.1851298809051514,0.01463996060192585,-0.0005323622026480734,0.005057440605014563
18943603190062,1.0893617868423462,-9.824606895446777,1.1755530834197998,0.01171196810901165,0.0018632676219567657,0.0018632676219567657
18943604427400,1.1240776777267456,-9.816226959228516,1.1659762859344482,0.010913425125181675,0.004791259765625,-0.0031941730994731188
18943605664712,1.1001356840133667,-9.804256439208984,1.1276689767837524,0.00931633822619915,0.0031941730994731188,0.0005323622026480734
18943606902050,1.115697979927063,-9.81143856048584,1.1492167711257935,0.008783976547420025,0.0002661811013240367,0.0002661811013240367
18943608139350,1.1228805780410767,-9.817423820495605,1.1552022695541382,0.013309055007994175,0.0031941730994731188,0.0010647244052961469
18943609376675,1.1061211824417114,-9.792284965515137,1.2054805755615234,0.012510511092841625,0.007985432632267475,-0.0007985432748682797
18943610613987,1.092953085899353,-9.792284965515137,1.1468225717544556,0.0138414166867733,0.005589802749454975,0.0015970865497365594
18943611851312,1.1300631761550903,-9.828198432922363,1.115697979927063,0.0119781494140625,-0.0005323622026480734,0.0007985432748682797
18943613088637,1.116895079612732,-9.824606895446777,1.1611878871917725,0.007453070487827063,-0.0007985432748682797,-0.0015970865497365594
18943614325987,1.1516109704971313,-9.81263542175293,1.170764684677124,0.00984870083630085,-0.0002661811013240367,0.0
18943615563287,1.1121066808700562,-9.798270225524902,1.137245774269104,0.0077192517928779125,-0.0002661811013240367,0.0023956298828125
18943616800612,1.1659762859344482,-9.819818496704102,1.1587936878204346,0.005589802749454975,0.0023956298828125,0.0002661811013240367
18943618037937,1.0893617868423462,-9.835380554199219,1.1444283723831177,0.0042588976211845875,0.0013309054775163531,0.004791259765625
18943619275262,1.1312602758407593,-9.80904483795166,1.192312479019165,0.0039927163161337376,-0.00452507846057415,0.003460354171693325
18943620512575,1.0821791887283325,-9.84256362915039,1.1456254720687866,0.005589802749454975,-0.0023956298828125,0.0018632676219567657
18943621749900,1.0881646871566772,-9.813833236694336,1.1228805780410767,0.005589802749454975,0.0021294488105922937,-0.0010647244052961469
18943622987212,1.1408370733261108,-9.828198432922363,1.1528080701828003,0.0077192517928779125,-0.0021294488105922937,-0.0002661811013240367
18943624224550,1.1252747774124146,-9.852140426635742,1.1276689767837524,0.008251613937318325,-0.007985432632267475,0.004791259765625
18943625461862,1.114500880241394,-9.795876502990723,1.1468225717544556,0.006122165359556675,-0.00984870083630085,0.0039927163161337376
18943626699187,1.1121066808700562,-9.750386238098145,1.1791443824768066,0.0063883461989462376,-0.00984870083630085,0.0007985432748682797
18943627936512,1.0761936902999878,-9.817423820495605,1.2186486721038818,0.007985432632267475,-0.006122165359556675,0.0042588976211845875
18943629173837,1.0797849893569946,-9.830592155456543,1.1276689767837524,0.0002661811013240367,0.0026618109550327063,-0.0026618109550327063
18943630411150,1.0965443849563599,-9.817423820495605,1.1444283723831177,0.0037265352439135313,-0.0031941730994731188,0.0013309054775163531
18943631648475,1.0845733880996704,-9.832986831665039,1.1552022695541382,0.003460354171693325,-0.0077192517928779125,0.0029279920272529125
18943632885775,1.0761936902999878,-9.84615421295166,1.1875240802764893,0.0013309054775163531,-0.005057440605014563,-0.005855984054505825
18943634123112,1.0893617868423462,-9.841365814208984,1.1815385818481445,0.0018632676219567657,-0.003460354171693325,-0.00452507846057415
18943635360437,1.0582371950149536,-9.831789016723633,1.1959037780761719,-0.0007985432748682797,-0.0021294488105922937,0.005589802749454975
18943636597775,1.0833762884140015,-9.81024169921875,1.1540051698684692,0.0029279920272529125,-0.010114881210029125,0.005589802749454975
18943637835087,1.1228805780410767,-9.795876502990723,1.1575965881347656,0.0005323622026480734,-0.010114881210029125,0.0023956298828125
18943639072400,1.1049240827560425,-9.794679641723633,1.136048674583435,-0.0010647244052961469,-0.0031941730994731188,-0.0031941730994731188
18943640309725,1.0642226934432983,-9.815030097961426,1.1611878871917725,0.0021294488105922937,-0.0039927163161337376,-0.0013309054775163531
18943641547050,1.1013327836990356,-9.803058624267578,1.1587936878204346,0.004791259765625,-0.01224433071911335,-0.0026618109550327063
18943642784362,1.091755986213684,-9.800664901733398,1.1755530834197998,0.0007985432748682797,-0.010114881210029125,0.0063883461989462376
18943644021687,1.0821791887283325,-9.783905029296875,1.1635820865631104,0.0018632676219567657,-0.0063883461989462376,0.0026618109550327063
18943645259012,1.0857704877853394,-9.780314445495605,1.1408370733261108,0.0039927163161337376,-0.00692070834338665,0.0007985432748682797
18943646496362,1.0881646871566772,-9.781511306762695,1.1599907875061035,0.0005323622026480734,-0.008517795242369175,0.0013309054775163531
18943647733625,1.0845733880996704,-9.847352027893066,1.1408370733261108,0.003460354171693325,-0.008517795242369175,-0.0042588976211845875
18943648970962,1.0785878896713257,-9.801861763000488,1.1192892789840698,0.0002661811013240367,-0.008783976547420025,0.0007985432748682797
18943650208287,1.0821791887283325,-9.835380554199219,1.1563994884490967,0.0,-0.01171196810901165,0.0021294488105922937
18943651445637,1.0522516965866089,-9.824606895446777,1.1228805780410767,0.0042588976211845875,-0.012776692397892475,0.0002661811013240367
18943652682950,1.0845733880996704,-9.856928825378418,1.138442873954773,0.0023956298828125,-0.01117960549890995,0.0029279920272529125
18943653920250,1.0630255937576294,-9.818621635437012,1.1300631761550903,0.0023956298828125,-0.0077192517928779125,0.0023956298828125
18943655157575,1.138442873954773,-9.789891242980957,1.1420341730117798,-0.0013309054775163531,-0.007453070487827063,0.0021294488105922937
18943656394912,1.0606313943862915,-9.789891242980957,1.1336544752120972,-0.0010647244052961469,-0.013309055007994175,0.005855984054505825
18943657632225,1.1121066808700562,-9.830592155456543,1.094150185585022,0.0,-0.008251613937318325,0.004791259765625
18943658869550,1.0666168928146362,-9.834183692932129,1.1228805780410767,-0.0005323622026480734,-0.00984870083630085,0.006122165359556675
18943660106875,1.0630255937576294,-9.798270225524902,1.115697979927063,0.0015970865497365594,-0.007985432632267475,0.0077192517928779125
18943661344200,1.0869675874710083,-9.785102844238281,1.1827356815338135,0.0,-0.010647243820130825,0.005589802749454975
18943662581525,1.1013327836990356,-9.832986831665039,1.1408370733261108,0.0010647244052961469,-0.015172322280704975,0.0071868896484375
18943663818837,1.092953085899353,-9.807847023010254,1.169567584991455,-0.0029279920272529125,-0.01171196810901165,0.0018632676219567657
18943665056150,1.0761936902999878,-9.792284965515137,1.1336544752120972,-0.0013309054775163531,-0.00692070834338665,0.0023956298828125
18943666293487,1.0869675874710083,-9.81263542175293,1.114500880241394,0.0013309054775163531,-0.0114457868039608,0.0018632676219567657
18943667530787,1.0821791887283325,-9.782708168029785,1.1444283723831177,-0.0023956298828125,-0.012776692397892475,0.005057440605014563
18943668768112,1.0630255937576294,-9.821015357971191,1.1671733856201172,-0.0013309054775163531,-0.0138414166867733,0.0023956298828125
18943670005450,1.0905588865280151,-9.806650161743164,1.091755986213684,0.0,-0.0157046839594841,0.0021294488105922937
18943671242762,1.0833762884140015,-9.7791166305542,1.1599907875061035,-0.0013309054775163531,-0.01171196810901165,0.0015970865497365594
18943672480087,1.0833762884140015,-9.794679641723633,1.1468225717544556,-0.003460354171693325,-0.0114457868039608,0.0002661811013240367
18943673717412,1.0881646871566772,-9.767146110534668,1.1252747774124146,-0.0037265352439135313,-0.01224433071911335,-0.0002661811013240367
18943674954737,1.05105459690094,-9.77552604675293,1.116895079612732,-0.003460354171693325,-0.007985432632267475,-0.0010647244052961469
18943676192062,1.0989385843276978,-9.799468040466309,1.114500880241394,-0.0007985432748682797,-0.0114457868039608,0.0013309054775163531
18943677429362,1.091755986213684,-9.813833236694336,1.1779472827911377,0.0010647244052961469,-0.015172322280704975,0.0026618109550327063
18943678666687,1.0630255937576294,-9.792284965515137,1.1420341730117798,0.0007985432748682797,-0.01357523538172245,0.0015970865497365594
18943679904012,1.1001356840133667,-9.774328231811523,1.115697979927063,-0.0018632676219567657,-0.012776692397892475,0.0039927163161337376
18943681141325,1.0881646871566772,-9.798270225524902,1.1623849868774414,0.0002661811013240367,-0.0138414166867733,0.0053236219100654125
18943682378662,1.07379949092865,-9.799468040466309,1.1575965881347656,-0.0005323622026480734,-0.01357523538172245,0.004791259765625
18943683615987,1.0606313943862915,-9.792284965515137,1.1528080701828003,-0.0018632676219567657,-0.013042873702943325,0.0
18943684853312,1.0594342947006226,-9.789891242980957,1.1587936878204346,-0.0026618109550327063,-0.013309055007994175,0.0005323622026480734
18943686090625,1.0785878896713257,-9.792284965515137,1.194706678390503,-0.004791259765625,-0.0138414166867733,0.0031941730994731188
18943687327962,1.0845733880996704,-9.789891242980957,1.1216834783554077,-0.0010647244052961469,-0.0186326764523983,0.008251613937318325
18943688565275,1.0965443849563599,-9.805453300476074,1.1444283723831177,0.0,-0.01357523538172245,0.0090501569211483
18943689802587,1.0833762884140015,-9.791088104248047,1.2114660739898682,-0.005589802749454975,-0.01224433071911335,0.0063883461989462376
18943691039912,1.0749965906143188,-9.765949249267578,1.1659762859344482,-0.0005323622026480734,-0.012776692397892475,0.00452507846057415
18943692277237,1.0642226934432983,-9.732430458068848,1.1456254720687866,-0.0031941730994731188,-0.008251613937318325,0.004791259765625
18943693514550,1.0546458959579468,-9.761160850524902,1.1516109704971313,-0.0031941730994731188,-0.010114881210029125,0.003460354171693325
18943694751875,1.049857497215271,-9.77552604675293,1.1791443824768066,-0.0029279920272529125,-0.014906140975654125,0.0010647244052961469
18943695989200,1.0749965906143188,-9.770737648010254,1.1599907875061035,-0.0007985432748682797,-0.015172322280704975,0.007985432632267475
18943697226525,1.1001356840133667,-9.731232643127441,1.1121066808700562,-0.0002661811013240367,-0.0162370465695858,0.0066545275039970875
18943698463837,1.0546458959579468,-9.757569313049316,1.192312479019165,-0.0007985432748682797,-0.0138414166867733,0.0090501569211483
18943699701162,1.094150185585022,-9.77552604675293,1.1348515748977661,-0.0015970865497365594,-0.0138414166867733,0.0077192517928779125
18943700938487,1.0893617868423462,-9.757569313049316,1.1599907875061035,-0.0023956298828125,-0.0119781494140625,0.005057440605014563
18943702175812,1.1300631761550903,-9.740809440612793,1.1480196714401245,-0.0021294488105922937,-0.012776692397892475,0.0042588976211845875
18943703413112,1.1061211824417114,-9.7420072555542,1.138442873954773,-0.0007985432748682797,-0.015172322280704975,0.00692070834338665
18943704650450,1.0546458959579468,-9.736021041870117,1.1276689767837524,0.0010647244052961469,-0.01756795309484005,0.008517795242369175
18943705887787,1.0749965906143188,-9.743204116821289,1.1420341730117798,-0.0029279920272529125,-0.0173017717897892,0.0039927163161337376
18943707125087,1.0977414846420288,-9.72165584564209,1.2018892765045166,0.0021294488105922937,-0.00984870083630085,0.0029279920272529125
18943708362425,1.0606313943862915,-9.75397777557373,1.1312602758407593,-0.0029279920272529125,-0.01224433071911335,0.00452507846057415
18943709599750,1.0977414846420288,-9.749189376831055,1.1324573755264282,-0.0010647244052961469,-0.0162370465695858,0.00931633822619915
18943710837037,1.095347285270691,-9.75278091430664,1.1192892789840698,0.0031941730994731188,-0.0162370465695858,0.005589802749454975
18943712074362,1.07379949092865,-9.738415718078613,1.1420341730117798,-0.0005323622026480734,-0.015172322280704975,0.0119781494140625
18943713311725,1.0905588865280151,-9.749189376831055,1.1240776777267456,-0.0026618109550327063,-0.01410759799182415,0.007453070487827063
18943714549025,1.0749965906143188,-9.75278091430664,1.1121066808700562,0.0018632676219567657,-0.014373779296875,0.01117960549890995
18943715786350,1.1049240827560425,-9.807847023010254,1.1456254720687866,-0.003460354171693325,-0.0173017717897892,0.0077192517928779125
18943717023650,1.1204863786697388,-9.799468040466309,1.1599907875061035,-0.0002661811013240367,-0.0157046839594841,0.008251613937318325
18943718260987,1.0857704877853394,-9.770737648010254,1.1803414821624756,0.0018632676219567657,-0.01357523538172245,0.0077192517928779125
18943719498325,1.0785878896713257,-9.781511306762695,1.1743559837341309,-0.0010647244052961469,-0.0162370465695858,0.007453070487827063
18943720735625,1.0893617868423462,-9.789891242980957,1.139639973640442,0.0026618109550327063,-0.01650322787463665,0.00984870083630085
18943721972937,1.0809820890426636,-9.815030097961426,1.1252747774124146,-0.0002661811013240367,-0.0173017717897892,0.0077192517928779125
18943723210275,1.1085153818130493,-9.799468040466309,1.1743559837341309,-0.0018632676219567657,-0.02022976242005825,0.00692070834338665
18943724447587,1.1336544752120972,-9.827000617980957,1.1839327812194824,0.0,-0.0191650390625,0.008517795242369175
18943725684912,1.092953085899353,-9.77791976928711,1.1336544752120972,-0.0002661811013240367,-0.01224433071911335,0.005855984054505825
18943726922225,1.0558429956436157,-9.834183692932129,1.139639973640442,0.0010647244052961469,-0.01597086526453495,0.008517795242369175
18943728159550,1.1001356840133667,-9.800664901733398,1.171961784362793,-0.0021294488105922937,-0.01756795309484005,0.00931633822619915
18943729396875,1.0809820890426636,-9.807847023010254,1.1982979774475098,0.00692070834338665,-0.0173017717897892,0.01357523538172245
18943730634187,1.1085153818130493,-9.789891242980957,1.1252747774124146,0.0026618109550327063,-0.01703559048473835,0.014373779296875
18943731871512,1.0905588865280151,-9.782708168029785,1.1073182821273804,0.0018632676219567657,-0.0204959437251091,0.0077192517928779125
18943733108825,1.091755986213684,-9.773131370544434,1.1121066808700562,0.0021294488105922937,-0.0173017717897892,0.0119781494140625
18943734346150,1.0690110921859741,-9.804256439208984,1.1252747774124146,0.0018632676219567657,-0.0167694091796875,0.007985432632267475
18943735583487,1.1001356840133667,-9.786299705505371,1.1432312726974487,0.0018632676219567657,-0.01597086526453495,0.004791259765625
18943736820800,1.1216834783554077,-9.822212219238281,1.1575965881347656,-0.0029279920272529125,-0.014906140975654125,0.00931633822619915
18943738058137,1.0869675874710083,-9.765949249267578,1.1324573755264282,0.0010647244052961469,-0.0215606689453125,0.0090501569211483
18943739295437,1.1109095811843872,-9.825803756713867,1.1001356840133667,0.0077192517928779125,-0.02129448764026165,0.01171196810901165
18943740532750,1.113303780555725,-9.797073364257812,1.1300631761550903,0.008783976547420025,-0.0244886614382267,0.012776692397892475
18943741770087,1.0905588865280151,-9.792284965515137,1.1779472827911377,0.0042588976211845875,-0.0210283063352108,0.014906140975654125
18943743007412,1.0570400953292847,-9.819818496704102,1.1599907875061035,-0.0005323622026480734,-0.01410759799182415,0.0138414166867733
18943744244737,1.0965443849563599,-9.770737648010254,1.1552022695541382,0.0026618109550327063,-0.01836649514734745,0.0157046839594841
18943745482075,1.0797849893569946,-9.780314445495605,1.2030863761901855,0.005855984054505825,-0.01889885775744915,0.0114457868039608
18943746719375,1.1073182821273804,-9.824606895446777,1.114500880241394,0.0015970865497365594,-0.0181003138422966,0.012776692397892475
18943747956712,1.094150185585022,-9.817423820495605,1.1312602758407593,0.0021294488105922937,-0.0162370465695858,0.01224433071911335
18943749194025,1.0809820890426636,-9.797073364257812,1.1180921792984009,-0.0013309054775163531,-0.02022976242005825,0.013309055007994175
18943750431337,1.0977414846420288,-9.780314445495605,1.1851298809051514,-0.0018632676219567657,-0.0181003138422966,0.01463996060192585
18943751668662,1.0749965906143188,-9.743204116821289,1.138442873954773,0.0005323622026480734,-0.01597086526453495,0.01357523538172245
18943752906000,1.070208191871643,-9.785102844238281,1.138442873954773,0.005589802749454975,-0.0186326764523983,0.012510511092841625
18943754143300,1.0678139925003052,-9.78869342803955,1.1276689767837524,0.0010647244052961469,-0.01410759799182415,0.01703559048473835
18943755380637,1.0761936902999878,-9.793481826782227,1.1192892789840698,0.0010647244052961469,-0.0173017717897892,0.01410759799182415
18943756617950,1.0821791887283325,-9.783905029296875,1.1085153818130493,0.0,-0.02661811001598835,0.01836649514734745
18943757855275,1.0749965906143188,-9.804256439208984,1.1540051698684692,-0.0010647244052961469,-0.0215606689453125,0.0162370465695858
18943759092600,1.0642226934432983,-9.768342971801758,1.1982979774475098,0.0031941730994731188,-0.0210283063352108,0.01117960549890995
18943760329925,1.0666168928146362,-9.7420072555542,1.1492167711257935,0.0053236219100654125,-0.0186326764523983,0.010913425125181675
18943761567237,1.1001356840133667,-9.747992515563965,1.170764684677124,0.0029279920272529125,-0.01836649514734745,0.01410759799182415
18943762804550,1.048660397529602,-9.757569313049316,1.169567584991455,0.0010647244052961469,-0.0228915736079216,0.015438503585755825
18943764041887,1.0366894006729126,-9.758766174316406,1.1504138708114624,0.0002661811013240367,-0.01996358297765255,0.0162370465695858
18943765279200,1.0450690984725952,-9.77552604675293,1.1456254720687866,0.0039927163161337376,-0.0186326764523983,0.01117960549890995
18943766516525,1.0809820890426636,-9.759963035583496,1.1528080701828003,0.005855984054505825,-0.0215606689453125,0.01943122036755085
18943767753862,1.0869675874710083,-9.786299705505371,1.1552022695541382,0.00452507846057415,-0.0210283063352108,0.0173017717897892
18943768991175,1.07379949092865,-9.78869342803955,1.1252747774124146,0.0039927163161337376,-0.01836649514734745,0.02076212503015995
18943770228500,1.0989385843276978,-9.783905029296875,1.1599907875061035,0.005057440605014563,-0.0191650390625,0.0173017717897892
18943771465812,1.0761936902999878,-9.75517463684082,1.1444283723831177,0.0037265352439135313,-0.01889885775744915,0.01650322787463665
18943772703137,1.094150185585022,-9.746795654296875,1.114500880241394,-0.0039927163161337376,-0.01650322787463665,0.01117960549890995
18943773940450,1.1097124814987183,-9.774328231811523,1.173158884048462,-0.0015970865497365594,-0.01996358297765255,0.0162370465695858
18943775177775,1.095347285270691,-9.75278091430664,1.171961784362793,0.0031941730994731188,-0.0220930315554142,0.01943122036755085
18943776415100,1.0857704877853394,-9.765949249267578,1.1312602758407593,0.004791259765625,-0.0220930315554142,0.01463996060192585
18943777652425,1.0606313943862915,-9.793481826782227,1.136048674583435,0.0037265352439135313,-0.0204959437251091,0.012510511092841625
18943778889762,1.0761936902999878,-9.781511306762695,1.1192892789840698,0.0039927163161337376,-0.02076212503015995,0.0191650390625
18943780127075,1.1252747774124146,-9.770737648010254,1.1540051698684692,0.0039927163161337376,-0.0247548408806324,0.0220930315554142
18943781364387,1.0594342947006226,-9.765949249267578,1.1563994884490967,0.0,-0.0271504707634449,0.02129448764026165
18943782601712,1.0989385843276978,-9.75158405303955,1.1288660764694214,0.003460354171693325,-0.0210283063352108,0.02315775491297245
18943783839012,1.092953085899353,-9.785102844238281,1.1300631761550903,0.0042588976211845875,-0.02262539230287075,0.0204959437251091
18943785076350,1.0881646871566772,-9.77791976928711,1.1312602758407593,0.0010647244052961469,-0.02502102218568325,0.01836649514734745
18943786313687,1.0893617868423462,-9.771934509277344,1.1264718770980835,0.0023956298828125,-0.0271504707634449,0.023956298828125
18943787551000,1.0785878896713257,-9.787496566772461,1.1109095811843872,0.007453070487827063,-0.02502102218568325,0.0186326764523983
18943788788312,1.0845733880996704,-9.822212219238281,1.1456254720687866,0.005855984054505825,-0.02502102218568325,0.01836649514734745
18943790025650,1.092953085899353,-9.750386238098145,1.1408370733261108,0.0018632676219567657,-0.023956298828125,0.0223592109978199
18943791262962,1.0582371950149536,-9.804256439208984,1.1204863786697388,0.0026618109550327063,-0.01996358297765255,0.02502102218568325
18943792500287,1.0977414846420288,-9.800664901733398,1.1635820865631104,0.0071868896484375,-0.0210283063352108,0.02422248013317585
18943793737600,1.1276689767837524,-9.749189376831055,1.1492167711257935,0.010114881210029125,-0.02794901467859745,0.01836649514734745
18943794974925,1.070208191871643,-9.762357711791992,1.1635820865631104,-0.0005323622026480734,-0.02555338479578495,0.0157046839594841
18943796212262,1.0618284940719604,-9.794679641723633,1.1563994884490967,0.0010647244052961469,-0.01996358297765255,0.01756795309484005
18943797449575,1.0833762884140015,-9.764751434326172,1.1587936878204346,0.0037265352439135313,-0.02901373989880085,0.02129448764026165
18943798686912,1.0797849893569946,-9.77672290802002,1.1671733856201172,0.0021294488105922937,-0.023956298828125,0.0228915736079216
18943799924237,1.072602391242981,-9.7791166305542,1.1552022695541382,0.0021294488105922937,-0.0258195661008358,0.02076212503015995
18943801161537,1.0558429956436157,-9.781511306762695,1.1121066808700562,0.004791259765625,-0.0311431884765625,0.0220930315554142
18943802398850,1.0690110921859741,-9.727641105651855,1.1504138708114624,0.0042588976211845875,-0.02502102218568325,0.0220930315554142
18943803636187,1.1061211824417114,-9.759963035583496,1.137245774269104,0.0026618109550327063,-0.0252872034907341,0.02369011752307415
18943804873500,1.0546458959579468,-9.794679641723633,1.1252747774124146,0.0042588976211845875,-0.02874755859375,0.02608574740588665
18943806110825,1.1073182821273804,-9.761160850524902,1.1336544752120972,0.0037265352439135313,-0.0247548408806324,0.0228915736079216
18943807348150,1.092953085899353,-9.780314445495605,1.136048674583435,0.005057440605014563,-0.0228915736079216,0.0204959437251091
18943808585462,1.05105459690094,-9.791088104248047,1.1456254720687866,0.0066545275039970875,-0.0244886614382267,0.0252872034907341
18943809822787,1.0534487962722778,-9.764751434326172,1.1264718770980835,0.0015970865497365594,-0.02874755859375,0.02555338479578495
18943811060125,1.0390836000442505,-9.75158405303955,1.116895079612732,0.0010647244052961469,-0.0327402763068676,0.0196974016726017
18943812297437,1.0666168928146362,-9.780314445495605,1.1528080701828003,0.006122165359556675,-0.0282151959836483,0.0204959437251091
18943813534775,1.0426748991012573,-9.75397777557373,1.1683704853057861,0.005589802749454975,-0.0324740931391716,0.0215606689453125
18943814772075,1.0642226934432983,-9.799468040466309,1.1480196714401245,0.0029279920272529125,-0.0295461006462574,0.02369011752307415
18943816009412,1.0869675874710083,-9.756372451782227,1.1563994884490967,0.004791259765625,-0.02794901467859745,0.02794901467859745
18943817246712,1.0438719987869263,-9.757569313049316,1.1228805780410767,0.0029279920272529125,-0.0268842913210392,0.023956298828125
18943818484050,1.070208191871643,-9.806650161743164,1.1192892789840698,0.0023956298828125,-0.02848137728869915,0.02262539230287075
18943819721375,1.0749965906143188,-9.768342971801758,1.173158884048462,0.0013309054775163531,-0.02901373989880085,0.0215606689453125
18943820958700,1.0594342947006226,-9.782708168029785,1.1791443824768066,-0.0002661811013240367,-0.0258195661008358,0.0234239362180233
18943822196025,1.0773907899856567,-9.795876502990723,1.1456254720687866,0.0013309054775163531,-0.0292799212038517,0.02369011752307415
18943823433337,1.0199298858642578,-9.768342971801758,1.1683704853057861,0.0029279920272529125,-0.0295461006462574,0.02741665206849575
18943824670662,1.0558429956436157,-9.781511306762695,1.1899182796478271,0.0005323622026480734,-0.02661811001598835,0.02422248013317585
18943825907975,1.0678139925003052,-9.780314445495605,1.1121066808700562,0.003460354171693325,-0.0311431884765625,0.0247548408806324
18943827145300,1.1121066808700562,-9.720458984375,1.1456254720687866,0.004791259765625,-0.02981228195130825,0.0215606689453125
18943828382612,1.0989385843276978,-9.75517463684082,1.194706678390503,0.0063883461989462376,-0.02794901467859745,0.01703559048473835
18943829619950,1.0606313943862915,-9.757569313049316,1.1803414821624756,-0.0002661811013240367,-0.0338049978017807,0.0204959437251091
18943830857275,1.0450690984725952,-9.745597839355469,1.1875240802764893,-0.0010647244052961469,-0.0268842913210392,0.0220930315554142
18943832094575,1.0905588865280151,-9.770737648010254,1.2186486721038818,0.0090501569211483,-0.02661811001598835,0.0204959437251091
18943833331900,1.070208191871643,-9.769539833068848,1.1623849868774414,0.0031941730994731188,-0.02901373989880085,0.0204959437251091
18943834569212,1.071405291557312,-9.739612579345703,1.1276689767837524,0.0037265352439135313,-0.0314093679189682,0.02076212503015995
18943835806575,1.071405291557312,-9.716867446899414,1.170764684677124,0.007453070487827063,-0.0306108258664608,0.0204959437251091
18943837043875,1.1121066808700562,-9.77791976928711,1.1480196714401245,0.005589802749454975,-0.0295461006462574,0.02076212503015995
18943838281200,1.1001356840133667,-9.761160850524902,1.2030863761901855,0.0063883461989462376,-0.0327402763068676,0.0196974016726017
18943839518525,1.0630255937576294,-9.732430458068848,1.1575965881347656,-0.0002661811013240367,-0.0324740931391716,0.01996358297765255
18943840755850,1.0654197931289673,-9.71926212310791,1.1552022695541382,0.0063883461989462376,-0.0348697230219841,0.01996358297765255
18943841993175,1.0606313943862915,-9.7420072555542,1.1803414821624756,0.008251613937318325,-0.0316755510866642,0.0181003138422966
18943843230487,1.0666168928146362,-9.738415718078613,1.171961784362793,0.005589802749454975,-0.0314093679189682,0.01783413253724575
18943844467800,1.0761936902999878,-9.745597839355469,1.1252747774124146,0.0063883461989462376,-0.0340711809694767,0.01703559048473835
18943845705137,1.0797849893569946,-9.736021041870117,1.1611878871917725,0.005589802749454975,-0.0311431884765625,0.0157046839594841
18943846942462,1.0821791887283325,-9.728838920593262,1.1899182796478271,0.008251613937318325,-0.0319417305290699,0.01756795309484005
18943848179787,1.0869675874710083,-9.707290649414062,1.1599907875061035,0.00958251953125,-0.038063894957304,0.014373779296875
18943849417100,1.0618284940719604,-9.787496566772461,1.1552022695541382,0.0063883461989462376,-0.0295461006462574,0.0090501569211483
18943850654425,1.0618284940719604,-9.758766174316406,1.1659762859344482,0.00452507846057415,-0.02874755859375,0.01703559048473835
18943851891737,1.0534487962722778,-9.75517463684082,1.1899182796478271,0.0066545275039970875,-0.0327402763068676,0.014373779296875
18943853129062,1.0606313943862915,-9.7420072555542,1.1635820865631104,0.0119781494140625,-0.0346035435795784,0.0173017717897892
18943854366387,1.0761936902999878,-9.732430458068848,1.1300631761550903,0.0071868896484375,-0.0300784632563591,0.0173017717897892
18943855603712,1.0642226934432983,-9.7420072555542,1.1587936878204346,0.0063883461989462376,-0.0292799212038517,0.01463996060192585
18943856841050,1.0534487962722778,-9.761160850524902,1.1516109704971313,0.0119781494140625,-0.0327402763068676,0.01783413253724575
18943858078362,1.0378865003585815,-9.764751434326172,1.1348515748977661,0.014906140975654125,-0.033538818359375,0.014373779296875
18943859315675,1.0690110921859741,-9.706093788146973,1.1324573755264282,0.00984870083630085,-0.0258195661008358,0.01171196810901165
18943860552987,1.0606313943862915,-9.75278091430664,1.1528080701828003,0.00931633822619915,-0.02661811001598835,0.0181003138422966
18943861790325,1.0450690984725952,-9.765949249267578,1.1815385818481445,0.012776692397892475,-0.0295461006462574,0.01117960549890995
18943863027650,1.0342952013015747,-9.747992515563965,1.1875240802764893,0.00931633822619915,-0.02981228195130825,0.0071868896484375
18943864264975,1.0354923009872437,-9.747992515563965,1.1432312726974487,0.0077192517928779125,-0.0306108258664608,0.010381062515079975
18943865502300,1.0366894006729126,-9.725247383117676,1.171961784362793,0.012776692397892475,-0.03087700717151165,0.0114457868039608
18943866739612,1.0235211849212646,-9.743204116821289,1.1216834783554077,0.01357523538172245,-0.0364668108522892,0.008783976547420025
18943867976937,1.0390836000442505,-9.77552604675293,1.1851298809051514,0.00931633822619915,-0.0311431884765625,0.01117960549890995
18943869214287,1.091755986213684,-9.749189376831055,1.1540051698684692,0.0071868896484375,-0.0292799212038517,0.012776692397892475
18943870451587,1.0007762908935547,-9.75158405303955,1.1803414821624756,0.010114881210029125,-0.03034464456140995,0.010647243820130825
18943871688887,1.071405291557312,-9.758766174316406,1.1216834783554077,0.0138414166867733,-0.0316755510866642,0.01117960549890995
18943872926212,1.0606313943862915,-9.797073364257812,1.1671733856201172,0.01597086526453495,-0.0306108258664608,0.010913425125181675
18943874163550,1.0199298858642578,-9.736021041870117,1.1611878871917725,0.013042873702943325,-0.02874755859375,0.008783976547420025
18943875400862,1.05105459690094,-9.737218856811523,1.1863269805908203,0.015172322280704975,-0.03034464456140995,0.0077192517928779125
18943876638187,1.0773907899856567,-9.764751434326172,1.1575965881347656,0.01357523538172245,-0.0356682650744915,0.0063883461989462376
18943877875512,1.047463297843933,-9.787496566772461,1.2078747749328613,0.014906140975654125,-0.033538818359375,0.008517795242369175
18943879112825,0.99479079246521,-9.780314445495605,1.1480196714401245,0.01943122036755085,-0.0324740931391716,0.008783976547420025
18943880350150,1.0366894006729126,-9.786299705505371,1.1492167711257935,0.0162370465695858,-0.02741665206849575,0.005589802749454975
18943881587462,1.0426748991012573,-9.764751434326172,1.1288660764694214,0.012510511092841625,-0.0292799212038517,0.00692070834338665
18943882824800,1.0055646896362305,-9.749189376831055,1.1623849868774414,0.014906140975654125,-0.0322079136967659,0.005855984054505825
18943884062125,1.05105459690094,-9.786299705505371,1.1552022695541382,0.012776692397892475,-0.0322079136967659,0.0031941730994731188
18943885299450,1.0606313943862915,-9.771934509277344,1.1468225717544556,0.015172322280704975,-0.0244886614382267,0.0018632676219567657
18943886536775,1.0115501880645752,-9.773131370544434,1.1456254720687866,0.01597086526453495,-0.0306108258664608,0.0077192517928779125
18943887774075,1.01753568649292,-9.799468040466309,1.1587936878204346,0.014373779296875,-0.0351359061896801,0.0071868896484375
18943889011387,1.013944387435913,-9.793481826782227,1.1887211799621582,0.01357523538172245,-0.02794901467859745,0.0053236219100654125
18943890248750,1.0211269855499268,-9.792284965515137,1.1827356815338135,0.0167694091796875,-0.0314093679189682,0.0007985432748682797
18943891486037,1.0307037830352783,-9.798270225524902,1.1444283723831177,0.0186326764523983,-0.0319417305290699,0.005855984054505825
18943892723375,1.0594342947006226,-9.801861763000488,1.1552022695541382,0.01171196810901165,-0.0295461006462574,-0.0002661811013240367
18943893960712,1.0522516965866089,-9.770737648010254,1.1563994884490967,0.014373779296875,-0.02661811001598835,0.004791259765625
18943895198037,1.0378865003585815,-9.768342971801758,1.1599907875061035,0.0181003138422966,-0.0322079136967659,0.0063883461989462376
18943896435337,1.0450690984725952,-9.764751434326172,1.1312602758407593,0.0119781494140625,-0.0295461006462574,-0.003460354171693325
18943897672675,1.0259153842926025,-9.799468040466309,1.1480196714401245,0.01117960549890995,-0.0311431884765625,0.0007985432748682797
18943898909975,1.0414777994155884,-9.800664901733398,1.1432312726974487,0.01224433071911335,-0.0282151959836483,0.0010647244052961469
18943900147300,1.0307037830352783,-9.78869342803955,1.2090718746185303,0.0119781494140625,-0.02182685025036335,-0.0031941730994731188
18943901384625,1.0342952013015747,-9.75517463684082,1.1887211799621582,0.01117960549890995,-0.0258195661008358,0.0015970865497365594
18943902621950,1.0055646896362305,-9.77672290802002,1.1300631761550903,0.013309055007994175,-0.0271504707634449,0.0031941730994731188
18943903859275,1.0031704902648926,-9.763554573059082,1.1540051698684692,0.01224433071911335,-0.0271504707634449,0.0
18943905096600,1.0402806997299194,-9.781511306762695,1.1982979774475098,0.01171196810901165,-0.02262539230287075,-0.0037265352439135313
18943906333925,1.047463297843933,-9.78869342803955,1.1563994884490967,0.015172322280704975,-0.0244886614382267,-0.0037265352439135313
18943907571237,1.01753568649292,-9.75278091430664,1.1420341730117798,0.012776692397892475,-0.0300784632563591,-0.0013309054775163531
18943908808562,1.0199298858642578,-9.770737648010254,1.1563994884490967,0.012776692397892475,-0.0258195661008358,-0.0015970865497365594
18943910045887,1.0414777994155884,-9.757569313049316,1.1516109704971313,0.0157046839594841,-0.02741665206849575,-0.0005323622026480734
18943911283200,1.0390836000442505,-9.764751434326172,1.114500880241394,0.01650322787463665,-0.0295461006462574,0.0002661811013240367
18943912520525,1.0797849893569946,-9.750386238098145,1.1575965881347656,0.014373779296875,-0.023956298828125,-0.0007985432748682797
18943913757862,1.0043675899505615,-9.762357711791992,1.1444283723831177,0.008517795242369175,-0.0252872034907341,-0.003460354171693325
18943914995175,1.0426748991012573,-9.756372451782227,1.1671733856201172,0.0114457868039608,-0.0258195661008358,-0.0002661811013240367
18943916232500,1.048660397529602,-9.77672290802002,1.1228805780410767,0.01703559048473835,-0.0223592109978199,-0.0029279920272529125
18943917469825,1.0187327861785889,-9.75397777557373,1.137245774269104,0.01703559048473835,-0.0228915736079216,-0.003460354171693325
18943918707150,1.0115501880645752,-9.762357711791992,1.1599907875061035,0.0196974016726017,-0.0223592109978199,-0.0039927163161337376
18943919944475,0.9971849918365479,-9.758766174316406,1.091755986213684,0.01783413253724575,-0.0223592109978199,-0.003460354171693325
18943921181787,1.0043675899505615,-9.727641105651855,1.114500880241394,0.0167694091796875,-0.0244886614382267,-0.0071868896484375
18943922419112,1.0235211849212646,-9.739612579345703,1.1803414821624756,0.01357523538172245,-0.01597086526453495,-0.005057440605014563
18943923656437,1.0127472877502441,-9.737218856811523,1.170764684677124,0.015438503585755825,-0.01410759799182415,-0.008517795242369175
18943924893762,1.0354923009872437,-9.702502250671387,1.170764684677124,0.012510511092841625,-0.0173017717897892,-0.005057440605014563
18943926131100,1.0295066833496094,-9.725247383117676,1.1587936878204346,0.01650322787463665,-0.02262539230287075,-0.0013309054775163531
18943927368412,1.0247182846069336,-9.727641105651855,1.1408370733261108,0.0157046839594841,-0.02422248013317585,-0.0026618109550327063
18943928605725,1.0307037830352783,-9.732430458068848,1.1264718770980835,0.01597086526453495,-0.01889885775744915,0.0026618109550327063
18943929843075,1.0199298858642578,-9.715670585632324,1.1492167711257935,0.01756795309484005,-0.0204959437251091,-0.0023956298828125
18943931080375,1.0283095836639404,-9.713275909423828,1.1444283723831177,0.01357523538172245,-0.01996358297765255,-0.005057440605014563
18943932317700,1.0366894006729126,-9.736021041870117,1.1755530834197998,0.01650322787463665,-0.01943122036755085,-0.003460354171693325
18943933555025,1.0450690984725952,-9.7420072555542,1.1743559837341309,0.01996358297765255,-0.01889885775744915,-0.0071868896484375
18943934792337,1.0642226934432983,-9.727641105651855,1.169567584991455,0.0210283063352108,-0.0167694091796875,-0.010913425125181675
18943936029662,1.0007762908935547,-9.738415718078613,1.1420341730117798,0.01756795309484005,-0.014906140975654125,-0.008517795242369175
18943937267000,1.0199298858642578,-9.707290649414062,1.137245774269104,0.0181003138422966,-0.01597086526453495,-0.003460354171693325
18943938504325,1.0354923009872437,-9.75158405303955,1.1420341730117798,0.01756795309484005,-0.01703559048473835,-0.0007985432748682797
18943939741637,1.0283095836639404,-9.743204116821289,1.1899182796478271,0.01836649514734745,-0.01410759799182415,-0.0023956298828125
18943940978950,1.01753568649292,-9.72285270690918,1.1611878871917725,0.0228915736079216,-0.0157046839594841,-0.005589802749454975
18943942216275,1.0654197931289673,-9.767146110534668,1.1899182796478271,0.023956298828125,-0.0181003138422966,-0.0037265352439135313
18943943453612,0.9971849918365479,-9.793481826782227,1.1228805780410767,0.01650322787463665,-0.015438503585755825,-0.007453070487827063
18943944690937,1.0402806997299194,-9.744400978088379,1.1659762859344482,0.0210283063352108,-0.0167694091796875,-0.010114881210029125
18943945928250,1.047463297843933,-9.747992515563965,1.1264718770980835,0.02076212503015995,-0.02182685025036335,-0.005057440605014563
18943947165575,1.0115501880645752,-9.757569313049316,1.1552022695541382,0.0186326764523983,-0.013309055007994175,-0.005057440605014563
18943948402875,1.0618284940719604,-9.732430458068848,1.1540051698684692,0.02129448764026165,-0.0138414166867733,-0.008251613937318325
18943949640237,1.0534487962722778,-9.757569313049316,1.1779472827911377,0.02369011752307415,-0.0167694091796875,-0.008517795242369175
18943950877537,1.0366894006729126,-9.806650161743164,1.1803414821624756,0.01889885775744915,-0.02022976242005825,-0.0119781494140625
18943952114862,1.0594342947006226,-9.759963035583496,1.2210428714752197,0.01756795309484005,-0.013309055007994175,-0.010913425125181675
18943953352187,1.0378865003585815,-9.783905029296875,1.1575965881347656,0.01650322787463665,-0.013042873702943325,-0.010114881210029125
18943954589512,1.0558429956436157,-9.774328231811523,1.1563994884490967,0.01836649514734745,-0.010114881210029125,-0.00958251953125
18943955826837,1.0438719987869263,-9.740809440612793,1.1492167711257935,0.0186326764523983,-0.013309055007994175,-0.01117960549890995
18943957064137,1.0115501880645752,-9.740809440612793,1.1575965881347656,0.0196974016726017,-0.01650322787463665,-0.008517795242369175
18943958301462,1.049857497215271,-9.743204116821289,1.1240776777267456,0.015172322280704975,-0.01650322787463665,-0.010647243820130825
18943959538787,1.0594342947006226,-9.744400978088379,1.1348515748977661,0.0196974016726017,-0.0157046839594841,-0.012776692397892475
18943960776125,1.0450690984725952,-9.71926212310791,1.1336544752120972,0.0173017717897892,-0.0157046839594841,-0.01357523538172245
18943962013437,1.0330979824066162,-9.75517463684082,1.1252747774124146,0.0204959437251091,-0.01597086526453495,-0.007453070487827063
18943963250762,1.0079588890075684,-9.759963035583496,1.173158884048462,0.01943122036755085,-0.013042873702943325,-0.015438503585755825
18943964488100,1.0342952013015747,-9.793481826782227,1.1623849868774414,0.0196974016726017,-0.007985432632267475,-0.0157046839594841
18943965725412,1.0283095836639404,-9.789891242980957,1.1575965881347656,0.0220930315554142,-0.008251613937318325,-0.015172322280704975
18943966962725,1.0390836000442505,-9.803058624267578,1.1456254720687866,0.02129448764026165,-0.007453070487827063,-0.02129448764026165
18943968200037,1.047463297843933,-9.789891242980957,1.1420341730117798,0.0228915736079216,-0.007985432632267475,-0.015438503585755825
18943969437387,0.9971849918365479,-9.77552604675293,1.2054805755615234,0.0244886614382267,-0.01224433071911335,-0.015438503585755825
18943970674700,1.0259153842926025,-9.78869342803955,1.136048674583435,0.02262539230287075,-0.010913425125181675,-0.01597086526453495
18943971912037,0.9983820915222168,-9.781511306762695,1.1228805780410767,0.01836649514734745,-0.01117960549890995,-0.02076212503015995
18943973149337,1.0462661981582642,-9.780314445495605,1.1324573755264282,0.02262539230287075,-0.0077192517928779125,-0.02555338479578495
18943974386675,1.0187327861785889,-9.747992515563965,1.1228805780410767,0.0162370465695858,-0.00692070834338665,-0.0263519287109375
18943975623987,1.0307037830352783,-9.77552604675293,1.2090718746185303,0.0162370465695858,-0.0029279920272529125,-0.02022976242005825
18943976861337,1.0103530883789062,-9.75397777557373,1.1216834783554077,0.015438503585755825,-0.0015970865497365594,-0.02369011752307415
18943978098637,1.0103530883789062,-9.739612579345703,1.1408370733261108,0.0215606689453125,-0.008783976547420025,-0.0220930315554142
18943979335950,1.0187327861785889,-9.771934509277344,1.1300631761550903,0.0244886614382267,-0.012510511092841625,-0.02129448764026165
18943980573287,1.0223240852355957,-9.7791166305542,1.1037269830703735,0.02022976242005825,-0.007985432632267475,-0.02369011752307415
18943981810612,1.0570400953292847,-9.787496566772461,1.1288660764694214,0.01783413253724575,-0.006122165359556675,-0.02262539230287075
18943983047925,1.0905588865280151,-9.855731010437012,1.1480196714401245,0.0191650390625,-0.005589802749454975,-0.02076212503015995
18943984285250,1.0534487962722778,-9.789891242980957,1.1504138708114624,0.0228915736079216,-0.0037265352439135313,-0.01889885775744915
18943985522575,1.094150185585022,-9.795876502990723,1.1815385818481445,0.0196974016726017,-0.006122165359556675,-0.02369011752307415
18943986759900,1.1061211824417114,-9.795876502990723,1.1791443824768066,0.01889885775744915,-0.0037265352439135313,-0.0220930315554142
18943987997237,1.0881646871566772,-9.797073364257812,1.1659762859344482,0.0223592109978199,0.0002661811013240367,-0.0223592109978199
18943989234562,1.1037269830703735,-9.799468040466309,1.1683704853057861,0.01703559048473835,-0.005589802749454975,-0.02874755859375
18943990471875,1.0438719987869263,-9.84495735168457,1.1827356815338135,0.01597086526453495,-0.0066545275039970875,-0.0340711809694767
18943991709187,1.0522516965866089,-9.805453300476074,1.1635820865631104,0.014373779296875,-0.005855984054505825,-0.0252872034907341
18943992946512,1.0678139925003052,-9.817423820495605,1.1456254720687866,0.0167694091796875,-0.0053236219100654125,-0.02129448764026165
18943994183837,1.0606313943862915,-9.81263542175293,1.0881646871566772,0.01783413253724575,-0.0039927163161337376,-0.0258195661008358
18943995421150,1.0618284940719604,-9.803058624267578,1.1121066808700562,0.01357523538172245,-0.003460354171693325,-0.0252872034907341
18943996658475,1.0893617868423462,-9.824606895446777,1.136048674583435,0.012776692397892475,-0.00452507846057415,-0.0247548408806324
18943997895812,1.07379949092865,-9.838972091674805,1.1683704853057861,0.014373779296875,0.0037265352439135313,-0.0263519287109375
18943999133125,1.0618284940719604,-9.831789016723633,1.0965443849563599,0.02022976242005825,-0.0010647244052961469,-0.0252872034907341
18944000370462,1.1276689767837524,-9.827000617980957,1.1240776777267456,0.02022976242005825,-0.0053236219100654125,-0.02848137728869915
18944001607775,1.0821791887283325,-9.797073364257812,1.1516109704971313,0.01703559048473835,-0.0005323622026480734,-0.0338049978017807
18944002845112,1.0893617868423462,-9.787496566772461,1.0881646871566772,0.0167694091796875,0.0015970865497365594,-0.0343373604118824
18944004082425,1.0905588865280151,-9.824606895446777,1.115697979927063,0.02076212503015995,-0.0026618109550327063,-0.0338049978017807
18944005319750,1.0761936902999878,-9.81024169921875,1.136048674583435,0.0119781494140625,-0.006122165359556675,-0.0348697230219841
18944006557075,1.05105459690094,-9.761160850524902,1.1228805780410767,0.010647243820130825,-0.0031941730994731188,-0.0314093679189682
18944007794400,1.1073182821273804,-9.804256439208984,1.1528080701828003,0.013042873702943325,-0.0037265352439135313,-0.0263519287109375
18944009031700,1.1061211824417114,-9.786299705505371,1.1480196714401245,0.01756795309484005,-0.0015970865497365594,-0.0343373604118824
18944010269025,1.0905588865280151,-9.747992515563965,1.1288660764694214,0.0157046839594841,0.0005323622026480734,-0.0314093679189682
18944011506350,1.094150185585022,-9.771934509277344,1.1216834783554077,0.013309055007994175,0.0002661811013240367,-0.0314093679189682
18944012743687,1.0809820890426636,-9.793481826782227,1.1336544752120972,0.0162370465695858,-0.005589802749454975,-0.033538818359375
18944013981012,1.07379949092865,-9.795876502990723,1.1540051698684692,0.014906140975654125,0.0,-0.0359344482421875
18944015218325,1.0414777994155884,-9.763554573059082,1.1336544752120972,0.0138414166867733,0.0,-0.0340711809694767
18944016455650,1.095347285270691,-9.791088104248047,1.091755986213684,0.0138414166867733,-0.0023956298828125,-0.033272635191679
18944017692975,1.0869675874710083,-9.81263542175293,1.115697979927063,0.01703559048473835,-0.0013309054775163531,-0.0354020856320858
18944018930287,1.0761936902999878,-9.765949249267578,1.1348515748977661,0.01410759799182415,0.0042588976211845875,-0.0354020856320858
18944020167625,1.0690110921859741,-9.7791166305542,1.1204863786697388,0.013042873702943325,-0.0005323622026480734,-0.0330064557492733
18944021404937,1.072602391242981,-9.829395294189453,1.1504138708114624,0.01650322787463665,0.0010647244052961469,-0.02901373989880085
18944022642250,1.0809820890426636,-9.786299705505371,1.1336544752120972,0.02076212503015995,0.0002661811013240367,-0.0306108258664608
18944023879587,1.0690110921859741,-9.787496566772461,1.1408370733261108,0.0157046839594841,-0.0005323622026480734,-0.0306108258664608
18944025116900,1.1264718770980835,-9.767146110534668,1.136048674583435,0.0167694091796875,0.0015970865497365594,-0.02848137728869915
18944026354250,1.116895079612732,-9.770737648010254,1.1468225717544556,0.0196974016726017,0.0010647244052961469,-0.0346035435795784
18944027591562,1.1192892789840698,-9.791088104248047,1.1803414821624756,0.01410759799182415,0.0005323622026480734,-0.0362006276845932
18944028828875,1.1073182821273804,-9.824606895446777,1.1097124814987183,0.01996358297765255,0.0029279920272529125,-0.0295461006462574
18944030066212,1.116895079612732,-9.805453300476074,1.1552022695541382,0.02129448764026165,0.0018632676219567657,-0.033538818359375
18944031303537,1.1563994884490967,-9.781511306762695,1.1959037780761719,0.0186326764523983,-0.0013309054775163531,-0.02981228195130825
18944032540850,1.1264718770980835,-9.815030097961426,1.1779472827911377,0.01650322787463665,0.0002661811013240367,-0.0263519287109375
18944033778200,1.1001356840133667,-9.743204116821289,1.1468225717544556,0.0196974016726017,0.0026618109550327063,-0.02848137728869915
18944035015487,1.1480196714401245,-9.764751434326172,1.1480196714401245,0.01783413253724575,0.0023956298828125,-0.02608574740588665
18944036252825,1.1504138708114624,-9.75397777557373,1.1492167711257935,0.0181003138422966,-0.0037265352439135313,-0.02901373989880085
18944037490137,1.1121066808700562,-9.771934509277344,1.2054805755615234,0.02369011752307415,-0.0077192517928779125,-0.02794901467859745
18944038727462,1.1121066808700562,-9.749189376831055,1.1504138708114624,0.023956298828125,0.007453070487827063,-0.0244886614382267
18944039964787,1.116895079612732,-9.77552604675293,1.170764684677124,0.0215606689453125,-0.0002661811013240367,-0.0295461006462574
18944041202125,1.1563994884490967,-9.72165584564209,1.136048674583435,0.0191650390625,-0.0053236219100654125,-0.02608574740588665
18944042439450,1.1480196714401245,-9.740809440612793,1.1432312726974487,0.0204959437251091,-0.00452507846057415,-0.02129448764026165
18944043676762,1.0989385843276978,-9.728838920593262,1.137245774269104,0.02315775491297245,-0.005057440605014563,-0.01996358297765255
18944044914075,1.1228805780410767,-9.724050521850586,1.1635820865631104,0.02262539230287075,-0.007453070487827063,-0.0223592109978199
18944046151400,1.1300631761550903,-9.725247383117676,1.1013327836990356,0.0252872034907341,0.0007985432748682797,-0.0268842913210392
18944047388737,1.1456254720687866,-9.761160850524902,1.1611878871917725,0.0263519287109375,0.0007985432748682797,-0.02608574740588665
18944048626037,1.1300631761550903,-9.701305389404297,1.1456254720687866,0.0276828333735466,0.0031941730994731188,-0.0244886614382267
18944049863375,1.1324573755264282,-9.740809440612793,1.1743559837341309,0.0311431884765625,-0.0066545275039970875,-0.02022976242005825
18944051100687,1.1552022695541382,-9.75158405303955,1.1336544752120972,0.0282151959836483,-0.0002661811013240367,-0.02182685025036335
18944052338012,1.169567584991455,-9.740809440612793,1.1528080701828003,0.02661811001598835,-0.0015970865497365594,-0.02076212503015995
18944053575350,1.171961784362793,-9.769539833068848,1.1959037780761719,0.0276828333735466,-0.003460354171693325,-0.0220930315554142
18944054812662,1.1659762859344482,-9.724050521850586,1.1623849868774414,0.0268842913210392,-0.0021294488105922937,-0.01943122036755085
18944056049975,1.1240776777267456,-9.75517463684082,1.2018892765045166,0.0276828333735466,-0.004791259765625,-0.0244886614382267
18944057287300,1.1982979774475098,-9.798270225524902,1.116895079612732,0.02661811001598835,-0.0037265352439135313,-0.0244886614382267
18944058524625,1.113303780555725,-9.750386238098145,1.171961784362793,0.03087700717151165,-0.0021294488105922937,-0.02315775491297245
18944059761950,1.1863269805908203,-9.747992515563965,1.2018892765045166,0.0306108258664608,-0.004791259765625,-0.02608574740588665
18944060999262,1.1563994884490967,-9.75278091430664,1.1791443824768066,0.0276828333735466,-0.0026618109550327063,-0.01996358297765255
18944062236600,1.1504138708114624,-9.758766174316406,1.216254472732544,0.0292799212038517,-0.0023956298828125,-0.0196974016726017
18944063473925,1.1887211799621582,-9.72165584564209,1.2114660739898682,0.0338049978017807,-0.0071868896484375,-0.0157046839594841
18944064711237,1.1839327812194824,-9.727641105651855,1.1540051698684692,0.0311431884765625,-0.0039927163161337376,-0.01756795309484005
18944065948575,1.139639973640442,-9.780314445495605,1.1647791862487793,0.0338049978017807,-0.0071868896484375,-0.0191650390625
18944067185887,1.1336544752120972,-9.77672290802002,1.1767501831054688,0.0348697230219841,-0.005589802749454975,-0.01836649514734745
18944068423212,1.1647791862487793,-9.789891242980957,1.1982979774475098,0.02981228195130825,-0.0042588976211845875,-0.02129448764026165
18944069660525,1.1587936878204346,-9.75278091430664,1.1468225717544556,0.03034464456140995,-0.007985432632267475,-0.01996358297765255
18944070897875,1.139639973640442,-9.765949249267578,1.1492167711257935,0.0295461006462574,-0.0029279920272529125,-0.01650322787463665
18944072135187,1.1444283723831177,-9.77791976928711,1.1671733856201172,0.0362006276845932,-0.005589802749454975,-0.01463996060192585
18944073372512,1.1528080701828003,-9.789891242980957,1.1671733856201172,0.0393948033452034,-0.006122165359556675,-0.0196974016726017
18944074609825,1.1899182796478271,-9.774328231811523,1.1815385818481445,0.0343373604118824,-0.0026618109550327063,-0.0157046839594841
18944075847137,1.1563994884490967,-9.738415718078613,1.191115379333496,0.0346035435795784,-0.00984870083630085,-0.010913425125181675
18944077084475,1.1252747774124146,-9.762357711791992,1.169567584991455,0.0340711809694767,-0.00692070834338665,-0.0138414166867733
18944078321800,1.1408370733261108,-9.762357711791992,1.1959037780761719,0.0364668108522892,-0.0071868896484375,-0.01410759799182415
18944079559125,1.1803414821624756,-9.767146110534668,1.191115379333496,0.0348697230219841,-0.005855984054505825,-0.01410759799182415
18944080796425,1.1982979774475098,-9.781511306762695,1.1767501831054688,0.0364668108522892,-0.00958251953125,-0.01756795309484005
18944082033775,1.173158884048462,-9.747992515563965,1.1803414821624756,0.0401933453977108,-0.00984870083630085,-0.0173017717897892
18944083271075,1.173158884048462,-9.773131370544434,1.2018892765045166,0.0436537005007267,-0.010913425125181675,-0.0186326764523983
18944084508412,1.1863269805908203,-9.789891242980957,1.1863269805908203,0.0372653529047966,-0.010114881210029125,-0.013042873702943325
18944085745750,1.1779472827911377,-9.725247383117676,1.2030863761901855,0.0444522425532341,-0.00931633822619915,-0.01117960549890995
18944086983062,1.171961784362793,-9.75517463684082,1.1839327812194824,0.0417904332280159,-0.010381062515079975,-0.0157046839594841
18944088220362,1.191115379333496,-9.746795654296875,1.1899182796478271,0.0343373604118824,-0.01117960549890995,-0.01650322787463665
18944089457700,1.193509578704834,-9.7420072555542,1.215057373046875,0.0404595248401165,-0.008517795242369175,-0.010913425125181675
18944090695025,1.1552022695541382,-9.728838920593262,1.2258312702178955,0.0404595248401165,-0.0119781494140625,-0.01224433071911335
18944091932362,1.1528080701828003,-9.75158405303955,1.2054805755615234,0.0393948033452034,-0.010647243820130825,-0.01171196810901165
18944093169675,1.1432312726974487,-9.708487510681152,1.139639973640442,0.0415242500603199,-0.008251613937318325,-0.014373779296875
18944094407000,1.1228805780410767,-9.718064308166504,1.212663173675537,0.0423227921128273,-0.00984870083630085,-0.01357523538172245
18944095644325,1.169567584991455,-9.733627319335938,1.2222399711608887,0.0444522425532341,-0.0114457868039608,-0.01171196810901165
18944096881637,1.1611878871917725,-9.720458984375,1.2006921768188477,0.0415242500603199,-0.010913425125181675,-0.015438503585755825
18944098118962,1.1575965881347656,-9.715670585632324,1.216254472732544,0.0393948033452034,-0.0077192517928779125,-0.0191650390625
18944099356312,1.1528080701828003,-9.710882186889648,1.1755530834197998,0.0447184219956398,-0.0066545275039970875,-0.0119781494140625
18944100593612,1.1552022695541382,-9.737218856811523,1.169567584991455,0.047646414488554,-0.010647243820130825,-0.010647243820130825
18944101830925,1.170764684677124,-9.714473724365234,1.1887211799621582,0.0447184219956398,-0.01224433071911335,-0.013309055007994175
18944103068250,1.137245774269104,-9.701305389404297,1.169567584991455,0.0407257080078125,-0.012510511092841625,-0.01597086526453495
18944104305575,1.1420341730117798,-9.739612579345703,1.194706678390503,0.043121337890625,-0.01756795309484005,-0.015172322280704975
18944105542912,1.139639973640442,-9.732430458068848,1.1839327812194824,0.0465816929936409,-0.015438503585755825,-0.008517795242369175
18944106780212,1.137245774269104,-9.737218856811523,1.1815385818481445,0.0471140518784523,-0.01597086526453495,-0.005057440605014563
18944108017562,1.1552022695541382,-9.718064308166504,1.213860273361206,0.0452507846057415,-0.01357523538172245,-0.00692070834338665
18944109254875,1.0965443849563599,-9.726444244384766,1.1875240802764893,0.0433875173330307,-0.010913425125181675,-0.0157046839594841
18944110492187,1.1623849868774414,-9.713275909423828,1.215057373046875,0.0407257080078125,-0.01357523538172245,-0.010913425125181675
18944111729537,1.1408370733261108,-9.727641105651855,1.2557587623596191,0.0481787770986557,-0.014373779296875,-0.008251613937318325
18944112966825,1.114500880241394,-9.68813705444336,1.1982979774475098,0.0535023994743824,-0.010647243820130825,-0.0090501569211483
18944114204162,1.1575965881347656,-9.702502250671387,1.1971008777618408,0.0484449602663517,-0.01597086526453495,-0.007453070487827063
18944115441487,1.139639973640442,-9.690531730651855,1.1899182796478271,0.0447184219956398,-0.01463996060192585,-0.006122165359556675
18944116678812,1.1216834783554077,-9.701305389404297,1.217451572418213,0.0439198799431324,-0.008783976547420025,-0.007985432632267475
18944117916125,1.1647791862487793,-9.707290649414062,1.2294225692749023,0.0460493303835392,-0.014906140975654125,-0.005057440605014563
18944119153450,1.1827356815338135,-9.72165584564209,1.2018892765045166,0.0468478724360466,-0.0162370465695858,-0.006122165359556675
18944120390775,1.1456254720687866,-9.744400978088379,1.1982979774475098,0.0444522425532341,-0.014373779296875,-0.0026618109550327063
18944121628100,1.1504138708114624,-9.767146110534668,1.192312479019165,0.0460493303835392,-0.01597086526453495,-0.003460354171693325
18944122865425,1.1635820865631104,-9.737218856811523,1.1959037780761719,0.0473802350461483,-0.0138414166867733,-0.0066545275039970875
18944124102762,1.1516109704971313,-9.734824180603027,1.216254472732544,0.0487111397087574,-0.0157046839594841,0.0005323622026480734
18944125340087,1.1228805780410767,-9.712079048156738,1.2270283699035645,0.0489773228764534,-0.015172322280704975,0.0029279920272529125
18944126577387,1.1228805780410767,-9.743204116821289,1.2186486721038818,0.0519053116440773,-0.0162370465695858,-0.0015970865497365594
18944127814700,1.116895079612732,-9.77672290802002,1.2521674633026123,0.0484449602663517,-0.013309055007994175,-0.0063883461989462376
18944129052025,1.1013327836990356,-9.757569313049316,1.236605167388916,0.04791259765625,-0.01224433071911335,-0.0053236219100654125
18944130289362,1.1468225717544556,-9.744400978088379,1.2485761642456055,0.0452507846057415,-0.01889885775744915,-0.0015970865497365594
18944131526687,1.1504138708114624,-9.733627319335938,1.216254472732544,0.0460493303835392,-0.015438503585755825,0.0031941730994731188
18944132764012,1.1348515748977661,-9.771934509277344,1.2449848651885986,0.0505744069814682,-0.01783413253724575,0.0015970865497365594
18944134001312,1.1228805780410767,-9.77791976928711,1.212663173675537,0.0529700368642807,-0.0186326764523983,0.003460354171693325
18944135238662,1.1204863786697388,-9.75158405303955,1.2198457717895508,0.0463155098259449,-0.01224433071911335,-0.003460354171693325
18944136476000,1.1121066808700562,-9.795876502990723,1.1994950771331787,0.0455169677734375,-0.012510511092841625,-0.0021294488105922937
18944137713287,1.1300631761550903,-9.757569313049316,1.171961784362793,0.0455169677734375,-0.014373779296875,-0.0002661811013240367
18944138950625,1.0594342947006226,-9.757569313049316,1.2078747749328613,0.0489773228764534,-0.014373779296875,0.0029279920272529125
18944140187937,1.071405291557312,-9.793481826782227,1.212663173675537,0.0455169677734375,-0.01463996060192585,0.005589802749454975
18944141425275,1.0797849893569946,-9.762357711791992,1.2318167686462402,0.0484449602663517,-0.01357523538172245,0.005855984054505825
18944142662600,1.1264718770980835,-9.800664901733398,1.2234370708465576,0.0473802350461483,-0.01171196810901165,0.0023956298828125
18944143899912,1.1025298833847046,-9.821015357971191,1.2294225692749023,0.047646414488554,-0.0138414166867733,0.0018632676219567657
18944145137250,1.0809820890426636,-9.791088104248047,1.2665326595306396,0.0473802350461483,-0.0162370465695858,0.005057440605014563
18944146374562,1.114500880241394,-9.761160850524902,1.2497732639312744,0.0473802350461483,-0.012776692397892475,0.0010647244052961469
18944147611875,1.1312602758407593,-9.773131370544434,1.2461819648742676,0.0447184219956398,-0.00958251953125,0.005057440605014563
18944148849200,1.1180921792984009,-9.709685325622559,1.2306196689605713,0.0449846051633358,-0.012776692397892475,0.0007985432748682797
18944150086525,1.1049240827560425,-9.75278091430664,1.2294225692749023,0.0460493303835392,-0.01224433071911335,0.005057440605014563
18944151323850,1.0893617868423462,-9.81024169921875,1.2330138683319092,0.0497758649289608,-0.0119781494140625,0.0071868896484375
18944152561200,1.0845733880996704,-9.783905029296875,1.212663173675537,0.0449846051633358,-0.012510511092841625,0.00958251953125
18944153798512,1.0905588865280151,-9.75278091430664,1.2401964664459229,0.0433875173330307,-0.012776692397892475,0.010114881210029125
18944155035837,1.1085153818130493,-9.807847023010254,1.235408067703247,0.0468478724360466,-0.014906140975654125,0.0039927163161337376
18944156273137,1.070208191871643,-9.789891242980957,1.2413935661315918,0.0484449602663517,-0.01410759799182415,0.006122165359556675
18944157510450,1.1037269830703735,-9.782708168029785,1.213860273361206,0.0460493303835392,-0.0119781494140625,0.0037265352439135313
18944158747787,1.0666168928146362,-9.793481826782227,1.2186486721038818,0.0409918874502182,-0.0077192517928779125,0.00984870083630085
18944159985112,1.0785878896713257,-9.786299705505371,1.2485761642456055,0.0436537005007267,-0.010381062515079975,0.0114457868039608
18944161222450,1.1097124814987183,-9.781511306762695,1.259350061416626,0.0447184219956398,-0.0114457868039608,0.006122165359556675
18944162459775,1.095347285270691,-9.765949249267578,1.1863269805908203,0.04791259765625,-0.010114881210029125,0.0063883461989462376
18944163697087,1.091755986213684,-9.791088104248047,1.1982979774475098,0.0444522425532341,-0.0077192517928779125,0.007453070487827063
18944164934400,1.0761936902999878,-9.84256362915039,1.2330138683319092,0.043121337890625,-0.0066545275039970875,0.01171196810901165
18944166171762,1.0965443849563599,-9.806650161743164,1.2054805755615234,0.0444522425532341,-0.0071868896484375,0.0077192517928779125
18944167409062,1.0534487962722778,-9.764751434326172,1.2401964664459229,0.0481787770986557,-0.0053236219100654125,0.008251613937318325
18944168646375,1.0881646871566772,-9.780314445495605,1.2497732639312744,0.0447184219956398,-0.0037265352439135313,0.005057440605014563
18944169883700,1.0319008827209473,-9.786299705505371,1.2078747749328613,0.0436537005007267,-0.0037265352439135313,0.00692070834338665
18944171121050,1.0402806997299194,-9.769539833068848,1.2449848651885986,0.0449846051633358,-0.0031941730994731188,0.0077192517928779125
18944172358350,1.0606313943862915,-9.813833236694336,1.291671872138977,0.0441860631108284,-0.0039927163161337376,0.00931633822619915
18944173595675,1.0091559886932373,-9.813833236694336,1.2425906658172607,0.0407257080078125,-0.0029279920272529125,0.0037265352439135313
18944174832987,1.0271124839782715,-9.763554573059082,1.2677297592163086,0.0393948033452034,-0.0005323622026480734,0.0029279920272529125
18944176070325,1.0749965906143188,-9.804256439208984,1.2342109680175781,0.0393948033452034,0.0026618109550327063,0.0018632676219567657
18944177307650,1.0390836000442505,-9.816226959228516,1.2689268589019775,0.038063894957304,-0.0042588976211845875,0.0031941730994731188
18944178544975,1.0630255937576294,-9.807847023010254,1.2641384601593018,0.0356682650744915,-0.00692070834338665,0.00452507846057415
18944179782300,1.0606313943862915,-9.830592155456543,1.2066776752471924,0.0420566126704216,-0.0023956298828125,0.010381062515079975
18944181019625,1.0223240852355957,-9.793481826782227,1.2330138683319092,0.0399271659553051,-0.006122165359556675,0.0077192517928779125
18944182256937,1.0402806997299194,-9.817423820495605,1.2066776752471924,0.0388624407351017,-0.003460354171693325,0.0031941730994731188
18944183494250,1.0618284940719604,-9.799468040466309,1.1959037780761719,0.0343373604118824,0.0002661811013240367,0.0039927163161337376
18944184731587,1.070208191871643,-9.840168952941895,1.2030863761901855,0.0314093679189682,0.005589802749454975,0.00931633822619915
18944185968900,1.0821791887283325,-9.848548889160156,1.2342109680175781,0.0362006276845932,0.0026618109550327063,0.01117960549890995
18944187206225,1.0570400953292847,-9.824606895446777,1.2282254695892334,0.0407257080078125,-0.0031941730994731188,0.0077192517928779125
18944188443550,1.1001356840133667,-9.804256439208984,1.235408067703247,0.0372653529047966,0.00452507846057415,0.0026618109550327063
18944189680875,1.0366894006729126,-9.882067680358887,1.238999366760254,0.0364668108522892,0.0018632676219567657,0.00452507846057415
18944190918212,1.0666168928146362,-9.783905029296875,1.3000515699386597,0.038063894957304,0.0007985432748682797,0.0071868896484375
18944192155537,1.0546458959579468,-9.84376049041748,1.235408067703247,0.02874755859375,0.0015970865497365594,0.0053236219100654125
18944193392837,1.0654197931289673,-9.874884605407715,1.238999366760254,0.03087700717151165,-0.0013309054775163531,0.005855984054505825
18944194630175,1.048660397529602,-9.84376049041748,1.2761094570159912,0.0367329902946949,0.0023956298828125,0.006122165359556675
18944195867512,1.0618284940719604,-9.830592155456543,1.2545616626739502,0.0319417305290699,0.00452507846057415,0.006122165359556675
18944197104812,1.0522516965866089,-9.856928825378418,1.2198457717895508,0.0306108258664608,0.00692070834338665,0.0039927163161337376
18944198342150,1.0546458959579468,-9.864110946655273,1.2294225692749023,0.03034464456140995,0.010647243820130825,0.0042588976211845875
18944199579487,1.0223240852355957,-9.859322547912598,1.217451572418213,0.0343373604118824,0.00958251953125,0.004791259765625
18944200816787,1.0773907899856567,-9.837775230407715,1.1887211799621582,0.0306108258664608,0.00931633822619915,0.00692070834338665
18944202054112,1.0271124839782715,-9.818621635437012,1.2066776752471924,0.0292799212038517,0.00692070834338665,0.0071868896484375
18944203291450,1.0450690984725952,-9.828198432922363,1.2222399711608887,0.02981228195130825,0.008783976547420025,0.004791259765625
18944204528775,1.070208191871643,-9.823410034179688,1.259350061416626,0.03034464456140995,0.0114457868039608,0.006122165359556675
18944205766087,1.0390836000442505,-9.838972091674805,1.2425906658172607,0.0295461006462574,0.0090501569211483,0.0037265352439135313
18944207003437,1.0247182846069336,-9.84256362915039,1.256955862045288,0.03087700717151165,0.0119781494140625,0.0015970865497365594
18944208240750,1.0091559886932373,-9.825803756713867,1.2557587623596191,0.0268842913210392,0.0167694091796875,0.00452507846057415
18944209478050,1.0390836000442505,-9.84256362915039,1.2773066759109497,0.0271504707634449,0.013309055007994175,0.0031941730994731188
18944210715387,1.0678139925003052,-9.848548889160156,1.2844892740249634,0.02794901467859745,0.0162370465695858,0.0042588976211845875
18944211952700,1.1037269830703735,-9.824606895446777,1.291671872138977,0.0282151959836483,0.0181003138422966,0.0
18944213190037,1.0642226934432983,-9.81143856048584,1.2306196689605713,0.0258195661008358,0.0119781494140625,0.0042588976211845875
18944214427362,1.0630255937576294,-9.807847023010254,1.2246341705322266,0.0220930315554142,0.014373779296875,0.006122165359556675
18944215664675,1.091755986213684,-9.847352027893066,1.2773066759109497,0.02422248013317585,0.01756795309484005,0.005589802749454975
18944216902000,1.1121066808700562,-9.783905029296875,1.2306196689605713,0.02502102218568325,0.01463996060192585,0.0026618109550327063
18944218139325,1.0785878896713257,-9.81263542175293,1.2832921743392944,0.0220930315554142,0.0138414166867733,0.0026618109550327063
18944219376662,1.0905588865280151,-9.799468040466309,1.2485761642456055,0.02422248013317585,0.0162370465695858,0.008251613937318325
18944220613987,1.0797849893569946,-9.787496566772461,1.2449848651885986,0.02182685025036335,0.01463996060192585,0.0
18944221851300,1.0797849893569946,-9.827000617980957,1.2449848651885986,0.023956298828125,0.01650322787463665,0.0063883461989462376
18944223088625,1.092953085899353,-9.7791166305542,1.2497732639312744,0.02262539230287075,0.01783413253724575,0.0015970865497365594
18944224325950,1.0666168928146362,-9.791088104248047,1.2485761642456055,0.0247548408806324,0.0186326764523983,0.00958251953125
18944225563262,1.1240776777267456,-9.80904483795166,1.2557587623596191,0.02608574740588665,0.01410759799182415,0.010647243820130825
18944226800612,1.0678139925003052,-9.84376049041748,1.260547161102295,0.02422248013317585,0.0173017717897892,0.00452507846057415
18944228037912,1.0642226934432983,-9.813833236694336,1.2773066759109497,0.023956298828125,0.0181003138422966,0.0029279920272529125
18944229275250,1.0522516965866089,-9.840168952941895,1.2665326595306396,0.02369011752307415,0.0204959437251091,-0.0005323622026480734
18944230512575,1.0570400953292847,-9.797073364257812,1.2425906658172607,0.02182685025036335,0.0244886614382267,0.0013309054775163531
18944231749900,1.0522516965866089,-9.818621635437012,1.2557587623596191,0.0196974016726017,0.02129448764026165,0.005855984054505825
18944232987212,1.0414777994155884,-9.828198432922363,1.2761094570159912,0.01783413253724575,0.0162370465695858,0.0063883461989462376
18944234224525,1.0618284940719604,-9.789891242980957,1.2653355598449707,0.014906140975654125,0.01943122036755085,0.0023956298828125
18944235461862,1.0426748991012573,-9.797073364257812,1.2749123573303223,0.01357523538172245,0.0223592109978199,-0.0018632676219567657
18944236699187,1.094150185585022,-9.825803756713867,1.313219666481018,0.01756795309484005,0.0228915736079216,0.0037265352439135313
18944237936500,1.05105459690094,-9.785102844238281,1.258152961730957,0.0181003138422966,0.01756795309484005,0.0007985432748682797
18944239173850,1.0450690984725952,-9.78869342803955,1.2641384601593018,0.01597086526453495,0.0223592109978199,-0.0002661811013240367
18944240411137,1.0797849893569946,-9.771934509277344,1.2449848651885986,0.012510511092841625,0.01889885775744915,0.005589802749454975
18944241648462,1.0366894006729126,-9.81263542175293,1.2689268589019775,0.01703559048473835,0.0220930315554142,0.0042588976211845875
18944242885812,1.0618284940719604,-9.825803756713867,1.2737152576446533,0.0191650390625,0.0247548408806324,0.0
18944244123137,1.1001356840133667,-9.824606895446777,1.2641384601593018,0.0162370465695858,0.0252872034907341,0.0005323622026480734
18944245360462,1.0833762884140015,-9.835380554199219,1.2677297592163086,0.012776692397892475,0.02182685025036335,0.003460354171693325
18944246597775,1.1252747774124146,-9.81263542175293,1.292868971824646,0.01783413253724575,0.02022976242005825,0.008517795242369175
18944247835100,1.0522516965866089,-9.815030097961426,1.2988544702529907,0.01783413253724575,0.0204959437251091,0.005057440605014563
18944249072412,1.0414777994155884,-9.816226959228516,1.2689268589019775,0.01703559048473835,0.0247548408806324,-0.0005323622026480734
18944250309762,1.0857704877853394,-9.830592155456543,1.2497732639312744,0.0173017717897892,0.02555338479578495,0.0053236219100654125
18944251547075,1.1204863786697388,-9.797073364257812,1.2557587623596191,0.0210283063352108,0.0263519287109375,0.005057440605014563
18944252784400,1.0785878896713257,-9.81143856048584,1.2713210582733154,0.0167694091796875,0.02369011752307415,0.00452507846057415
18944254021712,1.114500880241394,-9.77672290802002,1.2677297592163086,0.015438503585755825,0.02422248013317585,0.005589802749454975
18944255259050,1.139639973640442,-9.783905029296875,1.259350061416626,0.0157046839594841,0.0228915736079216,0.0039927163161337376
18944256496362,1.0869675874710083,-9.75517463684082,1.2677297592163086,0.0138414166867733,0.0252872034907341,0.0015970865497365594
18944257733687,1.1528080701828003,-9.75397777557373,1.290474772453308,0.0157046839594841,0.01889885775744915,0.0063883461989462376
18944258971025,1.1288660764694214,-9.758766174316406,1.2473790645599365,0.0157046839594841,0.02022976242005825,0.005057440605014563
18944260208350,1.0546458959579468,-9.786299705505371,1.235408067703247,0.012776692397892475,0.0263519287109375,0.0026618109550327063
18944261445675,1.0845733880996704,-9.762357711791992,1.2653355598449707,0.0167694091796875,0.03034464456140995,0.00692070834338665
18944262682987,1.1504138708114624,-9.75278091430664,1.2282254695892334,0.01117960549890995,0.02661811001598835,0.01117960549890995
18944263920312,1.114500880241394,-9.773131370544434,1.2797008752822876,0.012510511092841625,0.02262539230287075,0.0077192517928779125
18944265157650,1.0881646871566772,-9.75517463684082,1.2545616626739502,0.013042873702943325,0.02422248013317585,0.006122165359556675
18944266394987,1.0869675874710083,-9.746795654296875,1.2401964664459229,0.012776692397892475,0.0228915736079216,0.0007985432748682797
18944267632287,1.1061211824417114,-9.749189376831055,1.2533645629882812,0.0138414166867733,0.0263519287109375,0.0037265352439135313
18944268869600,1.1025298833847046,-9.759963035583496,1.2749123573303223,0.010913425125181675,0.0228915736079216,0.00452507846057415
18944270106925,1.0881646871566772,-9.801861763000488,1.260547161102295,0.00984870083630085,0.0244886614382267,0.0013309054775163531
18944271344250,1.0833762884140015,-9.727641105651855,1.2856863737106323,0.01224433071911335,0.0228915736079216,0.0002661811013240367
18944272581575,1.094150185585022,-9.716867446899414,1.2629413604736328,0.010114881210029125,0.0228915736079216,-0.0042588976211845875
18944273818900,1.0809820890426636,-9.765949249267578,1.2617442607879639,0.0090501569211483,0.023956298828125,0.0023956298828125
18944275056225,1.0821791887283325,-9.744400978088379,1.2725181579589844,0.01224433071911335,0.02608574740588665,-0.0007985432748682797
18944276293550,1.07379949092865,-9.745597839355469,1.2306196689605713,0.008517795242369175,0.0276828333735466,-0.0005323622026480734
18944277530900,1.0630255937576294,-9.736021041870117,1.258152961730957,0.007453070487827063,0.02502102218568325,0.003460354171693325
18944278768212,1.1121066808700562,-9.765949249267578,1.2078747749328613,0.0138414166867733,0.0223592109978199,-0.0021294488105922937
18944280005537,1.0606313943862915,-9.75158405303955,1.258152961730957,0.010381062515079975,0.02661811001598835,0.0010647244052961469
18944281242850,1.1276689767837524,-9.771934509277344,1.2880805730819702,0.0077192517928779125,0.02608574740588665,0.0063883461989462376
18944282480175,1.0989385843276978,-9.75158405303955,1.2078747749328613,0.012776692397892475,0.02076212503015995,0.0053236219100654125
18944283717500,1.1336544752120972,-9.771934509277344,1.2258312702178955,0.01650322787463665,0.0210283063352108,0.0029279920272529125
18944284954825,1.136048674583435,-9.77791976928711,1.2222399711608887,0.012510511092841625,0.0311431884765625,0.008251613937318325
18944286192162,1.1025298833847046,-9.81024169921875,1.2737152576446533,0.0077192517928779125,0.0276828333735466,0.005589802749454975
18944287429475,1.1264718770980835,-9.799468040466309,1.2761094570159912,0.010114881210029125,0.02502102218568325,0.005057440605014563
18944288666775,1.1468225717544556,-9.78869342803955,1.2497732639312744,0.012510511092841625,0.0228915736079216,0.0053236219100654125
18944289904112,1.1300631761550903,-9.770737648010254,1.2785037755966187,0.0119781494140625,0.0196974016726017,0.010913425125181675
18944291141450,1.1587936878204346,-9.794679641723633,1.2725181579589844,0.008517795242369175,0.01889885775744915,0.007985432632267475
18944292378762,1.1240776777267456,-9.792284965515137,1.2761094570159912,0.0090501569211483,0.02369011752307415,0.0026618109550327063
18944293616075,1.1204863786697388,-9.806650161743164,1.2713210582733154,0.00958251953125,0.0247548408806324,0.0015970865497365594
18944294853425,1.1252747774124146,-9.771934509277344,1.2473790645599365,0.008251613937318325,0.0204959437251091,-0.0005323622026480734
18944296090750,1.1324573755264282,-9.750386238098145,1.2234370708465576,0.0039927163161337376,0.02262539230287075,0.0007985432748682797
18944297328062,1.1013327836990356,-9.767146110534668,1.2234370708465576,0.004791259765625,0.0244886614382267,0.0029279920272529125
18944298565400,1.0857704877853394,-9.797073364257812,1.291671872138977,0.007453070487827063,0.02555338479578495,0.0039927163161337376
18944299802687,1.0821791887283325,-9.770737648010254,1.258152961730957,0.0053236219100654125,0.03034464456140995,0.006122165359556675
18944301040037,1.136048674583435,-9.773131370544434,1.2282254695892334,0.0029279920272529125,0.02182685025036335,0.0039927163161337376
18944302277362,1.1025298833847046,-9.727641105651855,1.2545616626739502,0.0037265352439135313,0.02076212503015995,0.0015970865497365594
18944303514687,1.1049240827560425,-9.738415718078613,1.2725181579589844,0.005855984054505825,0.02262539230287075,0.0037265352439135313
18944304752012,1.0678139925003052,-9.763554573059082,1.213860273361206,0.0053236219100654125,0.023956298828125,0.0026618109550327063
18944305989337,1.1121066808700562,-9.770737648010254,1.2401964664459229,0.00452507846057415,0.02076212503015995,0.0063883461989462376
18944307226650,1.116895079612732,-9.771934509277344,1.2533645629882812,-0.0007985432748682797,0.0196974016726017,0.0018632676219567657
18944308463975,1.1085153818130493,-9.792284965515137,1.260547161102295,0.0037265352439135313,0.02794901467859745,-0.003460354171693325
18944309701287,1.1492167711257935,-9.746795654296875,1.2222399711608887,0.0013309054775163531,0.02129448764026165,0.00452507846057415
18944310938600,1.1348515748977661,-9.726444244384766,1.258152961730957,0.0077192517928779125,0.01756795309484005,0.007985432632267475
18944312175937,1.1336544752120972,-9.759963035583496,1.2653355598449707,0.00984870083630085,0.0204959437251091,0.0015970865497365594
18944313413275,1.0989385843276978,-9.749189376831055,1.2808979749679565,0.0039927163161337376,0.0258195661008358,0.005589802749454975
18944314650587,1.1444283723831177,-9.709685325622559,1.2425906658172607,0.003460354171693325,0.02555338479578495,0.005589802749454975
18944315887925,1.137245774269104,-9.728838920593262,1.2461819648742676,0.0053236219100654125,0.0210283063352108,0.004791259765625
18944317125250,1.1552022695541382,-9.728838920593262,1.2701239585876465,0.007453070487827063,0.01889885775744915,0.0063883461989462376
18944318362562,1.1528080701828003,-9.714473724365234,1.215057373046875,0.003460354171693325,0.0191650390625,0.005057440605014563
18944319599875,1.1192892789840698,-9.765949249267578,1.236605167388916,0.0063883461989462376,0.01783413253724575,0.007985432632267475
18944320837212,1.1252747774124146,-9.725247383117676,1.2773066759109497,0.004791259765625,0.0167694091796875,0.007985432632267475
18944322074550,1.0977414846420288,-9.744400978088379,1.2749123573303223,-0.0005323622026480734,0.0157046839594841,0.005589802749454975
18944323311862,1.1121066808700562,-9.77552604675293,1.2629413604736328,0.005057440605014563,0.02129448764026165,0.005855984054505825
18944324549175,1.1611878871917725,-9.738415718078613,1.2473790645599365,0.0071868896484375,0.0215606689453125,0.008517795242369175
18944325786525,1.1049240827560425,-9.743204116821289,1.256955862045288,0.008251613937318325,0.01943122036755085,0.010381062515079975
18944327023837,1.1587936878204346,-9.714473724365234,1.2318167686462402,0.007985432632267475,0.0220930315554142,0.008251613937318325
18944328261162,1.139639973640442,-9.72165584564209,1.237802267074585,0.01224433071911335,0.02022976242005825,0.0090501569211483
18944329498487,1.1647791862487793,-9.774328231811523,1.2689268589019775,0.014373779296875,0.0119781494140625,0.01357523538172245
18944330735812,1.1599907875061035,-9.745597839355469,1.2749123573303223,0.014373779296875,0.01703559048473835,0.0114457868039608
18944331973150,1.1815385818481445,-9.737218856811523,1.2785037755966187,0.01117960549890995,0.0181003138422966,0.007453070487827063
18944333210437,1.173158884048462,-9.787496566772461,1.3072341680526733,0.01224433071911335,0.01703559048473835,0.008783976547420025
18944334447787,1.1552022695541382,-9.746795654296875,1.2988544702529907,0.01597086526453495,0.01703559048473835,0.010647243820130825
18944335685100,1.1432312726974487,-9.7420072555542,1.294066071510315,0.0138414166867733,0.01756795309484005,0.012776692397892475
18944336922425,1.1803414821624756,-9.724050521850586,1.2785037755966187,0.01117960549890995,0.014373779296875,0.008783976547420025
18944338159750,1.137245774269104,-9.75397777557373,1.260547161102295,0.01171196810901165,0.01783413253724575,0.00931633822619915
18944339397100,1.1300631761550903,-9.770737648010254,1.2773066759109497,0.01836649514734745,0.01756795309484005,0.0167694091796875
18944340634400,1.1599907875061035,-9.738415718078613,1.290474772453308,0.012776692397892475,0.0215606689453125,0.01171196810901165
18944341871712,1.092953085899353,-9.739612579345703,1.3012486696243286,0.0167694091796875,0.0204959437251091,0.014373779296875
18944343109037,1.0905588865280151,-9.787496566772461,1.3072341680526733,0.01756795309484005,0.01836649514734745,0.0181003138422966
18944344346375,1.1312602758407593,-9.804256439208984,1.2785037755966187,0.01171196810901165,0.015438503585755825,0.0157046839594841
18944345583687,1.1480196714401245,-9.815030097961426,1.215057373046875,0.0119781494140625,0.0186326764523983,0.015438503585755825
18944346821012,1.0881646871566772,-9.815030097961426,1.2617442607879639,0.010381062515079975,0.02182685025036335,0.0157046839594841
18944348058350,1.1468225717544556,-9.805453300476074,1.2820950746536255,0.008783976547420025,0.01889885775744915,0.010913425125181675
18944349295650,1.1563994884490967,-9.804256439208984,1.2270283699035645,0.0119781494140625,0.014373779296875,0.01703559048473835
18944350532975,1.1061211824417114,-9.792284965515137,1.2665326595306396,0.015172322280704975,0.015172322280704975,0.01703559048473835
18944351770312,1.1097124814987183,-9.769539833068848,1.2294225692749023,0.014373779296875,0.013309055007994175,0.02076212503015995
18944353007637,1.1025298833847046,-9.77672290802002,1.2868834733963013,0.014373779296875,0.01889885775744915,0.012510511092841625
18944354244950,1.1300631761550903,-9.768342971801758,1.3012486696243286,0.014906140975654125,0.02262539230287075,0.014906140975654125
18944355482300,1.1097124814987183,-9.769539833068848,1.2509703636169434,0.01756795309484005,0.01597086526453495,0.01996358297765255
18944356719625,1.116895079612732,-9.730035781860352,1.2868834733963013,0.01756795309484005,0.0114457868039608,0.02422248013317585
18944357956937,1.1324573755264282,-9.767146110534668,1.2761094570159912,0.0162370465695858,0.01224433071911335,0.02315775491297245
18944359194262,1.137245774269104,-9.738415718078613,1.2306196689605713,0.01756795309484005,0.01357523538172245,0.0181003138422966
18944360431587,1.1899182796478271,-9.737218856811523,1.2641384601593018,0.0191650390625,0.0186326764523983,0.02262539230287075
18944361668900,1.1336544752120972,-9.762357711791992,1.292868971824646,0.01597086526453495,0.01597086526453495,0.02076212503015995
18944362906237,1.137245774269104,-9.727641105651855,1.2952631711959839,0.0181003138422966,0.01357523538172245,0.0204959437251091
18944364143537,1.1288660764694214,-9.757569313049316,1.2892776727676392,0.01650322787463665,0.00984870083630085,0.0220930315554142
18944365380875,1.1252747774124146,-9.743204116821289,1.290474772453308,0.010647243820130825,0.01357523538172245,0.02502102218568325
18944366618200,1.1575965881347656,-9.759963035583496,1.2964602708816528,0.012776692397892475,0.0114457868039608,0.02315775491297245
18944367855537,1.1504138708114624,-9.765949249267578,1.2880805730819702,0.01783413253724575,0.010381062515079975,0.0247548408806324
18944369092850,1.1552022695541382,-9.7791166305542,1.3634978532791138,0.0181003138422966,0.0114457868039608,0.02555338479578495
18944370330175,1.1432312726974487,-9.769539833068848,1.259350061416626,0.0196974016726017,0.015172322280704975,0.02369011752307415
18944371567500,1.171961784362793,-9.739612579345703,1.2641384601593018,0.01889885775744915,0.01224433071911335,0.0191650390625
18944372804825,1.136048674583435,-9.750386238098145,1.2497732639312744,0.01889885775744915,0.0157046839594841,0.0215606689453125
18944374042137,1.1061211824417114,-9.740809440612793,1.2545616626739502,0.0204959437251091,0.010647243820130825,0.02608574740588665
18944375279462,1.1516109704971313,-9.771934509277344,1.2222399711608887,0.0215606689453125,0.008251613937318325,0.0196974016726017
18944376516800,1.1264718770980835,-9.761160850524902,1.2557587623596191,0.0191650390625,0.007453070487827063,0.01836649514734745
18944377754112,1.1240776777267456,-9.781511306762695,1.256955862045288,0.0186326764523983,0.008517795242369175,0.0276828333735466
18944378991450,1.1492167711257935,-9.793481826782227,1.2461819648742676,0.0220930315554142,0.0090501569211483,0.0300784632563591
18944380228762,1.1552022695541382,-9.798270225524902,1.2473790645599365,0.0234239362180233,0.0066545275039970875,0.0271504707634449
18944381466087,1.0893617868423462,-9.765949249267578,1.2521674633026123,0.01597086526453495,0.0071868896484375,0.0276828333735466
18944382703425,1.1192892789840698,-9.806650161743164,1.3012486696243286,0.0196974016726017,0.010114881210029125,0.0322079136967659
18944383940750,1.1037269830703735,-9.832986831665039,1.259350061416626,0.0181003138422966,0.008783976547420025,0.0292799212038517
18944385178062,1.1192892789840698,-9.819818496704102,1.2820950746536255,0.0186326764523983,0.00958251953125,0.02741665206849575
18944386415387,1.092953085899353,-9.84376049041748,1.2485761642456055,0.0157046839594841,0.010647243820130825,0.0314093679189682
18944387652712,1.1216834783554077,-9.84256362915039,1.2808979749679565,0.0162370465695858,0.0053236219100654125,0.0300784632563591
18944388890037,1.1456254720687866,-9.827000617980957,1.2844892740249634,0.013309055007994175,0.0071868896484375,0.02901373989880085
18944390127362,1.1552022695541382,-9.830592155456543,1.3084312677383423,0.013309055007994175,0.0053236219100654125,0.02901373989880085
18944391364687,1.1528080701828003,-9.800664901733398,1.2988544702529907,0.013309055007994175,0.005589802749454975,0.02129448764026165
18944392602012,1.1192892789840698,-9.872490882873535,1.2749123573303223,0.014373779296875,0.0090501569211483,0.02182685025036335
18944393839337,1.1599907875061035,-9.830592155456543,1.2880805730819702,0.015438503585755825,0.0031941730994731188,0.0268842913210392
18944395076662,1.171961784362793,-9.819818496704102,1.3395558595657349,0.0167694091796875,0.005057440605014563,0.03034464456140995
18944396313987,1.1324573755264282,-9.794679641723633,1.2988544702529907,0.012510511092841625,0.010114881210029125,0.02741665206849575
18944397551300,1.1300631761550903,-9.838972091674805,1.2868834733963013,0.01463996060192585,0.0066545275039970875,0.0295461006462574
18944398788625,1.1683704853057861,-9.840168952941895,1.2868834733963013,0.012776692397892475,0.007985432632267475,0.02794901467859745
18944400025950,1.1228805780410767,-9.834183692932129,1.3275848627090454,0.0186326764523983,0.005589802749454975,0.0314093679189682
18944401263287,1.0785878896713257,-9.855731010437012,1.3036428689956665,0.00931633822619915,0.006122165359556675,0.0319417305290699
18944402500612,1.1300631761550903,-9.827000617980957,1.2773066759109497,0.0071868896484375,0.00452507846057415,0.03034464456140995
18944403737912,1.1037269830703735,-9.827000617980957,1.315613865852356,0.007453070487827063,0.0021294488105922937,0.0346035435795784
18944404975250,1.1204863786697388,-9.827000617980957,1.2749123573303223,0.0071868896484375,0.0005323622026480734,0.02981228195130825
18944406212575,1.1456254720687866,-9.818621635437012,1.2665326595306396,0.0066545275039970875,0.0039927163161337376,0.0271504707634449
18944407449900,1.1264718770980835,-9.791088104248047,1.3060370683670044,0.0066545275039970875,0.0037265352439135313,0.02661811001598835
18944408687250,1.0821791887283325,-9.835380554199219,1.3180080652236938,0.0071868896484375,0.0029279920272529125,0.0292799212038517
18944409924550,1.1001356840133667,-9.849745750427246,1.2844892740249634,0.005855984054505825,0.007453070487827063,0.0300784632563591
18944411161875,1.1109095811843872,-9.793481826782227,1.2437877655029297,0.010647243820130825,0.0013309054775163531,0.0314093679189682
18944412399200,1.0869675874710083,-9.795876502990723,1.2797008752822876,0.005855984054505825,0.0042588976211845875,0.02981228195130825
18944413636500,1.116895079612732,-9.819818496704102,1.256955862045288,0.0026618109550327063,0.00692070834338665,0.02422248013317585
18944414873837,1.1013327836990356,-9.77791976928711,1.2713210582733154,-0.0010647244052961469,0.0071868896484375,0.02502102218568325
18944416111175,1.113303780555725,-9.823410034179688,1.290474772453308,-0.0018632676219567657,0.005855984054505825,0.0228915736079216
18944417348500,1.1001356840133667,-9.789891242980957,1.2749123573303223,0.0,-0.0010647244052961469,0.0338049978017807
18944418585825,1.1240776777267456,-9.791088104248047,1.2413935661315918,-0.0002661811013240367,-0.0018632676219567657,0.0319417305290699
18944419823150,1.094150185585022,-9.819818496704102,1.2713210582733154,-0.0021294488105922937,-0.0015970865497365594,0.02981228195130825
18944421060475,1.1061211824417114,-9.806650161743164,1.2425906658172607,0.0,-0.0002661811013240367,0.0295461006462574
18944422297775,1.0642226934432983,-9.774328231811523,1.2749123573303223,0.0023956298828125,0.0,0.0306108258664608
18944423535112,1.114500880241394,-9.795876502990723,1.258152961730957,-0.0002661811013240367,-0.0026618109550327063,0.02981228195130825
18944424772462,1.1276689767837524,-9.822212219238281,1.2629413604736328,0.0007985432748682797,0.0005323622026480734,0.0359344482421875
18944426009775,1.1037269830703735,-9.81263542175293,1.290474772453308,0.0007985432748682797,-0.0007985432748682797,0.0314093679189682
18944427247100,1.0965443849563599,-9.770737648010254,1.292868971824646,-0.0018632676219567657,-0.0031941730994731188,0.02848137728869915
18944428484425,1.1001356840133667,-9.81024169921875,1.2785037755966187,-0.0042588976211845875,0.0010647244052961469,0.02981228195130825
18944429721750,1.0881646871566772,-9.81143856048584,1.2653355598449707,0.0,-0.0002661811013240367,0.02874755859375
18944430959050,1.0833762884140015,-9.81263542175293,1.2318167686462402,-0.0002661811013240367,-0.0021294488105922937,0.02369011752307415
18944432196375,1.1552022695541382,-9.785102844238281,1.2545616626739502,-0.00984870083630085,0.0007985432748682797,0.02661811001598835
18944433433725,1.1216834783554077,-9.822212219238281,1.3192051649093628,-0.0029279920272529125,-0.003460354171693325,0.033538818359375
18944434671050,1.0761936902999878,-9.825803756713867,1.3204022645950317,-0.0018632676219567657,0.0002661811013240367,0.0324740931391716
18944435908362,1.1037269830703735,-9.795876502990723,1.2701239585876465,-0.005855984054505825,0.0018632676219567657,0.0295461006462574
18944437145675,1.1456254720687866,-9.840168952941895,1.2797008752822876,-0.008783976547420025,-0.0029279920272529125,0.0316755510866642
18944438383012,1.072602391242981,-9.832986831665039,1.260547161102295,-0.0077192517928779125,-0.0037265352439135313,0.0327402763068676
18944439620337,1.1109095811843872,-9.793481826782227,1.2557587623596191,-0.0063883461989462376,-0.0042588976211845875,0.0271504707634449
18944440857662,1.0773907899856567,-9.77672290802002,1.315613865852356,-0.007453070487827063,-0.00984870083630085,0.02794901467859745
18944442094987,1.0773907899856567,-9.797073364257812,1.290474772453308,-0.013042873702943325,-0.005057440605014563,0.0263519287109375
18944443332312,1.1001356840133667,-9.81024169921875,1.2665326595306396,-0.010114881210029125,-0.0021294488105922937,0.0223592109978199
18944444569662,1.0881646871566772,-9.804256439208984,1.2401964664459229,-0.0063883461989462376,-0.005589802749454975,0.02874755859375
18944445806950,1.1324573755264282,-9.817423820495605,1.236605167388916,-0.00984870083630085,-0.005855984054505825,0.0306108258664608
18944447044287,1.0342952013015747,-9.798270225524902,1.2689268589019775,-0.00452507846057415,-0.005855984054505825,0.0322079136967659
18944448281612,1.0438719987869263,-9.791088104248047,1.2677297592163086,-0.008251613937318325,-0.0013309054775163531,0.02981228195130825
18944449518950,1.0809820890426636,-9.821015357971191,1.292868971824646,-0.01171196810901165,-0.0039927163161337376,0.0300784632563591
18944450756262,1.1001356840133667,-9.801861763000488,1.2964602708816528,-0.0090501569211483,-0.0026618109550327063,0.0282151959836483
18944451993587,1.0869675874710083,-9.787496566772461,1.256955862045288,-0.00984870083630085,-0.0002661811013240367,0.0306108258664608
18944453230900,1.1109095811843872,-9.785102844238281,1.2533645629882812,-0.0077192517928779125,-0.0021294488105922937,0.0300784632563591
18944454468250,1.1121066808700562,-9.771934509277344,1.2665326595306396,-0.005589802749454975,-0.0015970865497365594,0.0364668108522892
18944455705562,1.072602391242981,-9.792284965515137,1.2725181579589844,-0.01117960549890995,-0.005855984054505825,0.02981228195130825
18944456942887,1.070208191871643,-9.795876502990723,1.2820950746536255,-0.01171196810901165,-0.0021294488105922937,0.02502102218568325
18944458180212,1.0989385843276978,-9.813833236694336,1.2677297592163086,-0.0114457868039608,-0.0053236219100654125,0.0268842913210392
18944459417537,1.115697979927063,-9.773131370544434,1.292868971824646,-0.0119781494140625,-0.0023956298828125,0.02848137728869915
18944460654850,1.0977414846420288,-9.767146110534668,1.3000515699386597,-0.0114457868039608,-0.0018632676219567657,0.0330064557492733
18944461892187,1.114500880241394,-9.816226959228516,1.2461819648742676,-0.012776692397892475,-0.0039927163161337376,0.03087700717151165
18944463129512,1.0845733880996704,-9.821015357971191,1.2270283699035645,-0.010114881210029125,-0.0071868896484375,0.02794901467859745
18944464366825,1.1121066808700562,-9.81263542175293,1.2844892740249634,-0.013309055007994175,-0.0021294488105922937,0.02874755859375
18944465604175,1.0905588865280151,-9.815030097961426,1.2725181579589844,-0.012510511092841625,-0.0066545275039970875,0.03034464456140995
