timestamp_ns,accel_x,accel_y,accel_z,gyro_x,gyro_y,gyro_z
18716340121212,0.11252748221158981,-9.871294021606445,0.4213795065879822,-0.008251613937318325,-0.0026618109550327063,-0.014373779296875
18716341358387,0.09576807171106339,-9.847352027893066,0.45489832758903503,-0.0039927163161337376,0.0029279920272529125,-0.015172322280704975
18716342595562,0.11611878126859665,-9.856928825378418,0.4441244304180145,-0.0066545275039970875,0.01224433071911335,-0.01410759799182415
18716343832737,0.11013327538967133,-9.855731010437012,0.41778820753097534,-0.00958251953125,0.007985432632267475,-0.014373779296875
18716345069937,0.10773907601833344,-9.841365814208984,0.43694180250167847,-0.00958251953125,0.007453070487827063,-0.01650322787463665
18716346307125,0.08259996026754379,-9.876082420349121,0.48243165016174316,-0.010647243820130825,0.007985432632267475,-0.012776692397892475
18716347544300,0.08499415963888168,-9.795876502990723,0.45848962664604187,-0.0031941730994731188,0.010647243820130825,-0.012776692397892475
18716348781475,0.1149216815829277,-9.819818496704102,0.4082113802433014,-0.004791259765625,0.012776692397892475,-0.010114881210029125
18716350018650,0.13287819921970367,-9.816226959228516,0.42616790533065796,-0.013309055007994175,0.01117960549890995,-0.0181003138422966
18716351255837,0.09217676520347595,-9.81263542175293,0.4776432514190674,-0.0090501569211483,0.008783976547420025,-0.014373779296875
18716352493025,0.09696517139673233,-9.8784761428833,0.4297592043876648,-0.0090501569211483,0.00452507846057415,-0.01597086526453495
18716353730175,0.12090718746185303,-9.829395294189453,0.42377370595932007,-0.008517795242369175,0.007453070487827063,-0.013309055007994175
18716354967350,0.09217676520347595,-9.813833236694336,0.46806642413139343,-0.0077192517928779125,0.010381062515079975,-0.0119781494140625
18716356204562,0.15083470940589905,-9.84256362915039,0.40701428055763245,-0.008783976547420025,0.0053236219100654125,-0.015438503585755825
18716357441725,0.1496376097202301,-9.873687744140625,0.42018240690231323,-0.012776692397892475,0.0071868896484375,-0.01756795309484005
18716358678900,0.1173158809542656,-9.855731010437012,0.48482584953308105,-0.008251613937318325,0.0066545275039970875,-0.0181003138422966
18716359916087,0.07900865375995636,-9.834183692932129,0.4273650050163269,-0.00958251953125,0.0090501569211483,-0.0173017717897892
18716361153275,0.07661445438861847,-9.865307807922363,0.44771572947502136,-0.00958251953125,0.01171196810901165,-0.01224433071911335
18716362390450,0.12090718746185303,-9.84615421295166,0.4321534037590027,-0.005855984054505825,0.00931633822619915,-0.010381062515079975
18716363627637,0.15921440720558167,-9.840168952941895,0.4489128291606903,-0.010913425125181675,0.005057440605014563,-0.01224433071911335
18716364864800,0.08978256583213806,-9.8784761428833,0.43694180250167847,-0.007453070487827063,0.006122165359556675,-0.015438503585755825
18716366101987,0.15921440720558167,-9.888052940368652,0.4357447028160095,-0.00692070834338665,0.005057440605014563,-0.0157046839594841
18716367339162,0.12210428714752197,-9.848548889160156,0.4489128291606903,-0.007453070487827063,0.0005323622026480734,-0.013042873702943325
18716368576337,0.11252748221158981,-9.81024169921875,0.4620809257030487,-0.010114881210029125,0.0015970865497365594,-0.012510511092841625
18716369813537,0.12210428714752197,-9.856928825378418,0.395043283700943,-0.007985432632267475,0.00452507846057415,-0.010114881210029125
18716371050725,0.13407529890537262,-9.856928825378418,0.4776432514190674,-0.01357523538172245,0.0037265352439135313,-0.01117960549890995
18716372287875,0.11133038252592087,-9.895236015319824,0.44532153010368347,-0.00931633822619915,0.006122165359556675,-0.014906140975654125
18716373525062,0.10654197633266449,-9.852140426635742,0.45010992884635925,-0.007985432632267475,0.0031941730994731188,-0.0186326764523983
18716374762250,0.12090718746185303,-9.852140426635742,0.46806642413139343,-0.007453070487827063,0.0077192517928779125,-0.012776692397892475
18716375999412,0.12449848651885986,-9.86889934539795,0.40940847992897034,-0.010913425125181675,0.0066545275039970875,-0.010913425125181675
18716377236600,0.10654197633266449,-9.84256362915039,0.43095630407333374,-0.012510511092841625,0.0039927163161337376,-0.007985432632267475
18716378473787,0.11252748221158981,-9.849745750427246,0.39145198464393616,-0.01117960549890995,0.0053236219100654125,-0.012776692397892475
18716379710975,0.15322890877723694,-9.836577415466309,0.4189853072166443,-0.01117960549890995,0.005057440605014563,-0.008517795242369175
18716380948150,0.12330138683319092,-9.835380554199219,0.43694180250167847,-0.0066545275039970875,0.0029279920272529125,-0.010913425125181675
18716382185337,0.09457096457481384,-9.827000617980957,0.46327802538871765,-0.008517795242369175,0.00958251953125,-0.0119781494140625
18716383422500,0.14365209639072418,-9.864110946655273,0.41299980878829956,-0.008783976547420025,0.007453070487827063,-0.008517795242369175
18716384659700,0.13287819921970367,-9.832986831665039,0.4189853072166443,-0.008251613937318325,0.0005323622026480734,-0.00692070834338665
18716385896862,0.15562310814857483,-9.850942611694336,0.3998316824436188,-0.0071868896484375,0.005855984054505825,-0.008251613937318325
18716387134050,0.15801730751991272,-9.848548889160156,0.38905778527259827,-0.010114881210029125,0.0114457868039608,-0.0119781494140625
18716388371225,0.12210428714752197,-9.861717224121094,0.4357447028160095,-0.014373779296875,0.005589802749454975,-0.012776692397892475
18716389608400,0.14844051003456116,-9.837775230407715,0.4812345504760742,-0.00984870083630085,0.0018632676219567657,-0.012776692397892475
18716390845600,0.15083470940589905,-9.848548889160156,0.4273650050163269,-0.004791259765625,0.005855984054505825,-0.01410759799182415
18716392082762,0.16879121959209442,-9.832986831665039,0.43694180250167847,-0.00958251953125,0.00452507846057415,-0.010647243820130825
18716393319937,0.17238251864910126,-9.838972091674805,0.3998316824436188,-0.00984870083630085,0.0021294488105922937,-0.0026618109550327063
18716394557125,0.10773907601833344,-9.823410034179688,0.4321534037590027,-0.0066545275039970875,0.0063883461989462376,-0.01171196810901165
18716395794312,0.14006079733371735,-9.84495735168457,0.4441244304180145,-0.0066545275039970875,0.007985432632267475,-0.013309055007994175
18716397031487,0.07900865375995636,-9.797073364257812,0.3866635859012604,-0.008251613937318325,0.0021294488105922937,-0.00984870083630085
18716398268662,0.10175357013940811,-9.849745750427246,0.43335050344467163,-0.005589802749454975,0.00692070834338665,-0.00958251953125
18716399505862,0.10534487664699554,-9.836577415466309,0.42377370595932007,-0.0077192517928779125,0.005855984054505825,-0.008783976547420025
18716400743025,0.13287819921970367,-9.830592155456543,0.4297592043876648,-0.007453070487827063,0.0005323622026480734,-0.008251613937318325
18716401980175,0.1472434103488922,-9.80904483795166,0.4189853072166443,-0.008517795242369175,0.003460354171693325,-0.00931633822619915
18716403217400,0.14844051003456116,-9.806650161743164,0.43335050344467163,-0.008783976547420025,0.005855984054505825,-0.010913425125181675
18716404454587,0.1759738326072693,-9.819818496704102,0.4381389021873474,-0.00452507846057415,0.0026618109550327063,-0.00958251953125
18716405691750,0.1256955862045288,-9.859322547912598,0.47165775299072266,-0.0029279920272529125,0.0005323622026480734,-0.00984870083630085
18716406928925,0.14604631066322327,-9.797073364257812,0.43694180250167847,-0.0090501569211483,0.0023956298828125,-0.010114881210029125
18716408166125,0.11252748221158981,-9.823410034179688,0.42616790533065796,-0.00692070834338665,0.0031941730994731188,-0.010381062515079975
18716409403287,0.152031809091568,-9.860519409179688,0.41778820753097534,-0.0063883461989462376,0.003460354171693325,-0.008783976547420025
18716410640462,0.20709845423698425,-9.825803756713867,0.3974374830722809,-0.007985432632267475,0.0018632676219567657,-0.008783976547420025
18716411877662,0.17836803197860718,-9.850942611694336,0.4273650050163269,-0.01171196810901165,0.0026618109550327063,-0.003460354171693325
18716413114825,0.16639702022075653,-9.815030097961426,0.4752490520477295,-0.008251613937318325,0.00692070834338665,-0.007453070487827063
18716414352025,0.15682020783424377,-9.834183692932129,0.44173023104667664,-0.004791259765625,0.0,-0.01171196810901165
18716415589200,0.1364694982767105,-9.850942611694336,0.41539400815963745,-0.0026618109550327063,0.0039927163161337376,-0.01224433071911335
18716416826350,0.1472434103488922,-9.865307807922363,0.37469255924224854,0.0013309054775163531,0.005589802749454975,-0.0119781494140625
18716418063550,0.17717093229293823,-9.849745750427246,0.4381389021873474,-0.0023956298828125,0.0005323622026480734,-0.010647243820130825
18716419300725,0.14604631066322327,-9.834183692932129,0.42377370595932007,-0.0042588976211845875,0.0018632676219567657,-0.00931633822619915
18716420537925,0.10534487664699554,-9.848548889160156,0.4189853072166443,-0.0039927163161337376,0.0026618109550327063,-0.0077192517928779125
18716421775100,0.1280897855758667,-9.81024169921875,0.40222588181495667,-0.0077192517928779125,0.0013309054775163531,-0.00931633822619915
18716423012250,0.11971008777618408,-9.819818496704102,0.4920084476470947,-0.0053236219100654125,-0.0013309054775163531,-0.010114881210029125
18716424249437,0.1604115217924118,-9.838972091674805,0.46327802538871765,-0.005057440605014563,0.0,-0.00931633822619915
18716425486625,0.18555063009262085,-9.840168952941895,0.4213795065879822,-0.007985432632267475,0.0029279920272529125,-0.006122165359556675
18716426723812,0.18794482946395874,-9.84376049041748,0.43933600187301636,-0.0053236219100654125,0.0042588976211845875,-0.007985432632267475
18716427961000,0.13407529890537262,-9.7791166305542,0.424970805644989,-0.0010647244052961469,0.0021294488105922937,-0.00931633822619915
18716429198175,0.12689268589019775,-9.84256362915039,0.4405331015586853,-0.0010647244052961469,0.0026618109550327063,-0.01357523538172245
18716430435362,0.17477671802043915,-9.813833236694336,0.40462008118629456,0.0005323622026480734,-0.005855984054505825,-0.010114881210029125
18716431672537,0.16160862147808075,-9.830592155456543,0.45250412821769714,-0.0026618109550327063,-0.0015970865497365594,-0.008251613937318325
18716432909712,0.16998831927776337,-9.827000617980957,0.49799394607543945,-0.010647243820130825,0.0018632676219567657,-0.0114457868039608
18716434146900,0.14245499670505524,-9.813833236694336,0.4489128291606903,-0.0042588976211845875,0.0002661811013240367,-0.00692070834338665
18716435384075,0.12090718746185303,-9.834183692932129,0.3842693865299225,-0.0005323622026480734,-0.0010647244052961469,-0.0031941730994731188
18716436621250,0.10893617570400238,-9.827000617980957,0.42377370595932007,-0.0013309054775163531,0.0010647244052961469,-0.0013309054775163531
18716437858437,0.15801730751991272,-9.831789016723633,0.47165775299072266,-0.0018632676219567657,0.003460354171693325,-0.005855984054505825
18716439095612,0.1759738326072693,-9.853337287902832,0.4345476031303406,0.0013309054775163531,0.0037265352439135313,-0.0114457868039608
18716440332800,0.1735796183347702,-9.835380554199219,0.4141969084739685,0.0002661811013240367,0.005057440605014563,-0.010913425125181675
18716441569962,0.11611878126859665,-9.813833236694336,0.40222588181495667,0.0021294488105922937,-0.0005323622026480734,-0.0077192517928779125
18716442807150,0.15083470940589905,-9.80904483795166,0.4058171808719635,0.0010647244052961469,-0.005057440605014563,-0.008251613937318325
18716444044325,0.2059013545513153,-9.799468040466309,0.39145198464393616,-0.005855984054505825,0.0007985432748682797,-0.010913425125181675
18716445281500,0.1975216418504715,-9.795876502990723,0.3770867586135864,-0.0002661811013240367,0.0018632676219567657,-0.010647243820130825
18716446518700,0.1388636976480484,-9.798270225524902,0.42616790533065796,0.0015970865497365594,-0.0013309054775163531,-0.00931633822619915
18716447755875,0.16160862147808075,-9.815030097961426,0.3998316824436188,0.0018632676219567657,-0.003460354171693325,-0.00692070834338665
18716448993037,0.19273324310779572,-9.805453300476074,0.42377370595932007,-0.0021294488105922937,-0.005855984054505825,-0.01117960549890995
18716450230225,0.14245499670505524,-9.84615421295166,0.41539400815963745,-0.0018632676219567657,-0.0053236219100654125,-0.0138414166867733
18716451467400,0.20350714027881622,-9.836577415466309,0.4034229815006256,-0.0018632676219567657,-0.0010647244052961469,-0.01171196810901165
18716452704575,0.19393034279346466,-9.849745750427246,0.4465186297893524,0.00452507846057415,-0.0013309054775163531,-0.010381062515079975
18716453941762,0.1759738326072693,-9.84376049041748,0.4381389021873474,0.0002661811013240367,-0.0042588976211845875,-0.013309055007994175
18716455178950,0.16519992053508759,-9.828198432922363,0.456095427274704,0.0007985432748682797,-0.0037265352439135313,-0.0181003138422966
18716456416137,0.1951274424791336,-9.850942611694336,0.44771572947502136,0.0021294488105922937,-0.0007985432748682797,-0.012776692397892475
18716457653312,0.18555063009262085,-9.864110946655273,0.39145198464393616,0.0039927163161337376,-0.0021294488105922937,-0.0090501569211483
18716458890487,0.19273324310779572,-9.819818496704102,0.41060560941696167,0.010381062515079975,-0.005057440605014563,-0.01224433071911335
18716460127662,0.2190694510936737,-9.801861763000488,0.41539400815963745,0.006122165359556675,-0.005855984054505825,-0.01463996060192585
18716461364862,0.18076223134994507,-9.84256362915039,0.43694180250167847,0.0039927163161337376,-0.008517795242369175,-0.013042873702943325
18716462602012,0.20470423996448517,-9.841365814208984,0.4596867263317108,0.0071868896484375,-0.004791259765625,-0.01117960549890995
18716463839212,0.2322375625371933,-9.787496566772461,0.4118027091026306,0.0042588976211845875,-0.004791259765625,-0.01171196810901165
18716465076387,0.16759411990642548,-9.81263542175293,0.4692635238170624,0.0018632676219567657,-0.005855984054505825,-0.0138414166867733
18716466313562,0.19632454216480255,-9.832986831665039,0.43694180250167847,0.005057440605014563,-0.005855984054505825,-0.012510511092841625
18716467550737,0.1472434103488922,-9.852140426635742,0.41778820753097534,0.0063883461989462376,-0.0037265352439135313,-0.015438503585755825
18716468787925,0.18076223134994507,-9.834183692932129,0.4189853072166443,0.0071868896484375,-0.006122165359556675,-0.01224433071911335
18716470025112,0.21787235140800476,-9.828198432922363,0.4944026470184326,0.0031941730994731188,-0.0031941730994731188,-0.01650322787463665
18716471262275,0.18914192914962769,-9.852140426635742,0.45848962664604187,0.0018632676219567657,-0.005057440605014563,-0.015172322280704975
18716472499475,0.19871874153614044,-9.832986831665039,0.4465186297893524,0.01117960549890995,-0.0066545275039970875,-0.01650322787463665
18716473736650,0.16519992053508759,-9.813833236694336,0.45848962664604187,0.01410759799182415,-0.0071868896484375,-0.01650322787463665
18716474973825,0.20709845423698425,-9.835380554199219,0.4345476031303406,0.010381062515079975,-0.0063883461989462376,-0.0173017717897892
18716476211012,0.16759411990642548,-9.821015357971191,0.44173023104667664,0.005057440605014563,-0.0071868896484375,-0.015438503585755825
18716477448200,0.15801730751991272,-9.817423820495605,0.40701428055763245,0.013042873702943325,-0.008251613937318325,-0.01357523538172245
18716478685350,0.1843535304069519,-9.80904483795166,0.4596867263317108,0.008517795242369175,-0.0077192517928779125,-0.015438503585755825
18716479922537,0.1472434103488922,-9.803058624267578,0.5039794445037842,0.00958251953125,-0.007453070487827063,-0.015172322280704975
18716481159725,0.15801730751991272,-9.798270225524902,0.48602294921875,0.00692070834338665,-0.0053236219100654125,-0.01943122036755085
18716482396900,0.2082955539226532,-9.804256439208984,0.42616790533065796,0.01224433071911335,-0.00931633822619915,-0.02262539230287075
18716483634087,0.16160862147808075,-9.821015357971191,0.4620809257030487,0.008783976547420025,-0.005589802749454975,-0.01650322787463665
18716484871250,0.14604631066322327,-9.800664901733398,0.4357447028160095,0.008251613937318325,-0.00984870083630085,-0.0173017717897892
18716486108462,0.19273324310779572,-9.787496566772461,0.43095630407333374,0.0114457868039608,-0.0090501569211483,-0.0228915736079216
18716487345637,0.19033904373645782,-9.84256362915039,0.4620809257030487,0.013309055007994175,-0.007985432632267475,-0.01783413253724575
18716488582812,0.17717093229293823,-9.801861763000488,0.45010992884635925,0.01171196810901165,-0.004791259765625,-0.01410759799182415
18716489819987,0.20949265360832214,-9.828198432922363,0.41539400815963745,0.0119781494140625,-0.0090501569211483,-0.01943122036755085
18716491057175,0.1975216418504715,-9.835380554199219,0.4165911078453064,0.01224433071911335,-0.0090501569211483,-0.02182685025036335
18716492294350,0.15083470940589905,-9.830592155456543,0.38546648621559143,0.01171196810901165,-0.0071868896484375,-0.015438503585755825
18716493531525,0.19393034279346466,-9.821015357971191,0.4381389021873474,0.013309055007994175,-0.01117960549890995,-0.01597086526453495
18716494768700,0.17238251864910126,-9.81143856048584,0.4620809257030487,0.0119781494140625,-0.0090501569211483,-0.014373779296875
18716496005900,0.15801730751991272,-9.854534149169922,0.4297592043876648,0.01410759799182415,-0.010381062515079975,-0.015438503585755825
18716497243062,0.17836803197860718,-9.824606895446777,0.4644751250743866,0.015438503585755825,-0.01171196810901165,-0.02129448764026165
18716498480262,0.18555063009262085,-9.856928825378418,0.4489128291606903,0.014906140975654125,-0.00958251953125,-0.01597086526453495
18716499717425,0.16759411990642548,-9.890447616577148,0.4465186297893524,0.01357523538172245,-0.010913425125181675,-0.0157046839594841
18716500954625,0.1867477297782898,-9.876082420349121,0.4620809257030487,0.01357523538172245,-0.0077192517928779125,-0.0215606689453125
18716502191787,0.15682020783424377,-9.835380554199219,0.45250412821769714,0.0119781494140625,-0.00452507846057415,-0.0186326764523983
18716503428962,0.21428105235099792,-9.853337287902832,0.4812345504760742,0.007453070487827063,-0.0063883461989462376,-0.02262539230287075
18716504666150,0.17717093229293823,-9.831789016723633,0.4345476031303406,0.007453070487827063,-0.010913425125181675,-0.0167694091796875
18716505903325,0.15083470940589905,-9.853337287902832,0.45010992884635925,0.012510511092841625,-0.01117960549890995,-0.0210283063352108
18716507140500,0.16519992053508759,-9.885659217834473,0.48961424827575684,0.015438503585755825,-0.008251613937318325,-0.02022976242005825
18716508377675,0.21667525172233582,-9.872490882873535,0.4704606235027313,0.01357523538172245,-0.007453070487827063,-0.0173017717897892
18716509614862,0.19273324310779572,-9.877279281616211,0.40222588181495667,0.012510511092841625,-0.00931633822619915,-0.02129448764026165
18716510852050,0.17836803197860718,-9.840168952941895,0.40940847992897034,0.01597086526453495,-0.00931633822619915,-0.015438503585755825
18716512089225,0.1843535304069519,-9.872490882873535,0.4836287498474121,0.015172322280704975,-0.008783976547420025,-0.0181003138422966
18716513326400,0.17836803197860718,-9.86770248413086,0.47405195236206055,0.0077192517928779125,-0.00692070834338665,-0.01889885775744915
18716514563575,0.15801730751991272,-9.883264541625977,0.4058171808719635,0.01171196810901165,-0.01224433071911335,-0.014906140975654125
18716515800762,0.21667525172233582,-9.885659217834473,0.4596867263317108,0.013309055007994175,-0.00931633822619915,-0.0181003138422966
18716517037937,0.19871874153614044,-9.874884605407715,0.4596867263317108,0.00931633822619915,-0.010647243820130825,-0.01836649514734745
18716518275137,0.1951274424791336,-9.906009674072266,0.5123591423034668,0.010114881210029125,-0.00984870083630085,-0.012510511092841625
18716519512300,0.20470423996448517,-9.885659217834473,0.4836287498474121,0.010381062515079975,-0.01171196810901165,-0.0173017717897892
18716520749487,0.21667525172233582,-9.904812812805176,0.4429273307323456,0.01463996060192585,-0.010913425125181675,-0.0167694091796875
18716521986650,0.15921440720558167,-9.8784761428833,0.4141969084739685,0.0138414166867733,-0.010381062515079975,-0.0162370465695858
18716523223850,0.16519992053508759,-9.921571731567383,0.41060560941696167,0.0119781494140625,-0.0138414166867733,-0.01836649514734745
18716524461050,0.1735796183347702,-9.920374870300293,0.43933600187301636,0.00958251953125,-0.0138414166867733,-0.01836649514734745
18716525698200,0.14365209639072418,-9.90361499786377,0.44532153010368347,0.01117960549890995,-0.010913425125181675,-0.0162370465695858
18716526935400,0.1843535304069519,-9.914389610290527,0.4572925269603729,0.0090501569211483,-0.0119781494140625,-0.01836649514734745
18716528172575,0.1867477297782898,-9.927556991577148,0.45489832758903503,0.010913425125181675,-0.010381062515079975,-0.014373779296875
18716529409737,0.20949265360832214,-9.928754806518555,0.4489128291606903,0.008783976547420025,-0.010647243820130825,-0.015172322280704975
18716530646937,0.18555063009262085,-9.939528465270996,0.46567222476005554,0.008251613937318325,-0.007453070487827063,-0.01650322787463665
18716531884100,0.19871874153614044,-9.945513725280762,0.43095630407333374,0.007985432632267475,-0.00984870083630085,-0.0215606689453125
18716533121300,0.19871874153614044,-9.939528465270996,0.46806642413139343,0.00692070834338665,-0.0077192517928779125,-0.01836649514734745
18716534358475,0.1951274424791336,-9.914389610290527,0.4141969084739685,0.0031941730994731188,-0.007985432632267475,-0.0138414166867733
18716535595625,0.152031809091568,-9.932345390319824,0.46567222476005554,0.0063883461989462376,-0.01171196810901165,-0.0173017717897892
18716536832837,0.18555063009262085,-9.941922187805176,0.48722004890441895,0.005855984054505825,-0.01357523538172245,-0.01996358297765255
18716538070012,0.2059013545513153,-9.928754806518555,0.44532153010368347,0.005589802749454975,-0.010647243820130825,-0.0167694091796875
18716539307187,0.15442600846290588,-9.888052940368652,0.44771572947502136,0.0071868896484375,-0.01650322787463665,-0.013309055007994175
18716540544375,0.19033904373645782,-9.915586471557617,0.4321534037590027,-0.0039927163161337376,-0.013309055007994175,-0.01703559048473835
18716541781537,0.18555063009262085,-9.90361499786377,0.4321534037590027,-0.0005323622026480734,-0.00931633822619915,-0.0173017717897892
18716543018737,0.21188685297966003,-9.884461402893066,0.47644615173339844,0.0013309054775163531,-0.010381062515079975,-0.013309055007994175
18716544255887,0.1388636976480484,-9.883264541625977,0.4357447028160095,0.0029279920272529125,-0.013042873702943325,-0.01703559048473835
18716545493075,0.1843535304069519,-9.890447616577148,0.45489832758903503,0.0039927163161337376,-0.0119781494140625,-0.0114457868039608
18716546730275,0.1951274424791336,-9.911994934082031,0.4513070285320282,0.005589802749454975,-0.012510511092841625,-0.0157046839594841
18716547967437,0.21428105235099792,-9.872490882873535,0.48482584953308105,0.0007985432748682797,-0.0173017717897892,-0.01117960549890995
18716549204637,0.1951274424791336,-9.860519409179688,0.4884171485900879,-0.0037265352439135313,-0.01171196810901165,-0.01357523538172245
18716550441800,0.18914192914962769,-9.848548889160156,0.5051765441894531,-0.0021294488105922937,-0.01410759799182415,-0.0167694091796875
18716551678975,0.18315643072128296,-9.888052940368652,0.46088382601737976,-0.0010647244052961469,-0.01650322787463665,-0.012776692397892475
18716552916162,0.2059013545513153,-9.884461402893066,0.48243165016174316,-0.0026618109550327063,-0.014906140975654125,-0.012776692397892475
18716554153362,0.17717093229293823,-9.8784761428833,0.507570743560791,0.0013309054775163531,-0.01650322787463665,-0.01410759799182415
18716555390512,0.1711854189634323,-9.840168952941895,0.48602294921875,-0.0013309054775163531,-0.01410759799182415,-0.01117960549890995
18716556627712,0.16519992053508759,-9.894038200378418,0.42018240690231323,-0.0007985432748682797,-0.013309055007994175,-0.00692070834338665
18716557864900,0.17956513166427612,-9.848548889160156,0.4429273307323456,-0.0021294488105922937,-0.01410759799182415,-0.0090501569211483
18716559102075,0.1472434103488922,-9.824606895446777,0.48482584953308105,-0.00452507846057415,-0.010913425125181675,-0.008517795242369175
18716560339237,0.20231004059314728,-9.872490882873535,0.46088382601737976,-0.0053236219100654125,-0.014906140975654125,-0.0063883461989462376
18716561576437,0.19273324310779572,-9.90361499786377,0.48961424827575684,-0.0031941730994731188,-0.01410759799182415,-0.00931633822619915
18716562813612,0.1759738326072693,-9.840168952941895,0.4884171485900879,-0.0026618109550327063,-0.013042873702943325,-0.00984870083630085
18716564050775,0.16998831927776337,-9.848548889160156,0.4704606235027313,-0.0021294488105922937,-0.01783413253724575,-0.010114881210029125
18716565287962,0.1867477297782898,-9.891644477844238,0.48602294921875,-0.0015970865497365594,-0.01463996060192585,-0.0114457868039608
18716566525150,0.17477671802043915,-9.86650562286377,0.4884171485900879,-0.008251613937318325,-0.008783976547420025,-0.008517795242369175
18716567762337,0.16998831927776337,-9.873687744140625,0.4800374507904053,-0.0042588976211845875,-0.014906140975654125,-0.00692070834338665
18716568999512,0.22864626348018646,-9.911994934082031,0.43933600187301636,-0.005589802749454975,-0.0157046839594841,-0.00958251953125
18716570236687,0.19632454216480255,-9.891644477844238,0.4668693244457245,-0.0077192517928779125,-0.0114457868039608,-0.00931633822619915
18716571473875,0.22744916379451752,-9.874884605407715,0.43095630407333374,-0.003460354171693325,-0.012776692397892475,-0.00692070834338665
18716572711062,0.15442600846290588,-9.829395294189453,0.4465186297893524,-0.0031941730994731188,-0.010913425125181675,-0.005855984054505825
18716573948225,0.2082955539226532,-9.87967300415039,0.5051765441894531,-0.0077192517928779125,-0.0066545275039970875,-0.00452507846057415
18716575185400,0.17836803197860718,-9.880870819091797,0.4752490520477295,-0.01171196810901165,-0.00984870083630085,-0.0023956298828125
18716576422600,0.17836803197860718,-9.884461402893066,0.4644751250743866,-0.005855984054505825,-0.0119781494140625,-0.0013309054775163531
18716577659762,0.19033904373645782,-9.861717224121094,0.4441244304180145,-0.004791259765625,-0.01463996060192585,0.0
18716578896950,0.22385786473751068,-9.86650562286377,0.40701428055763245,-0.010647243820130825,-0.0167694091796875,-0.0021294488105922937
18716580134125,0.19153614342212677,-9.885659217834473,0.46327802538871765,-0.007985432632267475,-0.01357523538172245,-0.006122165359556675
18716581371312,0.18315643072128296,-9.889249801635742,0.4189853072166443,-0.0039927163161337376,-0.0138414166867733,-0.00958251953125
18716582608500,0.2082955539226532,-9.883264541625977,0.4537012279033661,-0.00452507846057415,-0.0167694091796875,-0.008251613937318325
18716583845675,0.18794482946395874,-9.882067680358887,0.456095427274704,-0.0114457868039608,-0.00931633822619915,-0.005589802749454975
18716585082850,0.18794482946395874,-9.90241813659668,0.456095427274704,-0.006122165359556675,-0.0119781494140625,-0.0005323622026480734
18716586320025,0.15921440720558167,-9.886856079101562,0.4884171485900879,-0.00984870083630085,-0.0119781494140625,-0.0010647244052961469
18716587557212,0.11851298809051514,-9.90361499786377,0.45489832758903503,-0.0119781494140625,-0.0114457868039608,-0.0026618109550327063
18716588794400,0.21547815203666687,-9.884461402893066,0.4704606235027313,-0.0114457868039608,-0.01117960549890995,-0.0029279920272529125
18716590031587,0.2106897532939911,-9.888052940368652,0.47165775299072266,-0.01171196810901165,-0.00931633822619915,-0.00692070834338665
18716591268762,0.21188685297966003,-9.838972091674805,0.44173023104667664,-0.0090501569211483,-0.01410759799182415,-0.004791259765625
18716592505925,0.1951274424791336,-9.86889934539795,0.4800374507904053,-0.007985432632267475,-0.010913425125181675,0.0021294488105922937
18716593743112,0.1867477297782898,-9.891644477844238,0.4908113479614258,-0.008783976547420025,-0.00958251953125,-0.0063883461989462376
18716594980287,0.181959331035614,-9.862914085388184,0.4967968463897705,-0.008783976547420025,-0.010647243820130825,-0.0042588976211845875
18716596217475,0.18555063009262085,-9.859322547912598,0.44532153010368347,-0.00984870083630085,-0.010913425125181675,-0.00692070834338665
18716597454662,0.1999158412218094,-9.84256362915039,0.4225766062736511,-0.00958251953125,-0.01410759799182415,-0.007985432632267475
18716598691837,0.12330138683319092,-9.874884605407715,0.4812345504760742,-0.01171196810901165,-0.010647243820130825,-0.0053236219100654125
18716599929012,0.18555063009262085,-9.861717224121094,0.4884171485900879,-0.01117960549890995,-0.008251613937318325,-0.0021294488105922937
18716601166200,0.16639702022075653,-9.84615421295166,0.48243165016174316,-0.0114457868039608,-0.008251613937318325,-0.005855984054505825
18716602403375,0.15562310814857483,-9.86650562286377,0.4513070285320282,-0.01117960549890995,-0.00958251953125,-0.0021294488105922937
18716603640562,0.1975216418504715,-9.871294021606445,0.45848962664604187,-0.013042873702943325,-0.00984870083630085,-0.0090501569211483
18716604877750,0.2082955539226532,-9.877279281616211,0.4345476031303406,-0.01224433071911335,-0.010381062515079975,-0.0039927163161337376
18716606114912,0.2059013545513153,-9.837775230407715,0.4644751250743866,-0.013309055007994175,-0.0071868896484375,-0.006122165359556675
18716607352087,0.18315643072128296,-9.889249801635742,0.4596867263317108,-0.013042873702943325,-0.0042588976211845875,-0.0053236219100654125
18716608589250,0.15682020783424377,-9.84376049041748,0.45489832758903503,-0.012776692397892475,-0.010647243820130825,-0.0053236219100654125
18716609826462,0.19871874153614044,-9.84256362915039,0.4620809257030487,-0.01410759799182415,-0.015438503585755825,-0.0042588976211845875
18716611063637,0.1388636976480484,-9.856928825378418,0.48722004890441895,-0.01357523538172245,-0.010913425125181675,-0.006122165359556675
18716612300825,0.1735796183347702,-9.876082420349121,0.45010992884635925,-0.013309055007994175,-0.00692070834338665,-0.005855984054505825
18716613537987,0.1975216418504715,-9.90122127532959,0.4429273307323456,-0.0167694091796875,-0.00692070834338665,-0.0077192517928779125
18716614775175,0.19273324310779572,-9.888052940368652,0.46806642413139343,-0.0138414166867733,-0.0071868896484375,-0.008517795242369175
18716616012362,0.16759411990642548,-9.907206535339355,0.4441244304180145,-0.0138414166867733,-0.0077192517928779125,-0.00931633822619915
18716617249525,0.16759411990642548,-9.898826599121094,0.4596867263317108,-0.0138414166867733,-0.007985432632267475,-0.0071868896484375
18716618486737,0.18315643072128296,-9.915586471557617,0.48961424827575684,-0.0138414166867733,-0.010913425125181675,-0.0042588976211845875
18716619723900,0.1388636976480484,-9.956287384033203,0.43694180250167847,-0.01224433071911335,-0.012510511092841625,-0.008783976547420025
18716620961087,0.18914192914962769,-9.898826599121094,0.4225766062736511,-0.01410759799182415,-0.00984870083630085,-0.006122165359556675
18716622198262,0.24420857429504395,-9.904812812805176,0.4537012279033661,-0.0167694091796875,-0.00452507846057415,-0.0013309054775163531
18716623435437,0.18914192914962769,-9.909601211547852,0.45250412821769714,-0.0167694091796875,-0.008517795242369175,-0.008517795242369175
18716624672625,0.19153614342212677,-9.915586471557617,0.46806642413139343,-0.01996358297765255,-0.00452507846057415,-0.007453070487827063
18716625909800,0.19393034279346466,-9.894038200378418,0.48961424827575684,-0.014906140975654125,-0.005057440605014563,-0.005589802749454975
18716627146975,0.18076223134994507,-9.909601211547852,0.43095630407333374,-0.015172322280704975,-0.010647243820130825,-0.0042588976211845875
18716628384175,0.17238251864910126,-9.898826599121094,0.4836287498474121,-0.01943122036755085,-0.0066545275039970875,-0.0018632676219567657
18716629621337,0.15682020783424377,-9.938331604003906,0.4513070285320282,-0.02315775491297245,-0.0021294488105922937,-0.0090501569211483
18716630858525,0.20111294090747833,-9.93474006652832,0.44532153010368347,-0.0220930315554142,-0.0077192517928779125,-0.01410759799182415
18716632095725,0.17836803197860718,-9.90241813659668,0.47644615173339844,-0.0173017717897892,-0.008783976547420025,-0.0114457868039608
18716633332887,0.22385786473751068,-9.886856079101562,0.46806642413139343,-0.02369011752307415,-0.005057440605014563,-0.00931633822619915
18716634570075,0.14365209639072418,-9.908403396606445,0.41539400815963745,-0.0173017717897892,-0.0066545275039970875,-0.008517795242369175
18716635807250,0.17238251864910126,-9.888052940368652,0.45010992884635925,-0.0196974016726017,-0.00452507846057415,-0.01117960549890995
18716637044450,0.16639702022075653,-9.897629737854004,0.4429273307323456,-0.023956298828125,-0.0031941730994731188,-0.010114881210029125
18716638281600,0.22625206410884857,-9.897629737854004,0.4141969084739685,-0.0295461006462574,-0.0021294488105922937,-0.0119781494140625
18716639518787,0.15442600846290588,-9.90361499786377,0.45489832758903503,-0.02848137728869915,-0.0071868896484375,-0.012510511092841625
18716640755975,0.17477671802043915,-9.86770248413086,0.4429273307323456,-0.02315775491297245,-0.0077192517928779125,-0.0138414166867733
18716641993137,0.19153614342212677,-9.864110946655273,0.48602294921875,-0.0268842913210392,-0.003460354171693325,-0.010381062515079975
18716643230325,0.20231004059314728,-9.853337287902832,0.4572925269603729,-0.02901373989880085,-0.003460354171693325,-0.0114457868039608
18716644467512,0.20470423996448517,-9.871294021606445,0.4297592043876648,-0.01996358297765255,-0.00958251953125,-0.01117960549890995
18716645704687,0.16998831927776337,-9.834183692932129,0.4441244304180145,-0.02422248013317585,-0.0053236219100654125,-0.007453070487827063
18716646941862,0.20350714027881622,-9.81143856048584,0.4537012279033661,-0.02369011752307415,-0.006122165359556675,-0.00931633822619915
18716648179050,0.15442600846290588,-9.856928825378418,0.49799394607543945,-0.02422248013317585,-0.003460354171693325,-0.014906140975654125
18716649416237,0.22385786473751068,-9.827000617980957,0.4596867263317108,-0.02262539230287075,-0.0053236219100654125,-0.0114457868039608
18716650653412,0.2082955539226532,-9.821015357971191,0.42377370595932007,-0.02369011752307415,-0.008251613937318325,-0.007453070487827063
18716651890587,0.23582887649536133,-9.84376049041748,0.42377370595932007,-0.0247548408806324,-0.0018632676219567657,-0.013042873702943325
18716653127762,0.2190694510936737,-9.836577415466309,0.44532153010368347,-0.02369011752307415,-0.0021294488105922937,-0.01650322787463665
18716654364962,0.2190694510936737,-9.832986831665039,0.3866635859012604,-0.02262539230287075,0.0002661811013240367,-0.012776692397892475
18716655602137,0.17717093229293823,-9.825803756713867,0.44173023104667664,-0.02262539230287075,-0.003460354171693325,-0.010647243820130825
18716656839312,0.18555063009262085,-9.84376049041748,0.4465186297893524,-0.02076212503015995,-0.0039927163161337376,-0.013042873702943325
18716658076487,0.16519992053508759,-9.84256362915039,0.395043283700943,-0.02022976242005825,-0.0002661811013240367,-0.013309055007994175
18716659313687,0.24420857429504395,-9.827000617980957,0.45848962664604187,-0.02129448764026165,0.0018632676219567657,-0.012510511092841625
18716660550850,0.2214636653661728,-9.825803756713867,0.36750996112823486,-0.02502102218568325,-0.0002661811013240367,-0.013309055007994175
18716661788025,0.1999158412218094,-9.803058624267578,0.4141969084739685,-0.02502102218568325,-0.0013309054775163531,-0.0173017717897892
18716663025212,0.21547815203666687,-9.849745750427246,0.44532153010368347,-0.02129448764026165,-0.0010647244052961469,-0.0090501569211483
18716664262387,0.20709845423698425,-9.840168952941895,0.45848962664604187,-0.0210283063352108,-0.0002661811013240367,-0.010913425125181675
18716665499575,0.21787235140800476,-9.837775230407715,0.4537012279033661,-0.01650322787463665,0.005855984054505825,-0.01597086526453495
18716666736762,0.22026655077934265,-9.786299705505371,0.43933600187301636,-0.0196974016726017,0.0013309054775163531,-0.010381062515079975
18716667973950,0.21428105235099792,-9.841365814208984,0.4405331015586853,-0.01171196810901165,-0.0007985432748682797,-0.0090501569211483
18716669211112,0.21428105235099792,-9.830592155456543,0.4513070285320282,-0.0181003138422966,-0.0010647244052961469,-0.010114881210029125
18716670448312,0.18794482946395874,-9.827000617980957,0.43095630407333374,-0.0204959437251091,-0.004791259765625,-0.0138414166867733
18716671685487,0.1735796183347702,-9.797073364257812,0.4381389021873474,-0.0186326764523983,-0.003460354171693325,-0.010647243820130825
18716672922650,0.19871874153614044,-9.815030097961426,0.46088382601737976,-0.015172322280704975,-0.0005323622026480734,-0.00958251953125
18716674159812,0.21547815203666687,-9.78869342803955,0.44771572947502136,-0.0215606689453125,-0.0002661811013240367,-0.00931633822619915
18716675397025,0.1951274424791336,-9.792284965515137,0.47165775299072266,-0.01783413253724575,-0.0007985432748682797,-0.0063883461989462376
18716676634200,0.2082955539226532,-9.7791166305542,0.43335050344467163,-0.0162370465695858,0.0013309054775163531,-0.008517795242369175
18716677871387,0.25019407272338867,-9.77791976928711,0.42856210470199585,-0.01889885775744915,-0.0037265352439135313,-0.013309055007994175
18716679108550,0.23702597618103027,-9.806650161743164,0.41060560941696167,-0.0162370465695858,-0.0037265352439135313,-0.010114881210029125
18716680345750,0.19393034279346466,-9.789891242980957,0.41539400815963745,-0.0181003138422966,-0.0015970865497365594,-0.008251613937318325
18716681582912,0.22505496442317963,-9.81263542175293,0.4225766062736511,-0.014373779296875,0.0021294488105922937,-0.01224433071911335
18716682820112,0.20709845423698425,-9.815030097961426,0.4381389021873474,-0.008783976547420025,-0.0039927163161337376,-0.0063883461989462376
18716684057287,0.21547815203666687,-9.805453300476074,0.4489128291606903,-0.01224433071911335,-0.004791259765625,-0.00692070834338665
18716685294437,0.21787235140800476,-9.783905029296875,0.4225766062736511,-0.013042873702943325,-0.0010647244052961469,-0.0114457868039608
18716686531637,0.2190694510936737,-9.799468040466309,0.4596867263317108,-0.007985432632267475,0.0029279920272529125,-0.0053236219100654125
18716687768812,0.243011474609375,-9.744400978088379,0.44173023104667664,-0.0063883461989462376,-0.0007985432748682797,-0.00931633822619915
18716689006000,0.21428105235099792,-9.744400978088379,0.4357447028160095,-0.010913425125181675,0.0,-0.0018632676219567657
18716690243175,0.243011474609375,-9.770737648010254,0.4141969084739685,-0.00931633822619915,-0.0007985432748682797,-0.0026618109550327063
18716691480350,0.19033904373645782,-9.81024169921875,0.4465186297893524,-0.007985432632267475,-0.0002661811013240367,-0.0066545275039970875
18716692717562,0.23343466222286224,-9.797073364257812,0.42856210470199585,-0.008783976547420025,-0.0018632676219567657,-0.0053236219100654125
18716693954712,0.23582887649536133,-9.770737648010254,0.40701428055763245,-0.010913425125181675,-0.0005323622026480734,-0.0063883461989462376
18716695191900,0.23343466222286224,-9.795876502990723,0.4513070285320282,-0.01117960549890995,-0.004791259765625,-0.0021294488105922937
18716696429075,0.2801215946674347,-9.774328231811523,0.40701428055763245,-0.010647243820130825,-0.0026618109550327063,-0.005057440605014563
18716697666275,0.2322375625371933,-9.792284965515137,0.44532153010368347,-0.0071868896484375,-0.0015970865497365594,-0.00452507846057415
18716698903437,0.2645592987537384,-9.767146110534668,0.42018240690231323,-0.0015970865497365594,-0.0023956298828125,-0.004791259765625
18716700140625,0.24181437492370605,-9.75158405303955,0.45010992884635925,-0.0010647244052961469,-0.0013309054775163531,-0.006122165359556675
18716701377812,0.2322375625371933,-9.785102844238281,0.4752490520477295,-0.0002661811013240367,-0.0018632676219567657,-0.005589802749454975
18716702614975,0.2621650993824005,-9.767146110534668,0.39145198464393616,-0.0013309054775163531,-0.0021294488105922937,-0.0066545275039970875
18716703852150,0.23822307586669922,-9.763554573059082,0.44532153010368347,-0.00452507846057415,-0.0013309054775163531,-0.006122165359556675
18716705089325,0.2406172752380371,-9.758766174316406,0.4465186297893524,-0.0031941730994731188,0.0,-0.0063883461989462376
18716706326525,0.2322375625371933,-9.801861763000488,0.4429273307323456,0.0007985432748682797,-0.0002661811013240367,-0.007453070487827063
18716707563700,0.26815059781074524,-9.758766174316406,0.4920084476470947,0.0037265352439135313,-0.0005323622026480734,-0.006122165359556675
18716708800875,0.2561795711517334,-9.803058624267578,0.4513070285320282,0.0023956298828125,-0.0039927163161337376,-0.005589802749454975
18716710038062,0.21308395266532898,-9.773131370544434,0.4537012279033661,0.0002661811013240367,-0.0007985432748682797,-0.005855984054505825
18716711275250,0.2513911724090576,-9.75397777557373,0.4572925269603729,0.0026618109550327063,0.0002661811013240367,-0.0053236219100654125
18716712512412,0.2693476974964142,-9.77552604675293,0.4405331015586853,0.0026618109550327063,-0.0002661811013240367,-0.0031941730994731188
18716713749612,0.25258827209472656,-9.77552604675293,0.45250412821769714,0.0023956298828125,-0.0013309054775163531,-0.005057440605014563
18716714986775,0.2537853717803955,-9.765949249267578,0.4405331015586853,0.0053236219100654125,-0.007453070487827063,-0.005855984054505825
18716716223962,0.2645592987537384,-9.773131370544434,0.4213795065879822,0.0077192517928779125,-0.00452507846057415,-0.003460354171693325
18716717461137,0.27054479718208313,-9.80904483795166,0.4058171808719635,0.015438503585755825,0.0029279920272529125,-0.0071868896484375
18716718698337,0.28131869435310364,-9.780314445495605,0.46567222476005554,0.0090501569211483,0.0023956298828125,-0.0066545275039970875
18716719935500,0.21787235140800476,-9.774328231811523,0.4776432514190674,0.007453070487827063,-0.0007985432748682797,-0.007453070487827063
18716721172687,0.2753331959247589,-9.773131370544434,0.4513070285320282,0.00692070834338665,-0.0018632676219567657,-0.010647243820130825
18716722409862,0.2645592987537384,-9.764751434326172,0.45489832758903503,0.0066545275039970875,-0.0010647244052961469,-0.004791259765625
18716723647037,0.23702597618103027,-9.767146110534668,0.4405331015586853,0.008517795242369175,0.0026618109550327063,-0.0071868896484375
18716724884237,0.2932897210121155,-9.764751434326172,0.5303156971931458,0.0037265352439135313,-0.0023956298828125,-0.00931633822619915
18716726121425,0.25258827209472656,-9.794679641723633,0.45848962664604187,0.01117960549890995,-0.00452507846057415,-0.007453070487827063
18716727358575,0.2214636653661728,-9.750386238098145,0.42856210470199585,0.01410759799182415,0.0005323622026480734,-0.0053236219100654125
18716728595775,0.25498247146606445,-9.75158405303955,0.456095427274704,0.008783976547420025,0.0010647244052961469,-0.0077192517928779125
18716729832962,0.26336219906806946,-9.728838920593262,0.46567222476005554,0.010381062515079975,-0.003460354171693325,-0.007453070487827063
18716731070137,0.2597709000110626,-9.768342971801758,0.4082113802433014,0.01171196810901165,-0.0023956298828125,-0.005855984054505825
18716732307325,0.2885012924671173,-9.734824180603027,0.4141969084739685,0.01357523538172245,-0.0029279920272529125,-0.006122165359556675
18716733544487,0.2669534981250763,-9.758766174316406,0.4345476031303406,0.01463996060192585,-0.0037265352439135313,-0.008517795242369175
18716734781662,0.2537853717803955,-9.749189376831055,0.4381389021873474,0.015438503585755825,-0.0013309054775163531,-0.012510511092841625
18716736018862,0.2753331959247589,-9.739612579345703,0.44771572947502136,0.01357523538172245,-0.0018632676219567657,-0.010647243820130825
18716737256037,0.24779987335205078,-9.77552604675293,0.46327802538871765,0.01650322787463665,-0.007453070487827063,-0.0090501569211483
18716738493212,0.2597709000110626,-9.757569313049316,0.41778820753097534,0.01943122036755085,-0.00692070834338665,-0.0066545275039970875
18716739730387,0.24899697303771973,-9.77552604675293,0.45250412821769714,0.0186326764523983,-0.008251613937318325,-0.01117960549890995
18716740967575,0.2561795711517334,-9.77672290802002,0.4321534037590027,0.01597086526453495,-0.005057440605014563,-0.012510511092841625
18716742204762,0.28371289372444153,-9.803058624267578,0.4513070285320282,0.01597086526453495,-0.00452507846057415,-0.00931633822619915
18716743441950,0.28371289372444153,-9.767146110534668,0.44173023104667664,0.01996358297765255,-0.0031941730994731188,-0.01117960549890995
18716744679112,0.2801215946674347,-9.825803756713867,0.44771572947502136,0.01889885775744915,-0.0042588976211845875,-0.01117960549890995
18716745916300,0.2801215946674347,-9.800664901733398,0.45250412821769714,0.02262539230287075,-0.005855984054505825,-0.007985432632267475
18716747153487,0.26096799969673157,-9.80904483795166,0.47165775299072266,0.02076212503015995,-0.01117960549890995,-0.0053236219100654125
18716748390650,0.2561795711517334,-9.771934509277344,0.3998316824436188,0.0247548408806324,-0.008517795242369175,-0.005589802749454975
18716749627825,0.27892449498176575,-9.782708168029785,0.46088382601737976,0.0210283063352108,-0.003460354171693325,-0.007985432632267475
18716750865012,0.27413609623908997,-9.771934509277344,0.5207388997077942,0.02076212503015995,-0.0039927163161337376,-0.007985432632267475
18716752102187,0.26096799969673157,-9.768342971801758,0.45010992884635925,0.0223592109978199,-0.003460354171693325,-0.0042588976211845875
18716753339375,0.27653029561042786,-9.783905029296875,0.4572925269603729,0.02315775491297245,-0.0053236219100654125,-0.008783976547420025
18716754576550,0.28131869435310364,-9.824606895446777,0.4537012279033661,0.0210283063352108,-0.007985432632267475,-0.00692070834338665
18716755813737,0.28131869435310364,-9.822212219238281,0.46806642413139343,0.02502102218568325,-0.0090501569211483,-0.005855984054505825
18716757050925,0.24660277366638184,-9.829395294189453,0.4034229815006256,0.02874755859375,-0.008517795242369175,-0.008517795242369175
18716758288100,0.2346317619085312,-9.828198432922363,0.46088382601737976,0.0228915736079216,-0.008251613937318325,-0.0037265352439135313
18716759525275,0.2932897210121155,-9.81143856048584,0.4345476031303406,0.02741665206849575,-0.014373779296875,-0.0026618109550327063
18716760762450,0.2513911724090576,-9.821015357971191,0.4596867263317108,0.0306108258664608,-0.01171196810901165,-0.005057440605014563
18716761999637,0.2621650993824005,-9.781511306762695,0.42856210470199585,0.02794901467859745,-0.01171196810901165,0.0005323622026480734
18716763236812,0.25019407272338867,-9.831789016723633,0.4596867263317108,0.0247548408806324,-0.0077192517928779125,-0.0002661811013240367
18716764473987,0.2621650993824005,-9.81024169921875,0.4345476031303406,0.02874755859375,-0.00984870083630085,0.0015970865497365594
18716765711187,0.2885012924671173,-9.830592155456543,0.4728548526763916,0.0252872034907341,-0.01463996060192585,-0.0007985432748682797
18716766948362,0.2537853717803955,-9.823410034179688,0.4405331015586853,0.0295461006462574,-0.0119781494140625,-0.0013309054775163531
18716768185525,0.29568392038345337,-9.795876502990723,0.4644751250743866,0.03087700717151165,-0.0162370465695858,-0.0023956298828125
18716769422725,0.26815059781074524,-9.835380554199219,0.47405195236206055,0.03034464456140995,-0.01410759799182415,-0.003460354171693325
18716770659887,0.27653029561042786,-9.823410034179688,0.4225766062736511,0.0268842913210392,-0.012776692397892475,-0.0018632676219567657
18716771897075,0.2585738003253937,-9.817423820495605,0.4704606235027313,0.02741665206849575,-0.0119781494140625,-0.0023956298828125
18716773134275,0.28730419278144836,-9.832986831665039,0.46806642413139343,0.0276828333735466,-0.010381062515079975,-0.0021294488105922937
18716774371437,0.2406172752380371,-9.819818496704102,0.4668693244457245,0.02741665206849575,-0.01224433071911335,-0.003460354171693325
18716775608612,0.2585738003253937,-9.832986831665039,0.44173023104667664,0.0282151959836483,-0.013042873702943325,0.0005323622026480734
18716776845812,0.27892449498176575,-9.805453300476074,0.4620809257030487,0.0263519287109375,-0.01171196810901165,0.0002661811013240367
18716778082975,0.25498247146606445,-9.815030097961426,0.4345476031303406,0.0276828333735466,-0.0119781494140625,0.0018632676219567657
18716779320175,0.2885012924671173,-9.77552604675293,0.4884171485900879,0.03087700717151165,-0.01650322787463665,-0.0018632676219567657
18716780557350,0.24420857429504395,-9.838972091674805,0.5195418000221252,0.02848137728869915,-0.014373779296875,0.0021294488105922937
18716781794512,0.27413609623908997,-9.805453300476074,0.4776432514190674,0.0244886614382267,-0.01357523538172245,0.0042588976211845875
18716783031712,0.2585738003253937,-9.817423820495605,0.43933600187301636,0.0282151959836483,-0.0228915736079216,0.003460354171693325
18716784268900,0.2406172752380371,-9.825803756713867,0.4620809257030487,0.02794901467859745,-0.0167694091796875,-0.0007985432748682797
18716785506062,0.28131869435310364,-9.831789016723633,0.5123591423034668,0.0276828333735466,-0.01117960549890995,0.0002661811013240367
18716786743250,0.27054479718208313,-9.795876502990723,0.49799394607543945,0.02848137728869915,-0.0162370465695858,0.0029279920272529125
18716787980425,0.26815059781074524,-9.803058624267578,0.4776432514190674,0.03034464456140995,-0.0167694091796875,0.0042588976211845875
18716789217612,0.2597709000110626,-9.854534149169922,0.5003881454467773,0.0375315360724926,-0.01996358297765255,0.005589802749454975
18716790454787,0.27413609623908997,-9.855731010437012,0.5063736438751221,0.0354020856320858,-0.01996358297765255,0.0010647244052961469
18716791691962,0.25258827209472656,-9.854534149169922,0.49559974670410156,0.0319417305290699,-0.0191650390625,0.0013309054775163531
18716792929150,0.2513911724090576,-9.862914085388184,0.456095427274704,0.0268842913210392,-0.0220930315554142,0.0015970865497365594
18716794166325,0.2753331959247589,-9.885659217834473,0.4776432514190674,0.0282151959836483,-0.023956298828125,0.010114881210029125
18716795403512,0.2693476974964142,-9.859322547912598,0.48961424827575684,0.033272635191679,-0.01943122036755085,0.00452507846057415
18716796640675,0.22266076505184174,-9.861717224121094,0.47165775299072266,0.0348697230219841,-0.0191650390625,0.0039927163161337376
18716797877900,0.21188685297966003,-9.861717224121094,0.4944026470184326,0.02981228195130825,-0.02022976242005825,0.0021294488105922937
18716799115050,0.243011474609375,-9.883264541625977,0.5063736438751221,0.02981228195130825,-0.0220930315554142,0.0037265352439135313
18716800352237,0.2621650993824005,-9.864110946655273,0.49559974670410156,0.02981228195130825,-0.02422248013317585,0.005589802749454975
18716801589425,0.25019407272338867,-9.861717224121094,0.4812345504760742,0.02502102218568325,-0.0234239362180233,0.0015970865497365594
18716802826600,0.272938996553421,-9.859322547912598,0.4908113479614258,0.02555338479578495,-0.02422248013317585,0.0018632676219567657
18716804063787,0.28730419278144836,-9.883264541625977,0.49320554733276367,0.0292799212038517,-0.023956298828125,0.0031941730994731188
18716805300962,0.25258827209472656,-9.919178009033203,0.46327802538871765,0.02502102218568325,-0.0258195661008358,0.0031941730994731188
18716806538125,0.27413609623908997,-9.894038200378418,0.49320554733276367,0.03087700717151165,-0.02369011752307415,-0.0013309054775163531
18716807775312,0.2537853717803955,-9.882067680358887,0.4908113479614258,0.0356682650744915,-0.0228915736079216,0.0015970865497365594
18716809012500,0.2944868206977844,-9.858125686645508,0.4692635238170624,0.02741665206849575,-0.0244886614382267,0.0039927163161337376
18716810249650,0.2801215946674347,-9.84376049041748,0.5111620426177979,0.0271504707634449,-0.0268842913210392,0.0037265352439135313
18716811486850,0.26096799969673157,-9.852140426635742,0.4596867263317108,0.03087700717151165,-0.02369011752307415,0.007985432632267475
18716812724037,0.26096799969673157,-9.883264541625977,0.4967968463897705,0.02848137728869915,-0.02981228195130825,0.0010647244052961469
18716813961212,0.25258827209472656,-9.852140426635742,0.4967968463897705,0.0282151959836483,-0.0244886614382267,0.0031941730994731188
18716815198400,0.2825157940387726,-9.862914085388184,0.49320554733276367,0.02874755859375,-0.0210283063352108,0.0037265352439135313
18716816435587,0.21547815203666687,-9.874884605407715,0.4920084476470947,0.0306108258664608,-0.02076212503015995,0.0007985432748682797
18716817672737,0.2537853717803955,-9.816226959228516,0.4812345504760742,0.02794901467859745,-0.0258195661008358,0.00984870083630085
18716818909950,0.25498247146606445,-9.861717224121094,0.5039794445037842,0.0311431884765625,-0.0252872034907341,0.008517795242369175
18716820147125,0.2621650993824005,-9.876082420349121,0.524330198764801,0.0292799212038517,-0.02555338479578495,0.005589802749454975
18716821384300,0.27892449498176575,-9.888052940368652,0.4812345504760742,0.02661811001598835,-0.0244886614382267,0.0013309054775163531
18716822621475,0.23582887649536133,-9.849745750427246,0.4967968463897705,0.03034464456140995,-0.02874755859375,-0.0015970865497365594
18716823858650,0.26096799969673157,-9.824606895446777,0.49320554733276367,0.0314093679189682,-0.02981228195130825,-0.0021294488105922937
18716825095837,0.25498247146606445,-9.801861763000488,0.5171476006507874,0.0324740931391716,-0.0247548408806324,-0.0002661811013240367
18716826333025,0.243011474609375,-9.856928825378418,0.5159504413604736,0.0311431884765625,-0.02741665206849575,-0.0023956298828125
18716827570187,0.25737667083740234,-9.865307807922363,0.44771572947502136,0.0271504707634449,-0.02555338479578495,-0.0029279920272529125
18716828807400,0.2537853717803955,-9.883264541625977,0.4836287498474121,0.0258195661008358,-0.02422248013317585,-0.0037265352439135313
18716830044562,0.22505496442317963,-9.829395294189453,0.4884171485900879,0.0295461006462574,-0.0234239362180233,0.0018632676219567657
18716831281725,0.2537853717803955,-9.885659217834473,0.5003881454467773,0.033272635191679,-0.02608574740588665,0.0002661811013240367
18716832518912,0.21308395266532898,-9.873687744140625,0.49799394607543945,0.0311431884765625,-0.0292799212038517,-0.0010647244052961469
18716833756087,0.23942017555236816,-9.849745750427246,0.49559974670410156,0.02901373989880085,-0.02262539230287075,-0.0026618109550327063
18716834993287,0.2346317619085312,-9.870096206665039,0.5039794445037842,0.0306108258664608,-0.0215606689453125,-0.0071868896484375
18716836230462,0.24899697303771973,-9.84615421295166,0.5315127968788147,0.0354020856320858,-0.0252872034907341,-0.003460354171693325
18716837467637,0.23702597618103027,-9.816226959228516,0.524330198764801,0.0314093679189682,-0.0247548408806324,-0.0005323622026480734
18716838704825,0.2322375625371933,-9.815030097961426,0.47405195236206055,0.0324740931391716,-0.02422248013317585,-0.0039927163161337376
18716839942012,0.24420857429504395,-9.861717224121094,0.5279214978218079,0.02981228195130825,-0.0196974016726017,-0.006122165359556675
18716841179187,0.24779987335205078,-9.821015357971191,0.4920084476470947,0.02794901467859745,-0.0244886614382267,-0.006122165359556675
18716842416375,0.20470423996448517,-9.819818496704102,0.4752490520477295,0.0314093679189682,-0.02661811001598835,-0.0042588976211845875
18716843653550,0.24181437492370605,-9.864110946655273,0.5003881454467773,0.0324740931391716,-0.02076212503015995,-0.006122165359556675
18716844890712,0.25019407272338867,-9.848548889160156,0.4944026470184326,0.0314093679189682,-0.0220930315554142,-0.0053236219100654125
18716846127900,0.20231004059314728,-9.834183692932129,0.5997475385665894,0.0311431884765625,-0.02022976242005825,-0.003460354171693325
18716847365087,0.2298433631658554,-9.873687744140625,0.5315127968788147,0.0282151959836483,-0.0215606689453125,-0.0066545275039970875
18716848602250,0.2190694510936737,-9.86650562286377,0.5770025849342346,0.0322079136967659,-0.02422248013317585,-0.005855984054505825
18716849839437,0.23343466222286224,-9.870096206665039,0.5135562419891357,0.0282151959836483,-0.0220930315554142,-0.0066545275039970875
18716851076637,0.2190694510936737,-9.874884605407715,0.45489832758903503,0.0338049978017807,-0.02076212503015995,-0.0039927163161337376
18716852313812,0.19273324310779572,-9.84615421295166,0.5147533416748047,0.0346035435795784,-0.02022976242005825,-0.005057440605014563
18716853550987,0.1975216418504715,-9.830592155456543,0.5171476006507874,0.0327402763068676,-0.0223592109978199,-0.0090501569211483
18716854788175,0.243011474609375,-9.849745750427246,0.5015852451324463,0.0314093679189682,-0.02129448764026165,-0.0114457868039608
18716856025337,0.23582887649536133,-9.840168952941895,0.5147533416748047,0.03034464456140995,-0.02129448764026165,-0.004791259765625
18716857262537,0.22864626348018646,-9.848548889160156,0.5494692921638489,0.0314093679189682,-0.023956298828125,-0.005057440605014563
18716858499712,0.22266076505184174,-9.871294021606445,0.5351040959358215,0.0346035435795784,-0.02076212503015995,-0.010114881210029125
18716859736887,0.22744916379451752,-9.807847023010254,0.5363011956214905,0.033538818359375,-0.0215606689453125,-0.00958251953125
18716860974075,0.20231004059314728,-9.876082420349121,0.5446808934211731,0.0300784632563591,-0.02422248013317585,-0.0042588976211845875
18716862211250,0.19871874153614044,-9.86650562286377,0.48602294921875,0.0324740931391716,-0.0268842913210392,-0.005855984054505825
18716863448437,0.19273324310779572,-9.829395294189453,0.5554547905921936,0.0306108258664608,-0.0244886614382267,-0.0114457868039608
18716864685600,0.19871874153614044,-9.84495735168457,0.5722141861915588,0.0343373604118824,-0.0223592109978199,-0.00984870083630085
18716865922787,0.20470423996448517,-9.871294021606445,0.50876784324646,0.0327402763068676,-0.023956298828125,-0.0053236219100654125
18716867159962,0.21308395266532898,-9.874884605407715,0.5662286877632141,0.0340711809694767,-0.02076212503015995,-0.010647243820130825
18716868397175,0.19871874153614044,-9.86650562286377,0.5207388997077942,0.0300784632563591,-0.015172322280704975,-0.010114881210029125
18716869634350,0.22505496442317963,-9.837775230407715,0.5231330990791321,0.0324740931391716,-0.02182685025036335,-0.005589802749454975
18716870871537,0.2346317619085312,-9.837775230407715,0.5207388997077942,0.033538818359375,-0.02129448764026165,-0.008783976547420025
18716872108700,0.2322375625371933,-9.861717224121094,0.5171476006507874,0.0316755510866642,-0.0220930315554142,-0.008251613937318325
18716873345875,0.21308395266532898,-9.86770248413086,0.5386953949928284,0.0362006276845932,-0.0247548408806324,-0.007453070487827063
18716874583050,0.22625206410884857,-9.847352027893066,0.5171476006507874,0.0375315360724926,-0.0215606689453125,-0.008251613937318325
18716875820237,0.22385786473751068,-9.862914085388184,0.5219359993934631,0.0316755510866642,-0.0191650390625,-0.00958251953125
18716877057425,0.20949265360832214,-9.871294021606445,0.5614402890205383,0.0330064557492733,-0.02129448764026165,-0.008517795242369175
18716878294612,0.21547815203666687,-9.87967300415039,0.547075092792511,0.0300784632563591,-0.02262539230287075,-0.01171196810901165
18716879531787,0.25737667083740234,-9.815030097961426,0.5195418000221252,0.0338049978017807,-0.01889885775744915,-0.0119781494140625
18716880768975,0.21787235140800476,-9.850942611694336,0.5566518902778625,0.0351359061896801,-0.01996358297765255,-0.00958251953125
18716882006137,0.2561795711517334,-9.877279281616211,0.5279214978218079,0.0271504707634449,-0.01996358297765255,-0.0138414166867733
18716883243325,0.23822307586669922,-9.889249801635742,0.5231330990791321,0.0311431884765625,-0.02129448764026165,-0.012510511092841625
18716884480500,0.2106897532939911,-9.838972091674805,0.4944026470184326,0.0327402763068676,-0.01756795309484005,-0.010913425125181675
18716885717700,0.2298433631658554,-9.870096206665039,0.5398924946784973,0.0330064557492733,-0.0162370465695858,-0.008783976547420025
18716886954875,0.30047231912612915,-9.84495735168457,0.5734112858772278,0.0316755510866642,-0.01889885775744915,-0.01224433071911335
18716888192037,0.2621650993824005,-9.852140426635742,0.5973533391952515,0.0314093679189682,-0.0119781494140625,-0.014373779296875
18716889429225,0.25498247146606445,-9.853337287902832,0.5602431893348694,0.033272635191679,-0.0157046839594841,-0.00984870083630085
18716890666425,0.17477671802043915,-9.864110946655273,0.5434837937355042,0.0338049978017807,-0.0173017717897892,-0.013042873702943325
18716891903587,0.18794482946395874,-9.889249801635742,0.5183447003364563,0.0300784632563591,-0.01889885775744915,-0.01410759799182415
18716893140775,0.20350714027881622,-9.892841339111328,0.46327802538871765,0.033272635191679,-0.01224433071911335,-0.010381062515079975
18716894377962,0.21787235140800476,-9.841365814208984,0.524330198764801,0.0314093679189682,-0.008517795242369175,-0.010913425125181675
18716895615125,0.20470423996448517,-9.84615421295166,0.5027823448181152,0.02794901467859745,-0.014373779296875,-0.008783976547420025
18716896852312,0.16519992053508759,-9.90122127532959,0.545877993106842,0.0306108258664608,-0.0162370465695858,-0.00958251953125
18716898089500,0.20709845423698425,-9.880870819091797,0.569819986820221,0.0346035435795784,-0.0196974016726017,-0.010114881210029125
18716899326675,0.2106897532939911,-9.86650562286377,0.5231330990791321,0.0316755510866642,-0.010913425125181675,-0.01224433071911335
18716900563850,0.22625206410884857,-9.862914085388184,0.4991910457611084,0.0244886614382267,-0.01171196810901165,-0.01357523538172245
18716901801025,0.1735796183347702,-9.876082420349121,0.524330198764801,0.02901373989880085,-0.01943122036755085,-0.007985432632267475
18716903038212,0.2585738003253937,-9.888052940368652,0.52552729845047,0.0220930315554142,-0.0138414166867733,-0.013042873702943325
18716904275387,0.2346317619085312,-9.859322547912598,0.5530605912208557,0.0263519287109375,-0.010381062515079975,-0.01703559048473835
18716905512562,0.16400282084941864,-9.860519409179688,0.5315127968788147,0.02741665206849575,-0.01597086526453495,-0.015438503585755825
18716906749762,0.2298433631658554,-9.870096206665039,0.5099649429321289,0.02262539230287075,-0.010647243820130825,-0.01783413253724575
18716907986925,0.22385786473751068,-9.847352027893066,0.5195418000221252,0.02741665206849575,-0.0114457868039608,-0.01889885775744915
18716909224112,0.20949265360832214,-9.862914085388184,0.4908113479614258,0.0276828333735466,-0.01463996060192585,-0.01650322787463665
18716910461287,0.19033904373645782,-9.860519409179688,0.5195418000221252,0.02555338479578495,-0.0114457868039608,-0.01597086526453495
18716911698475,0.18914192914962769,-9.87967300415039,0.5446808934211731,0.023956298828125,-0.013309055007994175,-0.013309055007994175
18716912935662,0.22864626348018646,-9.86770248413086,0.5482721924781799,0.02422248013317585,-0.010381062515079975,-0.01171196810901165
18716914172837,0.21787235140800476,-9.86889934539795,0.5542576909065247,0.02555338479578495,-0.007453070487827063,-0.0090501569211483
18716915410037,0.20709845423698425,-9.850942611694336,0.4944026470184326,0.0282151959836483,-0.00984870083630085,-0.01117960549890995
18716916647200,0.22505496442317963,-9.862914085388184,0.5147533416748047,0.0247548408806324,-0.010647243820130825,-0.010381062515079975
18716917884375,0.19273324310779572,-9.84256362915039,0.5267243981361389,0.0210283063352108,-0.0031941730994731188,-0.012510511092841625
18716919121562,0.19871874153614044,-9.922768592834473,0.5386953949928284,0.01996358297765255,-0.0071868896484375,-0.010913425125181675
18716920358737,0.1951274424791336,-9.889249801635742,0.4800374507904053,0.02369011752307415,-0.010913425125181675,-0.0066545275039970875
18716921595925,0.19153614342212677,-9.841365814208984,0.5482721924781799,0.0234239362180233,-0.01597086526453495,-0.0090501569211483
18716922833100,0.20350714027881622,-9.850942611694336,0.5063736438751221,0.0167694091796875,-0.010381062515079975,-0.008517795242369175
18716924070275,0.20949265360832214,-9.873687744140625,0.5231330990791321,0.02022976242005825,-0.008783976547420025,-0.013042873702943325
18716925307462,0.22625206410884857,-9.841365814208984,0.507570743560791,0.0196974016726017,-0.00931633822619915,-0.0007985432748682797
18716926544637,0.2322375625371933,-9.874884605407715,0.4836287498474121,0.02315775491297245,-0.008783976547420025,-0.005855984054505825
18716927781837,0.2106897532939911,-9.871294021606445,0.5195418000221252,0.0282151959836483,-0.00958251953125,-0.007453070487827063
18716929019000,0.20111294090747833,-9.888052940368652,0.5410895943641663,0.0268842913210392,-0.0042588976211845875,-0.0042588976211845875
18716930256162,0.2537853717803955,-9.888052940368652,0.5542576909065247,0.023956298828125,-0.005589802749454975,-0.003460354171693325
18716931493362,0.26336219906806946,-9.896432876586914,0.5135562419891357,0.02022976242005825,-0.005855984054505825,-0.007453070487827063
18716932730550,0.2190694510936737,-9.925163269042969,0.5674257874488831,0.01943122036755085,-0.0063883461989462376,-0.010114881210029125
18716933967725,0.2106897532939911,-9.889249801635742,0.5123591423034668,0.0234239362180233,-0.0026618109550327063,-0.005057440605014563
18716935204912,0.2406172752380371,-9.877279281616211,0.569819986820221,0.02129448764026165,-0.0013309054775163531,-0.0023956298828125
18716936442087,0.23702597618103027,-9.874884605407715,0.5003881454467773,0.012776692397892475,-0.0063883461989462376,-0.0018632676219567657
18716937679275,0.24420857429504395,-9.876082420349121,0.5351040959358215,0.0167694091796875,-0.0031941730994731188,-0.005057440605014563
18716938916437,0.2322375625371933,-9.862914085388184,0.5315127968788147,0.01224433071911335,-0.0005323622026480734,-0.008517795242369175
18716940153625,0.25258827209472656,-9.874884605407715,0.5315127968788147,0.010647243820130825,-0.0023956298828125,-0.0071868896484375
18716941390800,0.21787235140800476,-9.858125686645508,0.5159504413604736,0.01836649514734745,-0.0037265352439135313,-0.0042588976211845875
18716942628000,0.243011474609375,-9.850942611694336,0.5446808934211731,0.014373779296875,-0.003460354171693325,-0.0066545275039970875
18716943865162,0.1867477297782898,-9.860519409179688,0.5291185975074768,0.015438503585755825,-0.01171196810901165,-0.0090501569211483
18716945102362,0.22864626348018646,-9.886856079101562,0.4884171485900879,0.01756795309484005,-0.0042588976211845875,-0.00931633822619915
18716946339537,0.23702597618103027,-9.909601211547852,0.5422866940498352,0.01597086526453495,-0.0015970865497365594,-0.004791259765625
18716947576712,0.2561795711517334,-9.911994934082031,0.5386953949928284,0.01171196810901165,-0.007453070487827063,-0.0071868896484375
18716948813900,0.27054479718208313,-9.856928825378418,0.524330198764801,0.01171196810901165,-0.003460354171693325,-0.00931633822619915
18716950051087,0.23822307586669922,-9.877279281616211,0.507570743560791,0.010647243820130825,-0.00452507846057415,-0.008517795242369175
18716951288250,0.22385786473751068,-9.852140426635742,0.5051765441894531,0.008251613937318325,-0.005589802749454975,-0.0090501569211483
18716952525450,0.2537853717803955,-9.874884605407715,0.5267243981361389,0.0119781494140625,-0.0029279920272529125,-0.0077192517928779125
18716953762625,0.23942017555236816,-9.8784761428833,0.5410895943641663,0.00931633822619915,0.0005323622026480734,-0.007453070487827063
18716954999800,0.20709845423698425,-9.859322547912598,0.5231330990791321,0.010647243820130825,-0.0015970865497365594,-0.0063883461989462376
18716956236975,0.27413609623908997,-9.862914085388184,0.5674257874488831,0.01410759799182415,-0.00692070834338665,-0.0026618109550327063
18716957474150,0.22864626348018646,-9.895236015319824,0.5590460896492004,0.014906140975654125,-0.0063883461989462376,-0.008251613937318325
18716958711337,0.25498247146606445,-9.890447616577148,0.5446808934211731,0.007985432632267475,-0.0071868896484375,-0.005057440605014563
18716959948537,0.2106897532939911,-9.896432876586914,0.5183447003364563,0.010381062515079975,-0.0039927163161337376,-0.0021294488105922937
18716961185687,0.2513911724090576,-9.8784761428833,0.5554547905921936,0.01357523538172245,0.0018632676219567657,-0.003460354171693325
18716962422875,0.2645592987537384,-9.864110946655273,0.5147533416748047,0.008783976547420025,0.0002661811013240367,-0.005855984054505825
18716963660062,0.2346317619085312,-9.883264541625977,0.5410895943641663,0.007453070487827063,-0.003460354171693325,0.0
18716964897250,0.25019407272338867,-9.909601211547852,0.5710170865058899,0.0071868896484375,0.0021294488105922937,-0.004791259765625
18716966134425,0.2322375625371933,-9.913191795349121,0.5207388997077942,0.005855984054505825,-0.0005323622026480734,-0.0063883461989462376
18716967371625,0.2861070930957794,-9.908403396606445,0.5446808934211731,0.006122165359556675,-0.0029279920272529125,-0.005057440605014563
18716968608787,0.26815059781074524,-9.86650562286377,0.52552729845047,0.00958251953125,-0.0002661811013240367,-0.005589802749454975
18716969845962,0.24899697303771973,-9.872490882873535,0.5123591423034668,0.010381062515079975,0.0,-0.0031941730994731188
18716971083162,0.2190694510936737,-9.888052940368652,0.5422866940498352,0.0090501569211483,-0.0010647244052961469,-0.0053236219100654125
18716972320337,0.2777273952960968,-9.853337287902832,0.5518634915351868,0.00452507846057415,-0.0007985432748682797,-0.005855984054505825
18716973557525,0.2621650993824005,-9.861717224121094,0.5003881454467773,0.0042588976211845875,-0.0026618109550327063,-0.0077192517928779125
18716974794687,0.24779987335205078,-9.858125686645508,0.48482584953308105,0.0026618109550327063,-0.0023956298828125,-0.0066545275039970875
18716976031875,0.27054479718208313,-9.896432876586914,0.5219359993934631,0.0023956298828125,-0.0015970865497365594,-0.006122165359556675
18716977269062,0.26575639843940735,-9.865307807922363,0.5315127968788147,0.0026618109550327063,-0.0005323622026480734,-0.0015970865497365594
18716978506237,0.27413609623908997,-9.84376049041748,0.507570743560791,0.0007985432748682797,0.0005323622026480734,-0.008517795242369175
18716979743400,0.29568392038345337,-9.838972091674805,0.5710170865058899,0.0007985432748682797,0.0013309054775163531,-0.00931633822619915
18716980980587,0.24660277366638184,-9.853337287902832,0.5195418000221252,0.003460354171693325,0.0,-0.0039927163161337376
18716982217775,0.272938996553421,-9.837775230407715,0.545877993106842,0.00452507846057415,0.0,-0.0023956298828125
18716983454962,0.243011474609375,-9.84376049041748,0.5506663918495178,0.005589802749454975,-0.0029279920272529125,-0.0021294488105922937
18716984692137,0.29568392038345337,-9.860519409179688,0.5015852451324463,0.005855984054505825,0.0026618109550327063,-0.0066545275039970875
18716985929325,0.30047231912612915,-9.835380554199219,0.5315127968788147,0.0063883461989462376,0.0013309054775163531,-0.00452507846057415
18716987166500,0.25019407272338867,-9.848548889160156,0.5351040959358215,0.010381062515079975,-0.0015970865497365594,-0.0013309054775163531
18716988403675,0.27054479718208313,-9.86650562286377,0.5291185975074768,0.00931633822619915,0.0023956298828125,-0.0005323622026480734
18716989640875,0.243011474609375,-9.840168952941895,0.5626373887062073,0.0042588976211845875,0.0021294488105922937,-0.0026618109550327063
18716990878050,0.25019407272338867,-9.827000617980957,0.5123591423034668,0.004791259765625,-0.0007985432748682797,0.0
18716992115225,0.24779987335205078,-9.798270225524902,0.545877993106842,0.00931633822619915,-0.0031941730994731188,0.0042588976211845875
18716993352387,0.3064578175544739,-9.827000617980957,0.5494692921638489,0.008517795242369175,0.0010647244052961469,-0.0015970865497365594
18716994589600,0.27054479718208313,-9.855731010437012,0.5267243981361389,0.0071868896484375,-0.0018632676219567657,0.0021294488105922937
18716995826737,0.2537853717803955,-9.84495735168457,0.5554547905921936,0.005057440605014563,-0.0042588976211845875,0.0021294488105922937
18716997063937,0.24181437492370605,-9.807847023010254,0.5841852426528931,0.00984870083630085,-0.0021294488105922937,0.0037265352439135313
18716998301137,0.28371289372444153,-9.827000617980957,0.5650315880775452,0.0090501569211483,-0.0002661811013240367,0.0071868896484375
18716999538287,0.2801215946674347,-9.799468040466309,0.547075092792511,0.0039927163161337376,0.0,0.0071868896484375
18717000775475,0.3124433159828186,-9.803058624267578,0.5219359993934631,0.0002661811013240367,-0.0037265352439135313,0.0066545275039970875
18717002012675,0.24779987335205078,-9.807847023010254,0.4836287498474121,0.00692070834338665,-0.0039927163161337376,0.0029279920272529125
18717003249837,0.26575639843940735,-9.835380554199219,0.5398924946784973,0.015172322280704975,0.0005323622026480734,0.003460354171693325
18717004487037,0.27413609623908997,-9.804256439208984,0.5123591423034668,0.01410759799182415,-0.0005323622026480734,0.008783976547420025
18717005724200,0.2669534981250763,-9.821015357971191,0.5231330990791321,0.013309055007994175,-0.0002661811013240367,0.006122165359556675
18717006961375,0.2861070930957794,-9.781511306762695,0.5650315880775452,0.012510511092841625,0.0005323622026480734,0.0026618109550327063
18717008198562,0.2669534981250763,-9.758766174316406,0.5841852426528931,0.012510511092841625,-0.0010647244052961469,0.008783976547420025
18717009435737,0.2849099934101105,-9.797073364257812,0.5614402890205383,0.012510511092841625,0.0031941730994731188,0.0090501569211483
18717010672925,0.29209262132644653,-9.799468040466309,0.50876784324646,0.0119781494140625,-0.0007985432748682797,0.0063883461989462376
18717011910125,0.24420857429504395,-9.829395294189453,0.5015852451324463,0.01171196810901165,0.0029279920272529125,0.0029279920272529125
18717013147300,0.2513911724090576,-9.818621635437012,0.5410895943641663,0.012510511092841625,0.0021294488105922937,0.008251613937318325
18717014384475,0.2645592987537384,-9.81024169921875,0.5638344883918762,0.014906140975654125,0.0029279920272529125,0.008517795242369175
18717015621650,0.2513911724090576,-9.824606895446777,0.5386953949928284,0.01597086526453495,-0.0007985432748682797,0.003460354171693325
18717016858825,0.22625206410884857,-9.836577415466309,0.5746083855628967,0.0196974016726017,-0.0007985432748682797,0.007985432632267475
18717018096012,0.23702597618103027,-9.84376049041748,0.5482721924781799,0.0167694091796875,-0.0018632676219567657,0.0066545275039970875
18717019333200,0.30047231912612915,-9.824606895446777,0.5351040959358215,0.0162370465695858,0.0021294488105922937,0.00692070834338665
18717020570375,0.24660277366638184,-9.81143856048584,0.5734112858772278,0.01783413253724575,0.0005323622026480734,0.00984870083630085
18717021807575,0.26336219906806946,-9.849745750427246,0.5434837937355042,0.0186326764523983,0.0007985432748682797,0.010381062515079975
18717023044725,0.2561795711517334,-9.806650161743164,0.545877993106842,0.0186326764523983,-0.0005323622026480734,0.010913425125181675
18717024281912,0.30526071786880493,-9.817423820495605,0.5422866940498352,0.02022976242005825,0.0,0.00931633822619915
18717025519112,0.29568392038345337,-9.849745750427246,0.5602431893348694,0.0186326764523983,-0.0007985432748682797,0.0066545275039970875
18717026756287,0.3124433159828186,-9.804256439208984,0.5363011956214905,0.02022976242005825,-0.0015970865497365594,0.008783976547420025
18717027993462,0.2908955216407776,-9.80904483795166,0.5758054852485657,0.01836649514734745,-0.0018632676219567657,0.0077192517928779125
18717029230650,0.26815059781074524,-9.803058624267578,0.524330198764801,0.01357523538172245,-0.004791259765625,0.01117960549890995
18717030467812,0.2513911724090576,-9.827000617980957,0.5327098965644836,0.01650322787463665,-0.005589802749454975,0.0063883461989462376
18717031705000,0.30526071786880493,-9.798270225524902,0.5339069962501526,0.0234239362180233,-0.0010647244052961469,0.00692070834338665
18717032942187,0.25737667083740234,-9.84256362915039,0.5877765417098999,0.0210283063352108,0.0007985432748682797,0.010913425125181675
18717034179375,0.2621650993824005,-9.807847023010254,0.5722141861915588,0.02422248013317585,-0.0031941730994731188,0.01171196810901165
18717035416562,0.2190694510936737,-9.807847023010254,0.5398924946784973,0.02076212503015995,-0.0031941730994731188,0.0090501569211483
18717036653725,0.2849099934101105,-9.827000617980957,0.5111620426177979,0.0223592109978199,-0.0042588976211845875,0.006122165359556675
18717037890912,0.28969842195510864,-9.818621635437012,0.5315127968788147,0.02502102218568325,-0.003460354171693325,0.008783976547420025
18717039128100,0.28730419278144836,-9.787496566772461,0.5327098965644836,0.0268842913210392,-0.005589802749454975,0.01463996060192585
18717040365262,0.2753331959247589,-9.838972091674805,0.545877993106842,0.02794901467859745,-0.008251613937318325,0.014373779296875
18717041602450,0.3100491166114807,-9.80904483795166,0.5231330990791321,0.02182685025036335,-0.0042588976211845875,0.013309055007994175
18717042839625,0.3256114423274994,-9.818621635437012,0.5267243981361389,0.0220930315554142,-0.006122165359556675,0.013042873702943325
18717044076812,0.31962594389915466,-9.832986831665039,0.5566518902778625,0.0268842913210392,-0.0037265352439135313,0.013309055007994175
18717045313987,0.2585738003253937,-9.838972091674805,0.5710170865058899,0.02555338479578495,-0.00452507846057415,0.010913425125181675
18717046551150,0.26815059781074524,-9.819818496704102,0.5422866940498352,0.02981228195130825,-0.0042588976211845875,0.0077192517928779125
18717047788362,0.2585738003253937,-9.794679641723633,0.5111620426177979,0.0258195661008358,-0.00452507846057415,0.008517795242369175
18717049025537,0.2346317619085312,-9.797073364257812,0.568622887134552,0.0247548408806324,0.0013309054775163531,0.00984870083630085
18717050262712,0.27054479718208313,-9.855731010437012,0.5327098965644836,0.0252872034907341,-0.0037265352439135313,0.0053236219100654125
18717051499912,0.26096799969673157,-9.832986831665039,0.5279214978218079,0.0234239362180233,-0.00452507846057415,0.0138414166867733
18717052737062,0.26096799969673157,-9.794679641723633,0.5351040959358215,0.023956298828125,-0.0039927163161337376,0.0167694091796875
18717053974275,0.23822307586669922,-9.836577415466309,0.5147533416748047,0.0263519287109375,-0.0013309054775163531,0.012776692397892475
18717055211425,0.24660277366638184,-9.84495735168457,0.545877993106842,0.023956298828125,-0.003460354171693325,0.008251613937318325
18717056448612,0.22625206410884857,-9.831789016723633,0.5638344883918762,0.02661811001598835,-0.0063883461989462376,0.00958251953125
18717057685812,0.25258827209472656,-9.834183692932129,0.5710170865058899,0.0276828333735466,-0.003460354171693325,0.0071868896484375
18717058922987,0.2777273952960968,-9.896432876586914,0.5159504413604736,0.02262539230287075,-0.008517795242369175,0.010381062515079975
18717060160162,0.2968810200691223,-9.849745750427246,0.524330198764801,0.0252872034907341,-0.00452507846057415,0.01650322787463665
18717061397325,0.2777273952960968,-9.836577415466309,0.5877765417098999,0.0268842913210392,-0.0010647244052961469,0.008251613937318325
18717062634537,0.21787235140800476,-9.829395294189453,0.5135562419891357,0.0210283063352108,-0.0042588976211845875,0.0071868896484375
18717063871725,0.24420857429504395,-9.86889934539795,0.5434837937355042,0.02502102218568325,-0.005589802749454975,0.00984870083630085
18717065108875,0.31603461503982544,-9.829395294189453,0.5829881429672241,0.02848137728869915,-0.0037265352439135313,0.013309055007994175
18717066346087,0.25019407272338867,-9.828198432922363,0.5506663918495178,0.0268842913210392,-0.00984870083630085,0.015438503585755825
18717067583250,0.26336219906806946,-9.889249801635742,0.5578489899635315,0.02741665206849575,-0.006122165359556675,0.012776692397892475
18717068820425,0.2669534981250763,-9.86770248413086,0.569819986820221,0.02422248013317585,-0.005057440605014563,0.006122165359556675
18717070057625,0.27653029561042786,-9.847352027893066,0.5315127968788147,0.01943122036755085,-0.005855984054505825,0.00984870083630085
18717071294800,0.243011474609375,-9.894038200378418,0.5027823448181152,0.02262539230287075,-0.00931633822619915,0.010913425125181675
18717072531987,0.23702597618103027,-9.84615421295166,0.5506663918495178,0.0268842913210392,-0.00984870083630085,0.014373779296875
18717073769162,0.23104046285152435,-9.910798072814941,0.5111620426177979,0.023956298828125,-0.008251613937318325,0.01410759799182415
18717075006337,0.2537853717803955,-9.865307807922363,0.5195418000221252,0.0196974016726017,-0.00931633822619915,0.008517795242369175
18717076243512,0.25737667083740234,-9.871294021606445,0.5159504413604736,0.0191650390625,-0.00692070834338665,0.01117960549890995
18717077480687,0.23343466222286224,-9.854534149169922,0.5398924946784973,0.01783413253724575,-0.008517795242369175,0.01171196810901165
18717078717875,0.23942017555236816,-9.895236015319824,0.547075092792511,0.0244886614382267,-0.005589802749454975,0.0119781494140625
18717079955062,0.26336219906806946,-9.855731010437012,0.5339069962501526,0.0271504707634449,-0.0071868896484375,0.0090501569211483
18717081192262,0.29209262132644653,-9.911994934082031,0.5111620426177979,0.0252872034907341,-0.0090501569211483,0.0077192517928779125
18717082429412,0.24899697303771973,-9.862914085388184,0.5482721924781799,0.0220930315554142,-0.008251613937318325,0.015172322280704975
18717083666600,0.28969842195510864,-9.84256362915039,0.5530605912208557,0.01756795309484005,-0.0071868896484375,0.0071868896484375
18717084903812,0.30286651849746704,-9.856928825378418,0.5554547905921936,0.02076212503015995,-0.010114881210029125,0.008517795242369175
18717086140987,0.23104046285152435,-9.861717224121094,0.5770025849342346,0.01996358297765255,-0.01224433071911335,0.005057440605014563
18717087378150,0.24420857429504395,-9.850942611694336,0.5650315880775452,0.0191650390625,-0.008783976547420025,-0.0002661811013240367
18717088615337,0.2932897210121155,-9.870096206665039,0.5446808934211731,0.0162370465695858,-0.008783976547420025,0.007453070487827063
18717089852525,0.2777273952960968,-9.865307807922363,0.5781997442245483,0.0215606689453125,-0.012510511092841625,0.0077192517928779125
18717091089700,0.24181437492370605,-9.855731010437012,0.5494692921638489,0.0204959437251091,-0.01224433071911335,0.0114457868039608
18717092326887,0.24779987335205078,-9.898826599121094,0.5410895943641663,0.0186326764523983,-0.008783976547420025,0.01357523538172245
18717093564062,0.23702597618103027,-9.9000244140625,0.547075092792511,0.01756795309484005,-0.0090501569211483,0.007985432632267475
18717094801237,0.25498247146606445,-9.856928825378418,0.5590460896492004,0.0186326764523983,-0.010647243820130825,0.010913425125181675
18717096038437,0.2597709000110626,-9.861717224121094,0.5781997442245483,0.01463996060192585,-0.007453070487827063,0.010647243820130825
18717097275600,0.21667525172233582,-9.889249801635742,0.6021417379379272,0.0173017717897892,-0.010647243820130825,0.014373779296875
18717098512775,0.2082955539226532,-9.882067680358887,0.5746083855628967,0.014906140975654125,-0.01117960549890995,0.008783976547420025
18717099749975,0.21667525172233582,-9.870096206665039,0.545877993106842,0.0181003138422966,-0.014373779296875,0.0090501569211483
18717100987162,0.2406172752380371,-9.891644477844238,0.5554547905921936,0.0173017717897892,-0.013042873702943325,0.010114881210029125
18717102224325,0.2406172752380371,-9.90361499786377,0.5195418000221252,0.013042873702943325,-0.007985432632267475,0.007453070487827063
18717103461487,0.25498247146606445,-9.904812812805176,0.5386953949928284,0.01410759799182415,-0.01463996060192585,0.007985432632267475
18717104698700,0.23942017555236816,-9.882067680358887,0.5722141861915588,0.0119781494140625,-0.015172322280704975,0.007453070487827063
18717105935862,0.20350714027881622,-9.877279281616211,0.524330198764801,0.012510511092841625,-0.010381062515079975,0.006122165359556675
18717107173037,0.2537853717803955,-9.837775230407715,0.568622887134552,0.0114457868039608,-0.0114457868039608,0.0077192517928779125
18717108410225,0.2406172752380371,-9.889249801635742,0.5566518902778625,0.012776692397892475,-0.012510511092841625,0.0053236219100654125
18717109647412,0.24181437492370605,-9.915586471557617,0.5734112858772278,0.00984870083630085,-0.014906140975654125,0.0026618109550327063
18717110884600,0.21188685297966003,-9.853337287902832,0.6117185354232788,0.01463996060192585,-0.0114457868039608,0.00692070834338665
18717112121787,0.26096799969673157,-9.84615421295166,0.5386953949928284,0.0119781494140625,-0.012510511092841625,0.008783976547420025
18717113358962,0.26096799969673157,-9.856928825378418,0.5351040959358215,0.008783976547420025,-0.0071868896484375,0.0042588976211845875
18717114596137,0.2585738003253937,-9.896432876586914,0.6057330369949341,0.007453070487827063,-0.010913425125181675,0.010114881210029125
18717115833337,0.2585738003253937,-9.93474006652832,0.606930136680603,0.01463996060192585,-0.008783976547420025,0.0021294488105922937
18717117070512,0.21188685297966003,-9.870096206665039,0.5422866940498352,0.00931633822619915,-0.010647243820130825,0.0037265352439135313
18717118307675,0.2717418968677521,-9.882067680358887,0.5913678407669067,0.00692070834338665,-0.010913425125181675,0.003460354171693325
18717119544862,0.2346317619085312,-9.932345390319824,0.5339069962501526,0.007985432632267475,-0.012510511092841625,0.0
18717120782025,0.17477671802043915,-9.906009674072266,0.5746083855628967,0.005855984054505825,-0.0114457868039608,0.006122165359556675
18717122019225,0.24420857429504395,-9.889249801635742,0.6057330369949341,0.005589802749454975,-0.012510511092841625,0.0023956298828125
18717123256387,0.22744916379451752,-9.877279281616211,0.569819986820221,0.010114881210029125,-0.01224433071911335,0.0005323622026480734
18717124493575,0.2669534981250763,-9.9371337890625,0.5530605912208557,0.0077192517928779125,-0.0138414166867733,0.0010647244052961469
18717125730775,0.2669534981250763,-9.915586471557617,0.5506663918495178,0.0053236219100654125,-0.012776692397892475,0.0005323622026480734
18717126967950,0.23343466222286224,-9.915586471557617,0.4991910457611084,0.0039927163161337376,-0.0119781494140625,0.004791259765625
18717128205112,0.23582887649536133,-9.870096206665039,0.5973533391952515,0.0002661811013240367,-0.01597086526453495,0.0037265352439135313
18717129442300,0.24420857429504395,-9.891644477844238,0.5602431893348694,0.0007985432748682797,-0.015172322280704975,-0.0005323622026480734
18717130679487,0.20470423996448517,-9.865307807922363,0.6177040338516235,0.0013309054775163531,-0.0119781494140625,-0.0005323622026480734
18717131916662,0.21787235140800476,-9.889249801635742,0.5734112858772278,0.0015970865497365594,-0.010114881210029125,0.0021294488105922937
18717133153850,0.2346317619085312,-9.906009674072266,0.5554547905921936,0.0018632676219567657,-0.01357523538172245,0.00692070834338665
18717134391025,0.22385786473751068,-9.888052940368652,0.5877765417098999,0.0002661811013240367,-0.0090501569211483,0.004791259765625
18717135628200,0.2214636653661728,-9.877279281616211,0.5363011956214905,0.0031941730994731188,-0.01463996060192585,0.0031941730994731188
18717136865400,0.243011474609375,-9.913191795349121,0.5195418000221252,0.0018632676219567657,-0.014906140975654125,0.0005323622026480734
18717138102575,0.20350714027881622,-9.896432876586914,0.5734112858772278,0.0007985432748682797,-0.0173017717897892,0.0013309054775163531
18717139339762,0.18555063009262085,-9.848548889160156,0.5590460896492004,0.0021294488105922937,-0.0191650390625,0.005589802749454975
18717140576937,0.19393034279346466,-9.861717224121094,0.5770025849342346,-0.0013309054775163531,-0.013309055007994175,0.0007985432748682797
18717141814112,0.26336219906806946,-9.888052940368652,0.5279214978218079,-0.0015970865497365594,-0.010114881210029125,0.0023956298828125
18717143051300,0.20949265360832214,-9.882067680358887,0.5315127968788147,-0.0018632676219567657,-0.00984870083630085,-0.0002661811013240367
18717144288487,0.27413609623908997,-9.886856079101562,0.524330198764801,-0.0039927163161337376,-0.0138414166867733,0.0013309054775163531
18717145525662,0.22864626348018646,-9.90361499786377,0.5267243981361389,-0.0007985432748682797,-0.008783976547420025,-0.0015970865497365594
18717146762850,0.2645592987537384,-9.897629737854004,0.507570743560791,-0.0013309054775163531,-0.0071868896484375,0.0005323622026480734
18717148000025,0.2214636653661728,-9.865307807922363,0.569819986820221,-0.0005323622026480734,-0.013042873702943325,-0.0010647244052961469
18717149237200,0.2406172752380371,-9.894038200378418,0.5662286877632141,-0.0007985432748682797,-0.01171196810901165,-0.0029279920272529125
18717150474375,0.23822307586669922,-9.907206535339355,0.5554547905921936,0.0002661811013240367,-0.006122165359556675,0.0018632676219567657
18717151711562,0.25498247146606445,-9.906009674072266,0.5650315880775452,-0.0005323622026480734,-0.00692070834338665,-0.005057440605014563
18717152948737,0.23104046285152435,-9.90122127532959,0.524330198764801,-0.0031941730994731188,-0.007985432632267475,-0.005855984054505825
18717154185925,0.25258827209472656,-9.874884605407715,0.5339069962501526,-0.0071868896484375,-0.0114457868039608,0.0005323622026480734
18717155423112,0.23104046285152435,-9.888052940368652,0.5614402890205383,-0.0031941730994731188,-0.01889885775744915,0.0026618109550327063
18717156660300,0.243011474609375,-9.873687744140625,0.5518634915351868,-0.0037265352439135313,-0.00984870083630085,-0.0031941730994731188
18717157897462,0.25737667083740234,-9.885659217834473,0.5530605912208557,-0.0042588976211845875,-0.005855984054505825,0.0002661811013240367
18717159134650,0.22505496442317963,-9.862914085388184,0.5398924946784973,-0.0005323622026480734,-0.00931633822619915,-0.0029279920272529125
18717160371825,0.2346317619085312,-9.883264541625977,0.5758054852485657,-0.0031941730994731188,-0.0063883461989462376,-0.0026618109550327063
18717161609012,0.26575639843940735,-9.858125686645508,0.547075092792511,-0.0018632676219567657,-0.005855984054505825,-0.0013309054775163531
18717162846200,0.2322375625371933,-9.896432876586914,0.5422866940498352,-0.0013309054775163531,-0.005855984054505825,0.0015970865497365594
18717164083362,0.21308395266532898,-9.859322547912598,0.5327098965644836,-0.005057440605014563,-0.0021294488105922937,-0.0007985432748682797
18717165320562,0.22385786473751068,-9.854534149169922,0.5734112858772278,-0.005589802749454975,-0.0029279920272529125,-0.0018632676219567657
18717166557737,0.25258827209472656,-9.84615421295166,0.5590460896492004,-0.0042588976211845875,-0.0090501569211483,-0.0023956298828125
18717167794925,0.22625206410884857,-9.848548889160156,0.5446808934211731,-0.004791259765625,-0.0066545275039970875,-0.0031941730994731188
18717169032100,0.23104046285152435,-9.835380554199219,0.5267243981361389,-0.0023956298828125,-0.00692070834338665,0.0005323622026480734
18717170269262,0.22385786473751068,-9.824606895446777,0.5015852451324463,-0.0018632676219567657,-0.0063883461989462376,0.0023956298828125
18717171506475,0.25498247146606445,-9.86889934539795,0.5339069962501526,-0.0042588976211845875,-0.0042588976211845875,-0.0010647244052961469
18717172743637,0.2621650993824005,-9.841365814208984,0.5997475385665894,-0.0053236219100654125,0.0,-0.0053236219100654125
18717173980812,0.21188685297966003,-9.850942611694336,0.5410895943641663,-0.0031941730994731188,0.0042588976211845875,-0.00452507846057415
18717175218012,0.23702597618103027,-9.840168952941895,0.5961562395095825,-0.006122165359556675,-0.0037265352439135313,-0.0053236219100654125
18717176455187,0.2669534981250763,-9.813833236694336,0.5554547905921936,-0.0021294488105922937,-0.005057440605014563,-0.0039927163161337376
18717177692362,0.20709845423698425,-9.841365814208984,0.5901707410812378,-0.0039927163161337376,0.0042588976211845875,-0.00692070834338665
18717178929550,0.20709845423698425,-9.860519409179688,0.569819986820221,-0.0031941730994731188,-0.0015970865497365594,-0.0031941730994731188
18717180166725,0.2621650993824005,-9.84615421295166,0.5566518902778625,0.0002661811013240367,0.0,0.0007985432748682797
18717181403912,0.20470423996448517,-9.828198432922363,0.547075092792511,-0.0013309054775163531,0.0002661811013240367,-0.0053236219100654125
18717182641087,0.21547815203666687,-9.8784761428833,0.547075092792511,0.0002661811013240367,0.0018632676219567657,-0.0037265352439135313
18717183878275,0.2190694510936737,-9.919178009033203,0.5542576909065247,-0.0031941730994731188,-0.0018632676219567657,-0.0013309054775163531
18717185115450,0.2059013545513153,-9.883264541625977,0.5159504413604736,-0.007985432632267475,0.0010647244052961469,-0.0018632676219567657
18717186352625,0.21547815203666687,-9.836577415466309,0.5566518902778625,-0.00452507846057415,0.0026618109550327063,-0.0007985432748682797
18717187589825,0.22505496442317963,-9.791088104248047,0.5734112858772278,-0.0021294488105922937,-0.003460354171693325,-0.0002661811013240367
18717188827000,0.2190694510936737,-9.860519409179688,0.5159504413604736,-0.0031941730994731188,0.0018632676219567657,-0.0002661811013240367
18717190064187,0.21787235140800476,-9.877279281616211,0.5614402890205383,-0.0042588976211845875,0.0015970865497365594,-0.0026618109550327063
18717191301350,0.23343466222286224,-9.855731010437012,0.5279214978218079,-0.0026618109550327063,-0.0037265352439135313,-0.0007985432748682797
18717192538537,0.22864626348018646,-9.838972091674805,0.5171476006507874,0.0,-0.0013309054775163531,0.0002661811013240367
18717193775712,0.22505496442317963,-9.858125686645508,0.5602431893348694,-0.0039927163161337376,-0.0007985432748682797,-0.0026618109550327063
18717195012900,0.21428105235099792,-9.896432876586914,0.5267243981361389,-0.0023956298828125,0.0042588976211845875,-0.0023956298828125
18717196250100,0.22744916379451752,-9.873687744140625,0.5770025849342346,-0.003460354171693325,0.005855984054505825,0.0010647244052961469
18717197487262,0.23702597618103027,-9.870096206665039,0.5219359993934631,-0.0013309054775163531,0.003460354171693325,-0.0029279920272529125
18717198724462,0.22026655077934265,-9.859322547912598,0.5147533416748047,-0.005589802749454975,0.0037265352439135313,-0.0010647244052961469
18717199961637,0.21308395266532898,-9.853337287902832,0.5279214978218079,-0.0015970865497365594,-0.0002661811013240367,0.0002661811013240367
18717201198800,0.2645592987537384,-9.84495735168457,0.5398924946784973,0.0005323622026480734,0.0037265352439135313,0.0002661811013240367
18717202436000,0.22625206410884857,-9.862914085388184,0.5626373887062073,-0.0031941730994731188,0.00692070834338665,0.0023956298828125
18717203673175,0.24181437492370605,-9.8784761428833,0.5315127968788147,-0.0005323622026480734,0.0066545275039970875,0.007453070487827063
18717204910362,0.2454056739807129,-9.865307807922363,0.5710170865058899,-0.005855984054505825,0.00984870083630085,0.0039927163161337376
18717206147512,0.22385786473751068,-9.86650562286377,0.5422866940498352,-0.00692070834338665,0.008517795242369175,-0.0005323622026480734
18717207384725,0.2621650993824005,-9.880870819091797,0.5219359993934631,-0.0039927163161337376,0.012776692397892475,0.0021294488105922937
18717208621900,0.2322375625371933,-9.855731010437012,0.5207388997077942,0.0015970865497365594,0.005057440605014563,0.0031941730994731188
18717209859087,0.24660277366638184,-9.873687744140625,0.5267243981361389,0.0053236219100654125,0.008783976547420025,0.0013309054775163531
18717211096250,0.2585738003253937,-9.854534149169922,0.5578489899635315,0.0023956298828125,0.01117960549890995,0.0013309054775163531
18717212333437,0.23822307586669922,-9.883264541625977,0.5195418000221252,-0.0018632676219567657,0.010647243820130825,0.005589802749454975
18717213570625,0.22266076505184174,-9.865307807922363,0.5710170865058899,-0.0039927163161337376,0.01224433071911335,-0.0002661811013240367
18717214807825,0.2537853717803955,-9.858125686645508,0.5315127968788147,-0.00452507846057415,0.013042873702943325,-0.0002661811013240367
18717216044987,0.25498247146606445,-9.870096206665039,0.5099649429321289,-0.0015970865497365594,0.014373779296875,-0.0010647244052961469
18717217282175,0.2968810200691223,-9.853337287902832,0.5159504413604736,0.0039927163161337376,0.008517795242369175,0.0023956298828125
18717218519350,0.22744916379451752,-9.892841339111328,0.5386953949928284,0.0029279920272529125,0.008251613937318325,0.0015970865497365594
18717219756537,0.2513911724090576,-9.911994934082031,0.48961424827575684,-0.003460354171693325,0.0063883461989462376,0.0021294488105922937
18717220993700,0.23822307586669922,-9.880870819091797,0.5063736438751221,-0.0029279920272529125,0.013042873702943325,0.003460354171693325
18717222230875,0.22625206410884857,-9.871294021606445,0.46088382601737976,0.0026618109550327063,0.01463996060192585,0.004791259765625
18717223468087,0.24899697303771973,-9.8784761428833,0.4812345504760742,0.0013309054775163531,0.0119781494140625,0.0037265352439135313
18717224705250,0.25258827209472656,-9.877279281616211,0.47165775299072266,0.0002661811013240367,0.007985432632267475,0.00692070834338665
18717225942425,0.2885012924671173,-9.84256362915039,0.5003881454467773,0.0013309054775163531,0.0119781494140625,0.0063883461989462376
18717227179612,0.2777273952960968,-9.874884605407715,0.5183447003364563,0.0026618109550327063,0.0119781494140625,0.00984870083630085
18717228416800,0.23582887649536133,-9.880870819091797,0.5207388997077942,0.0071868896484375,0.010913425125181675,0.0037265352439135313
18717229653975,0.2885012924671173,-9.853337287902832,0.49320554733276367,0.00452507846057415,0.014373779296875,0.0013309054775163531
18717230891162,0.2645592987537384,-9.84256362915039,0.5398924946784973,0.00452507846057415,0.0138414166867733,0.005057440605014563
18717232128362,0.2621650993824005,-9.862914085388184,0.5159504413604736,0.003460354171693325,0.010647243820130825,0.008783976547420025
18717233365525,0.32202014327049255,-9.856928825378418,0.5171476006507874,0.0007985432748682797,0.015172322280704975,0.0053236219100654125
18717234602712,0.24899697303771973,-9.865307807922363,0.50876784324646,-0.0002661811013240367,0.01224433071911335,0.00452507846057415
18717235839887,0.22026655077934265,-9.829395294189453,0.5303156971931458,-0.0023956298828125,0.0077192517928779125,0.0063883461989462376
18717237077075,0.25019407272338867,-9.835380554199219,0.5147533416748047,0.0042588976211845875,0.010381062515079975,0.01171196810901165
18717238314237,0.2597709000110626,-9.870096206665039,0.5327098965644836,0.004791259765625,0.010647243820130825,0.00692070834338665
18717239551437,0.2777273952960968,-9.850942611694336,0.5171476006507874,-0.0023956298828125,0.008783976547420025,0.0053236219100654125
18717240788612,0.2645592987537384,-9.800664901733398,0.4800374507904053,-0.0005323622026480734,0.010114881210029125,0.0066545275039970875
18717242025775,0.2190694510936737,-9.832986831665039,0.5171476006507874,0.0066545275039970875,0.010381062515079975,0.0077192517928779125
18717243262975,0.2753331959247589,-9.850942611694336,0.5542576909065247,0.00452507846057415,0.013042873702943325,0.0031941730994731188
18717244500150,0.20709845423698425,-9.849745750427246,0.5195418000221252,-0.005855984054505825,0.01357523538172245,0.0015970865497365594
18717245737350,0.26336219906806946,-9.830592155456543,0.5051765441894531,0.0029279920272529125,0.014373779296875,0.0039927163161337376
18717246974525,0.3064578175544739,-9.834183692932129,0.5015852451324463,0.003460354171693325,0.01117960549890995,0.010114881210029125
18717248211700,0.26815059781074524,-9.84615421295166,0.5123591423034668,-0.0029279920272529125,0.015438503585755825,0.00692070834338665
18717249448887,0.2992752194404602,-9.819818496704102,0.4728548526763916,-0.0018632676219567657,0.015172322280704975,0.010114881210029125
18717250686050,0.27054479718208313,-9.847352027893066,0.4967968463897705,-0.0002661811013240367,0.013309055007994175,0.01171196810901165
18717251923237,0.2537853717803955,-9.823410034179688,0.5315127968788147,0.0023956298828125,0.01117960549890995,0.007985432632267475
18717253160437,0.2777273952960968,-9.835380554199219,0.49320554733276367,0.0013309054775163531,0.0053236219100654125,0.01171196810901165
18717254397600,0.2322375625371933,-9.832986831665039,0.5135562419891357,-0.0007985432748682797,0.013309055007994175,0.01224433071911335
18717255634800,0.26575639843940735,-9.831789016723633,0.524330198764801,-0.0013309054775163531,0.01171196810901165,0.0114457868039608
18717256871975,0.2597709000110626,-9.827000617980957,0.5662286877632141,0.0021294488105922937,0.0090501569211483,0.0077192517928779125
18717258109150,0.26575639843940735,-9.895236015319824,0.5374982953071594,0.0021294488105922937,0.01171196810901165,0.0114457868039608
18717259346337,0.2992752194404602,-9.87967300415039,0.4944026470184326,0.0053236219100654125,0.00984870083630085,0.00984870083630085
18717260583525,0.22505496442317963,-9.84615421295166,0.4908113479614258,0.003460354171693325,0.010913425125181675,0.00931633822619915
18717261820700,0.2669534981250763,-9.848548889160156,0.5051765441894531,-0.0010647244052961469,0.014373779296875,0.0071868896484375
18717263057887,0.304063618183136,-9.865307807922363,0.48961424827575684,0.0010647244052961469,0.01783413253724575,0.0090501569211483
18717264295050,0.2944868206977844,-9.841365814208984,0.4704606235027313,0.0023956298828125,0.0077192517928779125,0.0119781494140625
18717265532225,0.3148375153541565,-9.84256362915039,0.5267243981361389,0.0015970865497365594,0.008783976547420025,0.0114457868039608
18717266769425,0.27054479718208313,-9.829395294189453,0.4836287498474121,0.0039927163161337376,0.0090501569211483,0.01117960549890995
18717268006612,0.28131869435310364,-9.815030097961426,0.5398924946784973,0.0023956298828125,0.008517795242369175,0.008517795242369175
18717269243787,0.2597709000110626,-9.827000617980957,0.48722004890441895,0.00452507846057415,0.01224433071911335,0.01171196810901165
18717270480975,0.3280056416988373,-9.837775230407715,0.5386953949928284,0.004791259765625,0.010913425125181675,0.015438503585755825
18717271718150,0.29807811975479126,-9.807847023010254,0.547075092792511,0.0063883461989462376,0.00931633822619915,0.014373779296875
18717272955325,0.29568392038345337,-9.819818496704102,0.49559974670410156,0.006122165359556675,0.0013309054775163531,0.01463996060192585
18717274192500,0.28131869435310364,-9.818621635437012,0.5422866940498352,0.0037265352439135313,0.007453070487827063,0.01357523538172245
18717275429687,0.2621650993824005,-9.813833236694336,0.4728548526763916,0.008251613937318325,0.005057440605014563,0.01889885775744915
18717276666875,0.27054479718208313,-9.800664901733398,0.5183447003364563,0.0029279920272529125,0.0077192517928779125,0.013309055007994175
18717277904062,0.2801215946674347,-9.81024169921875,0.4800374507904053,0.0037265352439135313,0.00984870083630085,0.013309055007994175
18717279141237,0.26096799969673157,-9.856928825378418,0.5327098965644836,0.00452507846057415,0.010114881210029125,0.015438503585755825
18717280378425,0.2669534981250763,-9.819818496704102,0.5135562419891357,0.005057440605014563,0.008783976547420025,0.01410759799182415
18717281615575,0.2885012924671173,-9.835380554199219,0.48961424827575684,0.0063883461989462376,0.010381062515079975,0.01410759799182415
18717282852787,0.2968810200691223,-9.795876502990723,0.4944026470184326,0.0066545275039970875,0.0042588976211845875,0.01357523538172245
18717284089950,0.2825157940387726,-9.831789016723633,0.5351040959358215,0.007985432632267475,0.0053236219100654125,0.013309055007994175
18717285327137,0.2801215946674347,-9.84495735168457,0.5195418000221252,0.008783976547420025,0.0037265352439135313,0.01171196810901165
18717286564325,0.27413609623908997,-9.813833236694336,0.4836287498474121,0.006122165359556675,0.0066545275039970875,0.00958251953125
18717287801500,0.2717418968677521,-9.827000617980957,0.4944026470184326,0.0066545275039970875,0.00958251953125,0.014906140975654125
18717289038675,0.2753331959247589,-9.859322547912598,0.50876784324646,0.006122165359556675,0.004791259765625,0.014373779296875
18717290275862,0.32441434264183044,-9.853337287902832,0.5183447003364563,0.007453070487827063,0.0037265352439135313,0.014906140975654125
18717291513050,0.2932897210121155,-9.837775230407715,0.5039794445037842,0.00452507846057415,0.0042588976211845875,0.0114457868039608
18717292750237,0.3292027413845062,-9.855731010437012,0.5159504413604736,0.005057440605014563,0.0026618109550327063,0.015172322280704975
18717293987412,0.2932897210121155,-9.870096206665039,0.5434837937355042,0.007453070487827063,0.0063883461989462376,0.0191650390625
18717295224600,0.2825157940387726,-9.853337287902832,0.5099649429321289,0.0013309054775163531,0.008251613937318325,0.014373779296875
18717296461787,0.2597709000110626,-9.871294021606445,0.4944026470184326,0.004791259765625,0.0053236219100654125,0.013042873702943325
18717297698950,0.29209262132644653,-9.865307807922363,0.5410895943641663,0.00452507846057415,0.0007985432748682797,0.0138414166867733
18717298936150,0.30047231912612915,-9.834183692932129,0.5386953949928284,0.008251613937318325,0.0,0.0162370465695858
18717300173312,0.2944868206977844,-9.862914085388184,0.5327098965644836,0.008517795242369175,0.005057440605014563,0.0173017717897892
18717301410500,0.29209262132644653,-9.824606895446777,0.547075092792511,0.00692070834338665,0.0021294488105922937,0.0157046839594841
18717302647687,0.2861070930957794,-9.822212219238281,0.5111620426177979,0.007985432632267475,0.0007985432748682797,0.01836649514734745
18717303884850,0.28131869435310364,-9.84256362915039,0.50876784324646,0.008517795242369175,0.0026618109550327063,0.010913425125181675
18717305122037,0.30047231912612915,-9.830592155456543,0.5015852451324463,0.0021294488105922937,-0.0021294488105922937,0.0119781494140625
18717306359250,0.31124621629714966,-9.789891242980957,0.5315127968788147,0.0077192517928779125,0.0010647244052961469,0.01836649514734745
18717307596425,0.29209262132644653,-9.830592155456543,0.524330198764801,0.008251613937318325,0.0005323622026480734,0.015172322280704975
18717308833600,0.27413609623908997,-9.823410034179688,0.5051765441894531,0.0063883461989462376,0.0005323622026480734,0.015172322280704975
18717310070775,0.2885012924671173,-9.838972091674805,0.5171476006507874,0.008251613937318325,-0.0042588976211845875,0.013042873702943325
18717311307950,0.3076549172401428,-9.832986831665039,0.5039794445037842,0.008517795242369175,-0.0037265352439135313,0.0167694091796875
18717312545112,0.32202014327049255,-9.849745750427246,0.5434837937355042,0.007453070487827063,-0.0021294488105922937,0.014373779296875
18717313782337,0.2861070930957794,-9.855731010437012,0.5339069962501526,0.00984870083630085,-0.007453070487827063,0.0138414166867733
18717315019512,0.31124621629714966,-9.829395294189453,0.5638344883918762,0.00692070834338665,-0.0063883461989462376,0.01171196810901165
18717316256662,0.26096799969673157,-9.850942611694336,0.5123591423034668,0.008251613937318325,-0.0071868896484375,0.0173017717897892
18717317493862,0.2585738003253937,-9.835380554199219,0.5482721924781799,0.007453070487827063,-0.010114881210029125,0.012510511092841625
18717318731025,0.243011474609375,-9.84495735168457,0.5111620426177979,0.0090501569211483,-0.0090501569211483,0.015438503585755825
18717319968237,0.2801215946674347,-9.835380554199219,0.5231330990791321,0.00931633822619915,-0.005589802749454975,0.015172322280704975
18717321205400,0.2801215946674347,-9.81263542175293,0.4465186297893524,0.00984870083630085,-0.0031941730994731188,0.01463996060192585
18717322442600,0.24181437492370605,-9.81263542175293,0.48722004890441895,0.008783976547420025,-0.008517795242369175,0.01783413253724575
18717323679775,0.2908955216407776,-9.847352027893066,0.50876784324646,0.0071868896484375,-0.0114457868039608,0.0157046839594841
18717324916950,0.29209262132644653,-9.840168952941895,0.5195418000221252,0.0119781494140625,-0.005855984054505825,0.013309055007994175
18717326154137,0.2849099934101105,-9.865307807922363,0.52552729845047,0.0053236219100654125,-0.005855984054505825,0.0138414166867733
18717327391312,0.2825157940387726,-9.854534149169922,0.5446808934211731,0.00452507846057415,-0.00692070834338665,0.01357523538172245
18717328628512,0.2801215946674347,-9.850942611694336,0.46567222476005554,0.00692070834338665,-0.00692070834338665,0.0138414166867733
18717329865687,0.28131869435310364,-9.84256362915039,0.5590460896492004,0.0138414166867733,-0.00958251953125,0.014373779296875
18717331102875,0.2849099934101105,-9.821015357971191,0.5578489899635315,0.008783976547420025,-0.010381062515079975,0.01224433071911335
18717332340037,0.2968810200691223,-9.818621635437012,0.5063736438751221,0.0090501569211483,-0.00958251953125,0.012776692397892475
18717333577237,0.27054479718208313,-9.799468040466309,0.5434837937355042,0.00931633822619915,-0.010114881210029125,0.0162370465695858
18717334814425,0.304063618183136,-9.827000617980957,0.5051765441894531,0.008783976547420025,-0.013042873702943325,0.01410759799182415
18717336051587,0.29568392038345337,-9.84615421295166,0.5386953949928284,0.008251613937318325,-0.0090501569211483,0.01783413253724575
18717337288787,0.26096799969673157,-9.78869342803955,0.5722141861915588,0.010647243820130825,-0.010913425125181675,0.01703559048473835
18717338525950,0.27054479718208313,-9.821015357971191,0.5303156971931458,0.010114881210029125,-0.014373779296875,0.012776692397892475
18717339763137,0.3292027413845062,-9.84615421295166,0.5231330990791321,0.012776692397892475,-0.01171196810901165,0.014906140975654125
18717341000312,0.30526071786880493,-9.847352027893066,0.545877993106842,0.010114881210029125,-0.0157046839594841,0.014906140975654125
18717342237487,0.2346317619085312,-9.81024169921875,0.5135562419891357,0.010647243820130825,-0.01463996060192585,0.01597086526453495
18717343474675,0.25258827209472656,-9.84495735168457,0.5566518902778625,0.008783976547420025,-0.01703559048473835,0.01357523538172245
18717344711862,0.2777273952960968,-9.81263542175293,0.5901707410812378,0.0053236219100654125,-0.015172322280704975,0.0138414166867733
18717345949050,0.28730419278144836,-9.824606895446777,0.5063736438751221,0.008783976547420025,-0.01650322787463665,0.015438503585755825
18717347186225,0.31962594389915466,-9.821015357971191,0.5650315880775452,0.014373779296875,-0.01463996060192585,0.0138414166867733
18717348423400,0.26575639843940735,-9.84256362915039,0.5339069962501526,0.01117960549890995,-0.01703559048473835,0.0162370465695858
18717349660587,0.2885012924671173,-9.871294021606445,0.5123591423034668,0.01357523538172245,-0.0204959437251091,0.015438503585755825
18717350897775,0.2717418968677521,-9.840168952941895,0.5279214978218079,0.012510511092841625,-0.01650322787463665,0.01357523538172245
18717352134950,0.28730419278144836,-9.80904483795166,0.568622887134552,0.007453070487827063,-0.014906140975654125,0.0157046839594841
18717353372125,0.28730419278144836,-9.837775230407715,0.547075092792511,0.012776692397892475,-0.02129448764026165,0.014373779296875
18717354609312,0.2513911724090576,-9.816226959228516,0.5602431893348694,0.01224433071911335,-0.0247548408806324,0.0138414166867733
18717355846487,0.24181437492370605,-9.821015357971191,0.5817910432815552,0.010913425125181675,-0.0244886614382267,0.01410759799182415
18717357083687,0.23702597618103027,-9.861717224121094,0.5482721924781799,0.010647243820130825,-0.014373779296875,0.0077192517928779125
18717358320850,0.243011474609375,-9.854534149169922,0.5614402890205383,0.013042873702943325,-0.01597086526453495,0.012776692397892475
18717359558037,0.24660277366638184,-9.838972091674805,0.5614402890205383,0.013309055007994175,-0.01943122036755085,0.014906140975654125
18717360795212,0.2298433631658554,-9.841365814208984,0.5494692921638489,0.0077192517928779125,-0.023956298828125,0.01171196810901165
18717362032387,0.22505496442317963,-9.841365814208984,0.5027823448181152,0.01117960549890995,-0.023956298828125,0.010647243820130825
18717363269587,0.272938996553421,-9.847352027893066,0.5578489899635315,0.015172322280704975,-0.0196974016726017,0.015438503585755825
18717364506762,0.2645592987537384,-9.841365814208984,0.5434837937355042,0.0071868896484375,-0.0167694091796875,0.012510511092841625
18717365743937,0.243011474609375,-9.831789016723633,0.5195418000221252,0.01117960549890995,-0.01836649514734745,0.0063883461989462376
18717366981137,0.2513911724090576,-9.77791976928711,0.5446808934211731,0.014373779296875,-0.0228915736079216,0.007985432632267475
18717368218300,0.22864626348018646,-9.835380554199219,0.4728548526763916,0.014906140975654125,-0.02182685025036335,0.010647243820130825
18717369455512,0.26575639843940735,-9.877279281616211,0.5662286877632141,0.01463996060192585,-0.02262539230287075,0.010114881210029125
18717370692662,0.2561795711517334,-9.81024169921875,0.5434837937355042,0.012510511092841625,-0.0220930315554142,0.01889885775744915
18717371929887,0.26336219906806946,-9.81143856048584,0.5207388997077942,0.010913425125181675,-0.0220930315554142,0.0191650390625
18717373167050,0.24779987335205078,-9.837775230407715,0.5446808934211731,0.010381062515079975,-0.0234239362180233,0.014373779296875
18717374404212,0.2513911724090576,-9.861717224121094,0.5566518902778625,0.0119781494140625,-0.0247548408806324,0.0157046839594841
18717375641400,0.2346317619085312,-9.854534149169922,0.5446808934211731,0.008783976547420025,-0.0234239362180233,0.0157046839594841
18717376878600,0.23104046285152435,-9.832986831665039,0.5770025849342346,0.010913425125181675,-0.0228915736079216,0.0114457868039608
18717378115775,0.26815059781074524,-9.84256362915039,0.5303156971931458,0.01224433071911335,-0.0244886614382267,0.0119781494140625
18717379352950,0.2322375625371933,-9.84615421295166,0.569819986820221,0.008251613937318325,-0.0223592109978199,0.014373779296875
18717380590150,0.22864626348018646,-9.834183692932129,0.5398924946784973,0.00958251953125,-0.0228915736079216,0.01410759799182415
18717381827312,0.22385786473751068,-9.84495735168457,0.5410895943641663,0.012510511092841625,-0.0244886614382267,0.013309055007994175
18717383064487,0.25258827209472656,-9.925163269042969,0.5327098965644836,0.015438503585755825,-0.02422248013317585,0.01410759799182415
18717384301675,0.2513911724090576,-9.87967300415039,0.5267243981361389,0.008783976547420025,-0.0173017717897892,0.0167694091796875
18717385538850,0.23942017555236816,-9.891644477844238,0.5183447003364563,0.0077192517928779125,-0.0186326764523983,0.0119781494140625
18717386776037,0.2513911724090576,-9.850942611694336,0.5267243981361389,0.0119781494140625,-0.0210283063352108,0.01117960549890995
18717388013212,0.22385786473751068,-9.837775230407715,0.5817910432815552,0.01117960549890995,-0.0300784632563591,0.0114457868039608
18717389250400,0.27413609623908997,-9.874884605407715,0.5542576909065247,0.01171196810901165,-0.0258195661008358,0.012510511092841625
18717390487587,0.2513911724090576,-9.862914085388184,0.4920084476470947,0.015172322280704975,-0.02608574740588665,0.01117960549890995
18717391724762,0.23702597618103027,-9.90122127532959,0.5578489899635315,0.015172322280704975,-0.0252872034907341,0.013309055007994175
18717392961950,0.22505496442317963,-9.859322547912598,0.5614402890205383,0.01410759799182415,-0.0258195661008358,0.013309055007994175
18717394199125,0.23702597618103027,-9.847352027893066,0.5386953949928284,0.013042873702943325,-0.02422248013317585,0.01463996060192585
18717395436300,0.2214636653661728,-9.834183692932129,0.5279214978218079,0.010381062515079975,-0.0210283063352108,0.01463996060192585
18717396673500,0.25258827209472656,-9.829395294189453,0.5231330990791321,0.0167694091796875,-0.0268842913210392,0.01756795309484005
18717397910687,0.23942017555236816,-9.824606895446777,0.5111620426177979,0.0167694091796875,-0.02315775491297245,0.010381062515079975
18717399147850,0.2082955539226532,-9.813833236694336,0.5351040959358215,0.012776692397892475,-0.02661811001598835,0.0119781494140625
18717400385037,0.25498247146606445,-9.80904483795166,0.52552729845047,0.01597086526453495,-0.02262539230287075,0.01357523538172245
18717401622225,0.23582887649536133,-9.860519409179688,0.5530605912208557,0.014906140975654125,-0.0215606689453125,0.014906140975654125
18717402859387,0.2082955539226532,-9.860519409179688,0.5841852426528931,0.012510511092841625,-0.0220930315554142,0.0173017717897892
18717404096600,0.21667525172233582,-9.840168952941895,0.48961424827575684,0.0138414166867733,-0.02315775491297245,0.0119781494140625
18717405333775,0.2585738003253937,-9.861717224121094,0.5195418000221252,0.01756795309484005,-0.02315775491297245,0.012510511092841625
18717406570962,0.2777273952960968,-9.816226959228516,0.5674257874488831,0.015172322280704975,-0.01889885775744915,0.00958251953125
18717407808150,0.23104046285152435,-9.847352027893066,0.5590460896492004,0.01171196810901165,-0.0186326764523983,0.0066545275039970875
18717409045312,0.21667525172233582,-9.84615421295166,0.5841852426528931,0.01117960549890995,-0.0210283063352108,0.005855984054505825
18717410282512,0.2346317619085312,-9.861717224121094,0.5422866940498352,0.010381062515079975,-0.0223592109978199,0.01410759799182415
18717411519687,0.26575639843940735,-9.874884605407715,0.5482721924781799,0.010913425125181675,-0.0215606689453125,0.01650322787463665
18717412756862,0.1951274424791336,-9.861717224121094,0.5422866940498352,0.0071868896484375,-0.0173017717897892,0.0119781494140625
18717413994050,0.22026655077934265,-9.876082420349121,0.568622887134552,0.01171196810901165,-0.01756795309484005,0.014906140975654125
18717415231225,0.24660277366638184,-9.861717224121094,0.5482721924781799,0.01650322787463665,-0.02315775491297245,0.014906140975654125
18717416468400,0.22385786473751068,-9.852140426635742,0.5518634915351868,0.01996358297765255,-0.0271504707634449,0.01463996060192585
18717417705600,0.1975216418504715,-9.856928825378418,0.49320554733276367,0.01703559048473835,-0.02315775491297245,0.01357523538172245
18717418942750,0.23822307586669922,-9.860519409179688,0.5279214978218079,0.01357523538172245,-0.015438503585755825,0.008783976547420025
18717420179950,0.22026655077934265,-9.858125686645508,0.5734112858772278,0.0196974016726017,-0.0228915736079216,0.01783413253724575
18717421417125,0.2645592987537384,-9.919178009033203,0.5590460896492004,0.0157046839594841,-0.0196974016726017,0.01463996060192585
18717422654312,0.1951274424791336,-9.915586471557617,0.547075092792511,0.010647243820130825,-0.02369011752307415,0.012510511092841625
18717423891487,0.243011474609375,-9.872490882873535,0.5578489899635315,0.00958251953125,-0.0223592109978199,0.0138414166867733
18717425128662,0.24420857429504395,-9.849745750427246,0.5734112858772278,0.006122165359556675,-0.01996358297765255,0.013309055007994175
18717426365862,0.2106897532939911,-9.856928825378418,0.5410895943641663,0.01357523538172245,-0.0196974016726017,0.015172322280704975
