timestamp_ns,accel_x,accel_y,accel_z,gyro_x,gyro_y,gyro_z
2036524706300,1.5646108388900757,-9.789891242980957,1.0378865003585815,0.0026618109550327063,0.00692070834338665,-0.007985432632267475
2036525943687,1.5490485429763794,-9.767146110534668,1.049857497215271,0.007453070487827063,0.010647243820130825,-0.005855984054505825
2036527181100,1.5873557329177856,-9.77791976928711,1.0115501880645752,0.005057440605014563,0.01117960549890995,-0.006122165359556675
2036528418512,1.53707754611969,-9.774328231811523,1.0211269855499268,0.0077192517928779125,0.0077192517928779125,-0.0090501569211483
2036529655900,1.5203181505203247,-9.801861763000488,1.0330979824066162,0.0053236219100654125,0.00958251953125,-0.0071868896484375
2036530893287,1.5837644338607788,-9.75397777557373,1.0319008827209473,-0.0007985432748682797,0.01650322787463665,-0.005589802749454975
2036532130712,1.5753847360610962,-9.77552604675293,1.0402806997299194,0.0015970865497365594,0.00958251953125,-0.00452507846057415
2036533368100,1.5861586332321167,-9.767146110534668,1.0199298858642578,0.0037265352439135313,0.01703559048473835,-0.0063883461989462376
2036534605500,1.5693992376327515,-9.787496566772461,1.0199298858642578,-0.0021294488105922937,0.01703559048473835,-0.0010647244052961469
2036535842887,1.5514427423477173,-9.75397777557373,1.0031704902648926,0.0021294488105922937,0.01650322787463665,0.0010647244052961469
2036537080287,1.6124948263168335,-9.768342971801758,1.049857497215271,0.004791259765625,0.01783413253724575,0.0005323622026480734
2036538317700,1.5490485429763794,-9.759963035583496,0.993593692779541,0.0002661811013240367,0.02022976242005825,-0.0002661811013240367
2036539555087,1.5622166395187378,-9.78869342803955,0.9876081943511963,-0.0037265352439135313,0.0167694091796875,-0.0010647244052961469
2036540792487,1.5670050382614136,-9.794679641723633,0.9900023937225342,-0.0018632676219567657,0.015172322280704975,0.003460354171693325
2036542029912,1.5646108388900757,-9.785102844238281,0.9888052940368652,0.0005323622026480734,0.01650322787463665,-0.0005323622026480734
2036543267300,1.5406688451766968,-9.813833236694336,0.9900023937225342,-0.0023956298828125,0.01756795309484005,-0.0005323622026480734
2036544504687,1.5729905366897583,-9.821015357971191,0.9804255962371826,-0.0010647244052961469,0.0162370465695858,-0.0021294488105922937
2036545742100,1.6053122282028198,-9.78869342803955,1.0354923009872437,-0.0018632676219567657,0.01889885775744915,0.0
2036546979475,1.5861586332321167,-9.771934509277344,1.0630255937576294,-0.0029279920272529125,0.0252872034907341,0.0013309054775163531
2036548216887,1.5490485429763794,-9.77791976928711,1.0366894006729126,-0.0026618109550327063,0.0276828333735466,0.0
2036549454287,1.5981296300888062,-9.75517463684082,0.9852139949798584,-0.0015970865497365594,0.0223592109978199,0.0039927163161337376
2036550691662,1.5933412313461304,-9.791088104248047,1.0007762908935547,-0.0010647244052961469,0.0247548408806324,0.0042588976211845875
2036551929075,1.5478514432907104,-9.799468040466309,0.970848798751831,-0.005589802749454975,0.0244886614382267,-0.0037265352439135313
2036553166487,1.5873557329177856,-9.832986831665039,1.0199298858642578,-0.0039927163161337376,0.0220930315554142,0.0
2036554403887,1.5263036489486694,-9.798270225524902,1.01753568649292,-0.0077192517928779125,0.0234239362180233,0.005057440605014563
2036555641275,1.5717934370040894,-9.825803756713867,0.950498104095459,-0.0031941730994731188,0.0276828333735466,0.0010647244052961469
2036556878675,1.5753847360610962,-9.815030097961426,1.0043675899505615,-0.0039927163161337376,0.0247548408806324,0.0026618109550327063
2036558116075,1.5634137392044067,-9.803058624267578,1.0007762908935547,-0.0053236219100654125,0.0258195661008358,0.0023956298828125
2036559353462,1.5849615335464478,-9.786299705505371,0.9864110946655273,-0.0090501569211483,0.02848137728869915,0.0039927163161337376
2036560590875,1.5454572439193726,-9.823410034179688,0.9756371974945068,-0.006122165359556675,0.02661811001598835,0.0007985432748682797
2036561828275,1.5454572439193726,-9.805453300476074,0.9648633003234863,-0.0026618109550327063,0.0258195661008358,0.0042588976211845875
2036563065687,1.5873557329177856,-9.801861763000488,1.0235211849212646,-0.01117960549890995,0.02502102218568325,0.0
2036564303075,1.6388310194015503,-9.7791166305542,1.0103530883789062,-0.0063883461989462376,0.0215606689453125,0.0026618109550327063
2036565540475,1.6328455209732056,-9.758766174316406,1.0642226934432983,-0.005589802749454975,0.02848137728869915,0.008251613937318325
2036566777862,1.6208745241165161,-9.830592155456543,0.9792284965515137,-0.008251613937318325,0.0319417305290699,0.0029279920272529125
2036568015275,1.6089035272598267,-9.821015357971191,0.9959878921508789,-0.007453070487827063,0.02874755859375,0.008517795242369175
2036569252687,1.5729905366897583,-9.80904483795166,1.0307037830352783,-0.007985432632267475,0.0338049978017807,0.0077192517928779125
2036570490075,1.5957354307174683,-9.823410034179688,1.0378865003585815,-0.00692070834338665,0.02794901467859745,0.0023956298828125
2036571727450,1.6148890256881714,-9.794679641723633,0.9959878921508789,-0.004791259765625,0.0263519287109375,0.005589802749454975
2036572964862,1.6172832250595093,-9.785102844238281,0.970848798751831,-0.008517795242369175,0.02874755859375,0.006122165359556675
2036574202287,1.6160861253738403,-9.765949249267578,1.0247182846069336,-0.007985432632267475,0.03034464456140995,0.007985432632267475
2036575439650,1.6352397203445435,-9.780314445495605,0.9840168952941895,-0.0114457868039608,0.0338049978017807,0.010114881210029125
2036576677075,1.6184803247451782,-9.757569313049316,1.013944387435913,-0.01597086526453495,0.033272635191679,0.005855984054505825
2036577914462,1.6172832250595093,-9.795876502990723,1.0462661981582642,-0.007453070487827063,0.0306108258664608,0.005057440605014563
2036579151875,1.6101006269454956,-9.750386238098145,1.013944387435913,-0.00931633822619915,0.0314093679189682,0.0053236219100654125
2036580389250,1.6172832250595093,-9.793481826782227,1.013944387435913,-0.01224433071911335,0.033538818359375,0.0021294488105922937
2036581626662,1.5981296300888062,-9.792284965515137,1.015141487121582,-0.008517795242369175,0.033272635191679,0.01357523538172245
2036582864062,1.6268600225448608,-9.793481826782227,0.9983820915222168,-0.00692070834338665,0.0292799212038517,0.01597086526453495
2036584101450,1.6208745241165161,-9.791088104248047,0.9636662006378174,-0.010913425125181675,0.0311431884765625,0.0071868896484375
2036585338862,1.6436195373535156,-9.771934509277344,0.9959878921508789,-0.008783976547420025,0.03034464456140995,0.010913425125181675
2036586576250,1.6160861253738403,-9.770737648010254,1.0067617893218994,-0.0039927163161337376,0.03034464456140995,0.012510511092841625
2036587813662,1.625662922859192,-9.769539833068848,1.0115501880645752,-0.00958251953125,0.0311431884765625,0.0114457868039608
2036589051075,1.6160861253738403,-9.769539833068848,0.9971849918365479,-0.008517795242369175,0.0295461006462574,0.010913425125181675
2036590288462,1.657984733581543,-9.786299705505371,0.9959878921508789,-0.0042588976211845875,0.0295461006462574,0.008783976547420025
2036591525862,1.6639702320098877,-9.774328231811523,0.9959878921508789,-0.010647243820130825,0.03034464456140995,0.010647243820130825
2036592763250,1.6436195373535156,-9.733627319335938,0.9876081943511963,-0.012776692397892475,0.02981228195130825,0.01410759799182415
2036594000662,1.6388310194015503,-9.716867446899414,0.973242998123169,-0.013042873702943325,0.0300784632563591,0.0090501569211483
2036595238050,1.600523829460144,-9.724050521850586,0.9756371974945068,-0.01117960549890995,0.0364668108522892,0.01117960549890995
2036596475437,1.6124948263168335,-9.783905029296875,0.9852139949798584,-0.00931633822619915,0.033538818359375,0.02182685025036335
2036597712837,1.6436195373535156,-9.746795654296875,1.0211269855499268,-0.0077192517928779125,0.03034464456140995,0.01463996060192585
2036598950250,1.6627731323242188,-9.759963035583496,1.0007762908935547,-0.0071868896484375,0.0300784632563591,0.01357523538172245
2036600187650,1.6531963348388672,-9.761160850524902,1.048660397529602,-0.0119781494140625,0.0282151959836483,0.0157046839594841
2036601425062,1.6388310194015503,-9.72285270690918,1.0211269855499268,-0.01650322787463665,0.03087700717151165,0.0138414166867733
2036602662450,1.6663644313812256,-9.792284965515137,1.0019733905792236,-0.0119781494140625,0.0338049978017807,0.013042873702943325
2036603899862,1.6196774244308472,-9.792284965515137,1.0271124839782715,-0.012776692397892475,0.02848137728869915,0.0138414166867733
2036605137250,1.6280571222305298,-9.77791976928711,0.9696516990661621,-0.010114881210029125,0.0271504707634449,0.0191650390625
2036606374650,1.6496050357818604,-9.758766174316406,1.0079588890075684,-0.00958251953125,0.02661811001598835,0.02076212503015995
2036607612062,1.6208745241165161,-9.737218856811523,0.99479079246521,-0.010913425125181675,0.02555338479578495,0.0186326764523983
2036608849450,1.622071623802185,-9.740809440612793,0.9576807022094727,-0.010647243820130825,0.02555338479578495,0.02129448764026165
2036610086850,1.6472108364105225,-9.730035781860352,1.0319008827209473,-0.010913425125181675,0.0319417305290699,0.0204959437251091
2036611324237,1.6412252187728882,-9.733627319335938,0.9804255962371826,-0.01357523538172245,0.02981228195130825,0.01889885775744915
2036612561637,1.6376339197158813,-9.737218856811523,1.015141487121582,-0.012776692397892475,0.0247548408806324,0.01889885775744915
2036613799037,1.6352397203445435,-9.75397777557373,0.9684545993804932,-0.010114881210029125,0.02848137728869915,0.02369011752307415
2036615036450,1.6627731323242188,-9.725247383117676,1.0103530883789062,-0.0114457868039608,0.0271504707634449,0.0196974016726017
2036616273850,1.6184803247451782,-9.714473724365234,0.993593692779541,-0.00931633822619915,0.02022976242005825,0.0223592109978199
2036617511250,1.6364368200302124,-9.731232643127441,1.0055646896362305,-0.007453070487827063,0.0295461006462574,0.0162370465695858
2036618748650,1.657984733581543,-9.75397777557373,0.9720458984375,-0.0077192517928779125,0.02794901467859745,0.01836649514734745
2036619986025,1.6508021354675293,-9.7420072555542,0.9995791912078857,-0.01171196810901165,0.02874755859375,0.0191650390625
2036621223450,1.656787633895874,-9.732430458068848,0.9971849918365479,-0.010647243820130825,0.02608574740588665,0.02315775491297245
2036622460837,1.6663644313812256,-9.737218856811523,1.0055646896362305,-0.01463996060192585,0.02369011752307415,0.02422248013317585
2036623698250,1.6160861253738403,-9.749189376831055,1.0019733905792236,-0.010913425125181675,0.0244886614382267,0.02502102218568325
2036624935650,1.6400281190872192,-9.75278091430664,1.0402806997299194,-0.0138414166867733,0.0276828333735466,0.02315775491297245
2036626173025,1.6531963348388672,-9.747992515563965,1.0199298858642578,-0.014373779296875,0.02182685025036335,0.023956298828125
2036627410437,1.6208745241165161,-9.747992515563965,0.9828197956085205,-0.010913425125181675,0.02661811001598835,0.02502102218568325
2036628647850,1.6531963348388672,-9.756372451782227,1.0450690984725952,-0.0119781494140625,0.02661811001598835,0.02422248013317585
2036629885250,1.6184803247451782,-9.75278091430664,1.0079588890075684,-0.013042873702943325,0.02874755859375,0.01943122036755085
2036631122625,1.6376339197158813,-9.739612579345703,1.0223240852355957,-0.010381062515079975,0.02848137728869915,0.0252872034907341
2036632360037,1.6531963348388672,-9.733627319335938,0.9864110946655273,-0.00931633822619915,0.0244886614382267,0.0244886614382267
2036633597437,1.6424224376678467,-9.747992515563965,0.9780313968658447,-0.008783976547420025,0.02555338479578495,0.0215606689453125
2036634834825,1.6352397203445435,-9.750386238098145,1.013944387435913,-0.0119781494140625,0.02661811001598835,0.02182685025036335
2036636072237,1.5849615335464478,-9.72285270690918,0.9959878921508789,-0.012776692397892475,0.023956298828125,0.02422248013317585
2036637309650,1.6089035272598267,-9.720458984375,0.9744400978088379,-0.010381062515079975,0.02555338479578495,0.023956298828125
2036638547025,1.6412252187728882,-9.734824180603027,1.0211269855499268,-0.008251613937318325,0.02182685025036335,0.0204959437251091
2036639784425,1.6663644313812256,-9.747992515563965,0.99479079246521,-0.007453070487827063,0.0191650390625,0.02182685025036335
2036641021825,1.6304513216018677,-9.743204116821289,1.0067617893218994,-0.010381062515079975,0.0210283063352108,0.0258195661008358
2036642259250,1.6280571222305298,-9.75158405303955,1.0522516965866089,-0.010381062515079975,0.02315775491297245,0.0282151959836483
2036643496625,1.6196774244308472,-9.710882186889648,1.0570400953292847,-0.007985432632267475,0.0196974016726017,0.02901373989880085
2036644734037,1.602918028831482,-9.737218856811523,1.0522516965866089,-0.0077192517928779125,0.02315775491297245,0.02901373989880085
2036645971412,1.6412252187728882,-9.746795654296875,1.0091559886932373,-0.0037265352439135313,0.02129448764026165,0.02741665206849575
2036647208825,1.5765818357467651,-9.756372451782227,0.9888052940368652,-0.007453070487827063,0.0186326764523983,0.02848137728869915
2036648446225,1.5693992376327515,-9.72285270690918,1.0342952013015747,-0.008517795242369175,0.0196974016726017,0.0271504707634449
2036649683637,1.5909470319747925,-9.736021041870117,1.0091559886932373,-0.0071868896484375,0.023956298828125,0.02608574740588665
2036650921037,1.6412252187728882,-9.740809440612793,1.0247182846069336,-0.008251613937318325,0.0204959437251091,0.03034464456140995
2036652158425,1.6077064275741577,-9.724050521850586,1.0319008827209473,-0.0090501569211483,0.014906140975654125,0.0292799212038517
2036653395812,1.5849615335464478,-9.710882186889648,1.0043675899505615,-0.0077192517928779125,0.01943122036755085,0.02741665206849575
2036654633225,1.6292542219161987,-9.743204116821289,0.9720458984375,-0.014373779296875,0.0252872034907341,0.02608574740588665
2036655870625,1.6101006269454956,-9.759963035583496,1.0342952013015747,-0.0162370465695858,0.01650322787463665,0.02422248013317585
2036657108025,1.6136919260025024,-9.701305389404297,1.016338586807251,-0.0114457868039608,0.0167694091796875,0.0271504707634449
2036658345412,1.6101006269454956,-9.700108528137207,0.9876081943511963,-0.010647243820130825,0.013042873702943325,0.0348697230219841
2036659582812,1.556231141090393,-9.745597839355469,0.9816226959228516,-0.0138414166867733,0.01650322787463665,0.02794901467859745
2036660820212,1.5717934370040894,-9.730035781860352,0.9780313968658447,-0.00931633822619915,0.01836649514734745,0.02874755859375
2036662057612,1.5705963373184204,-9.750386238098145,1.0259153842926025,-0.0090501569211483,0.01996358297765255,0.0330064557492733
2036663295025,1.6053122282028198,-9.743204116821289,1.0067617893218994,-0.012510511092841625,0.02182685025036335,0.0292799212038517
2036664532412,1.5717934370040894,-9.697713851928711,0.9971849918365479,-0.013309055007994175,0.015438503585755825,0.03034464456140995
2036665769825,1.6136919260025024,-9.728838920593262,0.9636662006378174,-0.01117960549890995,0.0186326764523983,0.02608574740588665
2036667007212,1.6160861253738403,-9.769539833068848,0.9792284965515137,-0.014906140975654125,0.0181003138422966,0.02315775491297245
2036668244612,1.6316484212875366,-9.725247383117676,0.99479079246521,-0.00984870083630085,0.0173017717897892,0.0276828333735466
2036669482025,1.623268723487854,-9.746795654296875,0.9864110946655273,-0.00958251953125,0.01756795309484005,0.02901373989880085
2036670719412,1.6352397203445435,-9.734824180603027,1.0402806997299194,-0.01117960549890995,0.0215606689453125,0.0316755510866642
2036671956812,1.625662922859192,-9.739612579345703,1.0031704902648926,-0.0071868896484375,0.0210283063352108,0.0322079136967659
2036673194225,1.5550340414047241,-9.737218856811523,1.049857497215271,-0.00984870083630085,0.0162370465695858,0.0300784632563591
2036674431600,1.5717934370040894,-9.716867446899414,0.9852139949798584,-0.00931633822619915,0.01597086526453495,0.0340711809694767
2036675669012,1.5526398420333862,-9.750386238098145,1.0223240852355957,-0.010381062515079975,0.02076212503015995,0.03034464456140995
2036676906412,1.5310920476913452,-9.781511306762695,1.0271124839782715,-0.010381062515079975,0.0173017717897892,0.0311431884765625
2036678143825,1.5598224401474,-9.77672290802002,0.9995791912078857,-0.010913425125181675,0.01463996060192585,0.0343373604118824
2036679381200,1.581370234489441,-9.726444244384766,1.0103530883789062,-0.010647243820130825,0.02422248013317585,0.0276828333735466
2036680618625,1.5598224401474,-9.758766174316406,1.0366894006729126,-0.01117960549890995,0.0191650390625,0.02608574740588665
2036681856025,1.5670050382614136,-9.765949249267578,1.0127472877502441,-0.0119781494140625,0.0138414166867733,0.0282151959836483
2036683093412,1.5622166395187378,-9.740809440612793,1.0115501880645752,-0.010381062515079975,0.01703559048473835,0.0300784632563591
2036684330837,1.577778935432434,-9.782708168029785,1.0283095836639404,-0.0090501569211483,0.01410759799182415,0.0292799212038517
2036685568212,1.5538369417190552,-9.720458984375,1.047463297843933,-0.0039927163161337376,0.015172322280704975,0.0295461006462574
2036686805600,1.5741876363754272,-9.758766174316406,1.0450690984725952,-0.0023956298828125,0.0157046839594841,0.02794901467859745
2036688042975,1.557428240776062,-9.791088104248047,1.0031704902648926,-0.0071868896484375,0.0181003138422966,0.02874755859375
2036689280400,1.5682021379470825,-9.747992515563965,1.0067617893218994,-0.010114881210029125,0.0181003138422966,0.0295461006462574
2036690517812,1.5239094495773315,-9.736021041870117,1.0390836000442505,-0.01117960549890995,0.015438503585755825,0.0300784632563591
2036691755212,1.577778935432434,-9.749189376831055,1.0223240852355957,-0.01943122036755085,0.01889885775744915,0.0247548408806324
2036692992612,1.5239094495773315,-9.746795654296875,0.9780313968658447,-0.01703559048473835,0.0186326764523983,0.0220930315554142
2036694230012,1.5682021379470825,-9.768342971801758,0.9995791912078857,-0.007985432632267475,0.02315775491297245,0.02555338479578495
2036695467400,1.580173134803772,-9.745597839355469,1.0007762908935547,-0.00958251953125,0.0162370465695858,0.02848137728869915
2036696704825,1.5658079385757446,-9.761160850524902,1.0067617893218994,-0.010381062515079975,0.01357523538172245,0.02661811001598835
2036697942212,1.5478514432907104,-9.75517463684082,0.9816226959228516,-0.010114881210029125,0.02022976242005825,0.02555338479578495
2036699179600,1.5729905366897583,-9.726444244384766,1.0618284940719604,-0.00692070834338665,0.0186326764523983,0.0276828333735466
2036700417000,1.5693992376327515,-9.732430458068848,1.0295066833496094,-0.008517795242369175,0.0173017717897892,0.02794901467859745
2036701654400,1.5322891473770142,-9.713275909423828,1.0666168928146362,-0.008251613937318325,0.0210283063352108,0.0263519287109375
2036702891812,1.5454572439193726,-9.782708168029785,1.0043675899505615,-0.00692070834338665,0.0215606689453125,0.0263519287109375
2036704129212,1.5705963373184204,-9.757569313049316,1.070208191871643,-0.007453070487827063,0.01650322787463665,0.02901373989880085
2036705366600,1.5310920476913452,-9.757569313049316,0.9864110946655273,-0.005057440605014563,0.014906140975654125,0.02608574740588665
2036706604000,1.5897499322891235,-9.75158405303955,0.9971849918365479,-0.008251613937318325,0.0210283063352108,0.02901373989880085
2036707841412,1.5382746458053589,-9.738415718078613,0.9959878921508789,-0.008251613937318325,0.02129448764026165,0.0330064557492733
2036709078812,1.5717934370040894,-9.71926212310791,1.0247182846069336,-0.0039927163161337376,0.0204959437251091,0.0343373604118824
2036710316200,1.577778935432434,-9.747992515563965,0.9876081943511963,-0.0039927163161337376,0.02076212503015995,0.02555338479578495
2036711553587,1.4915876388549805,-9.756372451782227,0.9876081943511963,-0.0053236219100654125,0.0196974016726017,0.0220930315554142
2036712791000,1.5753847360610962,-9.743204116821289,1.0414777994155884,-0.008251613937318325,0.01889885775744915,0.0252872034907341
2036714028387,1.5729905366897583,-9.75517463684082,1.071405291557312,-0.006122165359556675,0.02502102218568325,0.0252872034907341
2036715265787,1.5251065492630005,-9.72165584564209,1.0283095836639404,-0.0029279920272529125,0.02262539230287075,0.02315775491297245
2036716503187,1.5466543436050415,-9.684545516967773,1.0342952013015747,-0.0053236219100654125,0.0210283063352108,0.0258195661008358
2036717740587,1.5227123498916626,-9.758766174316406,1.0235211849212646,-0.008783976547420025,0.0234239362180233,0.023956298828125
2036718978000,1.5179238319396973,-9.732430458068848,1.07379949092865,-0.0066545275039970875,0.02182685025036335,0.0215606689453125
2036720215400,1.5418659448623657,-9.732430458068848,1.0342952013015747,-0.005057440605014563,0.01783413253724575,0.023956298828125
2036721452787,1.5454572439193726,-9.759963035583496,1.0007762908935547,-0.0002661811013240367,0.0215606689453125,0.0234239362180233
2036722690200,1.535880446434021,-9.764751434326172,1.047463297843933,-0.005057440605014563,0.0204959437251091,0.02661811001598835
2036723927600,1.5143325328826904,-9.72285270690918,1.0654197931289673,-0.0090501569211483,0.02315775491297245,0.02422248013317585
2036725165000,1.478419542312622,-9.71926212310791,1.0031704902648926,-0.005057440605014563,0.0244886614382267,0.0234239362180233
2036726402400,1.5227123498916626,-9.740809440612793,1.0618284940719604,-0.008251613937318325,0.02369011752307415,0.0215606689453125
2036727639775,1.5215152502059937,-9.726444244384766,1.0235211849212646,-0.0077192517928779125,0.0244886614382267,0.0210283063352108
2036728877187,1.535880446434021,-9.704896926879883,1.0462661981582642,-0.0066545275039970875,0.02315775491297245,0.02182685025036335
2036730114600,1.5227123498916626,-9.730035781860352,1.0378865003585815,-0.00692070834338665,0.02661811001598835,0.02369011752307415
2036731351987,1.5155296325683594,-9.725247383117676,1.0271124839782715,-0.0010647244052961469,0.0234239362180233,0.0215606689453125
2036732589400,1.5418659448623657,-9.720458984375,1.0247182846069336,-0.0023956298828125,0.02608574740588665,0.02422248013317585
2036733826787,1.5945383310317993,-9.724050521850586,1.0319008827209473,-0.0031941730994731188,0.0292799212038517,0.0204959437251091
2036735064175,1.5310920476913452,-9.706093788146973,1.0079588890075684,-0.0053236219100654125,0.02874755859375,0.0220930315554142
2036736301600,1.502361536026001,-9.712079048156738,0.9911994934082031,-0.00931633822619915,0.02901373989880085,0.01996358297765255
2036737538987,1.5119383335113525,-9.747992515563965,0.9876081943511963,-0.005057440605014563,0.02794901467859745,0.01996358297765255
2036738776400,1.534683346748352,-9.747992515563965,1.0450690984725952,-0.0039927163161337376,0.02422248013317585,0.0196974016726017
2036740013800,1.5418659448623657,-9.750386238098145,1.0642226934432983,-0.0042588976211845875,0.023956298828125,0.0181003138422966
2036741251187,1.5538369417190552,-9.701305389404297,0.9648633003234863,-0.007985432632267475,0.02901373989880085,0.012510511092841625
2036742488600,1.5322891473770142,-9.72285270690918,1.0354923009872437,-0.0077192517928779125,0.0300784632563591,0.02022976242005825
2036743725987,1.5263036489486694,-9.749189376831055,1.0187327861785889,-0.0042588976211845875,0.0324740931391716,0.02076212503015995
2036744963387,1.50355863571167,-9.702502250671387,1.0031704902648926,-0.0021294488105922937,0.0351359061896801,0.02369011752307415
2036746200787,1.5765818357467651,-9.75517463684082,1.0582371950149536,-0.0005323622026480734,0.02848137728869915,0.0228915736079216
2036747438200,1.5622166395187378,-9.75158405303955,1.0330979824066162,0.0029279920272529125,0.0252872034907341,0.02262539230287075
2036748675587,1.5418659448623657,-9.724050521850586,1.0259153842926025,0.0007985432748682797,0.0247548408806324,0.02076212503015995
2036749912987,1.5191209316253662,-9.72165584564209,1.0366894006729126,-0.0037265352439135313,0.0356682650744915,0.0204959437251091
2036751150375,1.5119383335113525,-9.764751434326172,0.9876081943511963,-0.0039927163161337376,0.0340711809694767,0.02369011752307415
2036752387800,1.53707754611969,-9.757569313049316,1.0211269855499268,-0.003460354171693325,0.0263519287109375,0.0252872034907341
2036753625200,1.5394717454910278,-9.738415718078613,1.0103530883789062,0.0053236219100654125,0.02369011752307415,0.02422248013317585
2036754862587,1.5227123498916626,-9.744400978088379,1.0067617893218994,-0.0010647244052961469,0.0327402763068676,0.01783413253724575
2036756099975,1.5382746458053589,-9.75278091430664,1.05105459690094,-0.006122165359556675,0.0306108258664608,0.02369011752307415
2036757337387,1.581370234489441,-9.747992515563965,1.0690110921859741,-0.0010647244052961469,0.0343373604118824,0.02422248013317585
2036758574800,1.5275007486343384,-9.744400978088379,1.0462661981582642,-0.00452507846057415,0.0343373604118824,0.0196974016726017
2036759812175,1.5083470344543457,-9.738415718078613,1.0247182846069336,-0.0053236219100654125,0.0316755510866642,0.0258195661008358
2036761049587,1.5263036489486694,-9.714473724365234,1.0055646896362305,-0.0031941730994731188,0.0340711809694767,0.02794901467859745
2036762286975,1.5490485429763794,-9.750386238098145,1.0211269855499268,-0.0010647244052961469,0.0324740931391716,0.02022976242005825
2036763524375,1.5394717454910278,-9.769539833068848,1.0450690984725952,-0.00452507846057415,0.0359344482421875,0.0220930315554142
2036764761775,1.5095441341400146,-9.787496566772461,1.0618284940719604,-0.0023956298828125,0.0343373604118824,0.0186326764523983
2036765999187,1.5239094495773315,-9.743204116821289,1.0570400953292847,-0.0021294488105922937,0.0359344482421875,0.01756795309484005
2036767236587,1.5490485429763794,-9.786299705505371,1.0319008827209473,-0.0002661811013240367,0.033272635191679,0.02076212503015995
2036768473975,1.5119383335113525,-9.77552604675293,1.0330979824066162,-0.0021294488105922937,0.0324740931391716,0.02022976242005825
2036769711387,1.535880446434021,-9.75397777557373,1.016338586807251,-0.005855984054505825,0.0348697230219841,0.01889885775744915
2036770948787,1.5059528350830078,-9.773131370544434,1.0187327861785889,-0.0015970865497365594,0.03087700717151165,0.01943122036755085
2036772186187,1.5071499347686768,-9.747992515563965,1.0247182846069336,-0.0002661811013240367,0.0340711809694767,0.0181003138422966
2036773423600,1.5298949480056763,-9.764751434326172,1.0211269855499268,-0.0029279920272529125,0.0393948033452034,0.01703559048473835
2036774660987,1.5191209316253662,-9.75517463684082,0.9600749015808105,-0.003460354171693325,0.0338049978017807,0.0186326764523983
2036775898375,1.5215152502059937,-9.7420072555542,0.9911994934082031,-0.006122165359556675,0.0330064557492733,0.01650322787463665
2036777135787,1.5717934370040894,-9.745597839355469,1.0295066833496094,-0.0018632676219567657,0.0327402763068676,0.0191650390625
2036778373187,1.5406688451766968,-9.732430458068848,1.0247182846069336,-0.007453070487827063,0.0300784632563591,0.02076212503015995
2036779610575,1.5382746458053589,-9.77672290802002,1.0067617893218994,-0.005855984054505825,0.0295461006462574,0.01889885775744915
2036780847987,1.5071499347686768,-9.770737648010254,1.0522516965866089,-0.005855984054505825,0.0359344482421875,0.0220930315554142
2036782085362,1.4903905391693115,-9.75517463684082,1.0199298858642578,-0.0029279920272529125,0.0338049978017807,0.01943122036755085
2036783322762,1.5167267322540283,-9.75517463684082,1.0211269855499268,-0.0037265352439135313,0.0306108258664608,0.0196974016726017
2036784560187,1.5263036489486694,-9.761160850524902,1.0402806997299194,-0.00931633822619915,0.0343373604118824,0.0210283063352108
2036785797575,1.5191209316253662,-9.789891242980957,1.0259153842926025,-0.007985432632267475,0.0369991734623909,0.0191650390625
2036787034975,1.5167267322540283,-9.791088104248047,0.9911994934082031,-0.0042588976211845875,0.0375315360724926,0.02076212503015995
2036788272362,1.5514427423477173,-9.758766174316406,1.0211269855499268,-0.0053236219100654125,0.0343373604118824,0.02502102218568325
2036789509775,1.557428240776062,-9.746795654296875,1.0414777994155884,-0.00452507846057415,0.0340711809694767,0.0173017717897892
2036790747162,1.5286978483200073,-9.774328231811523,1.0438719987869263,-0.008517795242369175,0.0359344482421875,0.01117960549890995
2036791984587,1.5406688451766968,-9.758766174316406,1.0079588890075684,-0.00984870083630085,0.0396609827876091,0.0210283063352108
2036793221962,1.5191209316253662,-9.757569313049316,1.0271124839782715,-0.005057440605014563,0.0346035435795784,0.0204959437251091
2036794459375,1.558625340461731,-9.758766174316406,1.048660397529602,-0.0066545275039970875,0.0348697230219841,0.0181003138422966
2036795696787,1.578976035118103,-9.765949249267578,1.0271124839782715,-0.00452507846057415,0.033538818359375,0.01836649514734745
2036796934175,1.5322891473770142,-9.739612579345703,1.0103530883789062,-0.0063883461989462376,0.0330064557492733,0.01889885775744915
2036798171562,1.5514427423477173,-9.730035781860352,0.993593692779541,-0.008251613937318325,0.0362006276845932,0.02076212503015995
2036799408975,1.5191209316253662,-9.756372451782227,1.0307037830352783,-0.008251613937318325,0.0348697230219841,0.015438503585755825
2036800646400,1.4975731372833252,-9.7420072555542,1.0354923009872437,-0.007453070487827063,0.0364668108522892,0.013309055007994175
2036801883762,1.5382746458053589,-9.727641105651855,1.0570400953292847,-0.013042873702943325,0.0377977155148983,0.01783413253724575
2036803121175,1.5550340414047241,-9.817423820495605,1.0103530883789062,-0.01171196810901165,0.0362006276845932,0.01996358297765255
2036804358575,1.5203181505203247,-9.726444244384766,0.970848798751831,-0.00958251953125,0.0314093679189682,0.02315775491297245
2036805595975,1.5382746458053589,-9.756372451782227,1.0115501880645752,-0.010913425125181675,0.0316755510866642,0.0210283063352108
2036806833375,1.557428240776062,-9.759963035583496,1.0414777994155884,-0.01117960549890995,0.0346035435795784,0.0181003138422966
2036808070775,1.5550340414047241,-9.764751434326172,1.0127472877502441,-0.010114881210029125,0.033538818359375,0.01836649514734745
2036809308175,1.5227123498916626,-9.759963035583496,1.0223240852355957,-0.008517795242369175,0.03034464456140995,0.01889885775744915
2036810545587,1.5741876363754272,-9.7420072555542,1.0187327861785889,-0.013042873702943325,0.0348697230219841,0.01889885775744915
2036811782975,1.5538369417190552,-9.730035781860352,1.0307037830352783,-0.008783976547420025,0.0300784632563591,0.02129448764026165
2036813020362,1.5430630445480347,-9.747992515563965,1.0330979824066162,-0.00692070834338665,0.0300784632563591,0.02076212503015995
2036814257775,1.557428240776062,-9.750386238098145,1.0390836000442505,-0.00958251953125,0.033538818359375,0.01357523538172245
2036815495175,1.5634137392044067,-9.770737648010254,1.013944387435913,-0.01357523538172245,0.0330064557492733,0.013042873702943325
2036816732575,1.5322891473770142,-9.744400978088379,1.0007762908935547,-0.010381062515079975,0.0327402763068676,0.0191650390625
2036817969987,1.5418659448623657,-9.725247383117676,1.0330979824066162,-0.015438503585755825,0.0338049978017807,0.01650322787463665
2036819207350,1.5430630445480347,-9.715670585632324,1.0402806997299194,-0.01410759799182415,0.03034464456140995,0.013042873702943325
2036820444762,1.5897499322891235,-9.709685325622559,1.0450690984725952,-0.0071868896484375,0.02901373989880085,0.0181003138422966
2036821682162,1.5849615335464478,-9.743204116821289,1.0642226934432983,-0.00958251953125,0.03087700717151165,0.01703559048473835
2036822919575,1.5741876363754272,-9.736021041870117,1.015141487121582,-0.01224433071911335,0.0351359061896801,0.0138414166867733
2036824156975,1.5945383310317993,-9.728838920593262,1.015141487121582,-0.0090501569211483,0.0258195661008358,0.014906140975654125
2036825394375,1.5837644338607788,-9.726444244384766,1.0522516965866089,-0.00958251953125,0.0252872034907341,0.0196974016726017
2036826631800,1.5406688451766968,-9.75278091430664,1.0271124839782715,-0.0119781494140625,0.0316755510866642,0.01650322787463665
2036827869162,1.5598224401474,-9.703699111938477,1.0007762908935547,-0.00984870083630085,0.0295461006462574,0.01597086526453495
2036829106575,1.5610195398330688,-9.737218856811523,1.0127472877502441,-0.015172322280704975,0.02874755859375,0.014373779296875
2036830343975,1.5705963373184204,-9.746795654296875,1.049857497215271,-0.010381062515079975,0.02901373989880085,0.01171196810901165
2036831581375,1.5538369417190552,-9.739612579345703,1.0690110921859741,-0.00931633822619915,0.0271504707634449,0.012776692397892475
2036832818750,1.6101006269454956,-9.732430458068848,1.0259153842926025,-0.00931633822619915,0.023956298828125,0.014906140975654125
2036834056162,1.5825673341751099,-9.745597839355469,1.0199298858642578,-0.012510511092841625,0.02874755859375,0.013309055007994175
2036835293587,1.53707754611969,-9.724050521850586,1.0809820890426636,-0.012510511092841625,0.0244886614382267,0.00958251953125
2036836530975,1.578976035118103,-9.75517463684082,1.048660397529602,-0.00984870083630085,0.0271504707634449,0.014906140975654125
2036837768362,1.5693992376327515,-9.785102844238281,1.0235211849212646,-0.01410759799182415,0.02555338479578495,0.0191650390625
2036839005775,1.5753847360610962,-9.7791166305542,1.0330979824066162,-0.01224433071911335,0.0204959437251091,0.013309055007994175
2036840243162,1.5825673341751099,-9.756372451782227,1.0307037830352783,-0.003460354171693325,0.02182685025036335,0.010381062515079975
2036841480562,1.5837644338607788,-9.800664901733398,1.0390836000442505,-0.013309055007994175,0.02794901467859745,0.010381062515079975
2036842717975,1.5538369417190552,-9.800664901733398,0.9959878921508789,-0.008517795242369175,0.0268842913210392,0.007985432632267475
2036843955350,1.5765818357467651,-9.77672290802002,1.016338586807251,-0.010381062515079975,0.02608574740588665,0.01357523538172245
2036845192762,1.5502456426620483,-9.793481826782227,1.0462661981582642,-0.01171196810901165,0.02262539230287075,0.013309055007994175
2036846430175,1.5298949480056763,-9.785102844238281,1.0055646896362305,-0.01171196810901165,0.0244886614382267,0.01357523538172245
2036847667575,1.580173134803772,-9.785102844238281,1.015141487121582,-0.01597086526453495,0.02182685025036335,0.0157046839594841
2036848904975,1.5502456426620483,-9.771934509277344,1.0247182846069336,-0.02022976242005825,0.0234239362180233,0.01224433071911335
2036850142387,1.5693992376327515,-9.792284965515137,1.0043675899505615,-0.01410759799182415,0.02502102218568325,0.00984870083630085
2036851379775,1.6101006269454956,-9.750386238098145,1.0187327861785889,-0.01224433071911335,0.0223592109978199,0.0114457868039608
2036852617175,1.600523829460144,-9.727641105651855,1.0103530883789062,-0.0138414166867733,0.0234239362180233,0.0071868896484375
2036853854575,1.5753847360610962,-9.75517463684082,0.9911994934082031,-0.01410759799182415,0.01996358297765255,0.013309055007994175
2036855091975,1.558625340461731,-9.768342971801758,1.0534487962722778,-0.012510511092841625,0.0234239362180233,0.01410759799182415
2036856329362,1.5658079385757446,-9.758766174316406,1.0390836000442505,-0.01410759799182415,0.02182685025036335,0.00958251953125
2036857566775,1.5083470344543457,-9.714473724365234,1.0570400953292847,-0.015438503585755825,0.02129448764026165,0.00958251953125
2036858804162,1.6089035272598267,-9.716867446899414,1.0091559886932373,-0.014906140975654125,0.01783413253724575,0.0119781494140625
2036860041562,1.5682021379470825,-9.71926212310791,1.0067617893218994,-0.013309055007994175,0.0186326764523983,0.00931633822619915
2036861278975,1.5825673341751099,-9.720458984375,1.0103530883789062,-0.01410759799182415,0.02422248013317585,0.008251613937318325
2036862516362,1.558625340461731,-9.736021041870117,0.9959878921508789,-0.0090501569211483,0.02076212503015995,0.0063883461989462376
2036863753737,1.5502456426620483,-9.707290649414062,1.0378865003585815,-0.01117960549890995,0.01996358297765255,0.005589802749454975
2036864991162,1.5705963373184204,-9.68813705444336,1.0019733905792236,-0.0119781494140625,0.0186326764523983,0.008251613937318325
2036866228562,1.5705963373184204,-9.72165584564209,1.0091559886932373,-0.012776692397892475,0.01117960549890995,0.010913425125181675
2036867465962,1.5622166395187378,-9.734824180603027,1.0103530883789062,-0.010913425125181675,0.0167694091796875,0.008783976547420025
2036868703362,1.557428240776062,-9.708487510681152,1.0438719987869263,-0.00984870083630085,0.02022976242005825,0.005855984054505825
2036869940775,1.5634137392044067,-9.714473724365234,1.0414777994155884,-0.012510511092841625,0.0186326764523983,0.008251613937318325
2036871178162,1.556231141090393,-9.72165584564209,1.0031704902648926,-0.015172322280704975,0.014373779296875,0.006122165359556675
2036872415575,1.5322891473770142,-9.6989107131958,0.9971849918365479,-0.01224433071911335,0.0157046839594841,0.0090501569211483
2036873652962,1.5957354307174683,-9.68933391571045,1.0187327861785889,-0.010647243820130825,0.02022976242005825,0.008783976547420025
2036874890362,1.5765818357467651,-9.732430458068848,1.0378865003585815,-0.013042873702943325,0.01996358297765255,0.0021294488105922937
2036876127762,1.5526398420333862,-9.708487510681152,1.0295066833496094,-0.0077192517928779125,0.015438503585755825,0.0053236219100654125
2036877365162,1.5418659448623657,-9.704896926879883,0.9888052940368652,-0.00958251953125,0.01783413253724575,0.006122165359556675
2036878602575,1.5442601442337036,-9.725247383117676,0.9828197956085205,-0.00931633822619915,0.013042873702943325,0.005855984054505825
2036879839962,1.5442601442337036,-9.726444244384766,1.0031704902648926,-0.01224433071911335,0.01703559048473835,0.008517795242369175
2036881077362,1.5502456426620483,-9.714473724365234,1.0199298858642578,-0.010913425125181675,0.0191650390625,0.007985432632267475
2036882314750,1.5909470319747925,-9.744400978088379,1.0414777994155884,-0.01171196810901165,0.01836649514734745,0.0090501569211483
2036883552162,1.5837644338607788,-9.714473724365234,1.0342952013015747,-0.0090501569211483,0.015438503585755825,0.010913425125181675
2036884789575,1.577778935432434,-9.718064308166504,1.0187327861785889,-0.0138414166867733,0.01650322787463665,0.010913425125181675
2036886026975,1.5741876363754272,-9.730035781860352,0.9971849918365479,-0.00984870083630085,0.0167694091796875,0.0029279920272529125
2036887264362,1.5921441316604614,-9.769539833068848,1.0187327861785889,-0.007453070487827063,0.01171196810901165,0.0077192517928779125
2036888501762,1.5610195398330688,-9.728838920593262,0.9756371974945068,-0.005589802749454975,0.010381062515079975,0.014373779296875
2036889739150,1.5885528326034546,-9.7791166305542,1.0211269855499268,-0.00958251953125,0.01463996060192585,0.010913425125181675
2036890976550,1.5705963373184204,-9.727641105651855,1.0055646896362305,-0.00984870083630085,0.015438503585755825,0.00984870083630085
2036892213975,1.5945383310317993,-9.725247383117676,1.016338586807251,-0.00958251953125,0.0119781494140625,0.008517795242369175
2036893451375,1.5981296300888062,-9.718064308166504,0.9900023937225342,-0.010647243820130825,0.00958251953125,0.004791259765625
2036894688775,1.601720929145813,-9.68813705444336,1.0211269855499268,-0.00984870083630085,0.012776692397892475,0.00692070834338665
2036895926175,1.623268723487854,-9.700108528137207,0.993593692779541,-0.00984870083630085,0.00958251953125,0.0053236219100654125
2036897163562,1.599326729774475,-9.757569313049316,0.9911994934082031,-0.0090501569211483,0.012776692397892475,0.0066545275039970875
2036898400975,1.5418659448623657,-9.727641105651855,0.9445126056671143,-0.014373779296875,0.012510511092841625,-0.0015970865497365594
2036899638350,1.5897499322891235,-9.744400978088379,0.950498104095459,-0.012510511092841625,0.01357523538172245,0.004791259765625
2036900875762,1.577778935432434,-9.72165584564209,1.0223240852355957,-0.010647243820130825,0.01117960549890995,0.00692070834338665
2036902113162,1.5538369417190552,-9.743204116821289,1.0307037830352783,-0.010381062515079975,0.014906140975654125,0.005057440605014563
2036903350550,1.5717934370040894,-9.749189376831055,1.016338586807251,-0.007453070487827063,0.014906140975654125,0.0029279920272529125
2036904587962,1.5646108388900757,-9.75397777557373,1.0043675899505615,-0.005057440605014563,0.00931633822619915,0.0021294488105922937
2036905825375,1.5741876363754272,-9.724050521850586,1.0366894006729126,-0.008517795242369175,0.008251613937318325,0.0042588976211845875
2036907062750,1.5729905366897583,-9.745597839355469,1.0067617893218994,-0.0071868896484375,0.012776692397892475,0.0063883461989462376
2036908300175,1.6148890256881714,-9.726444244384766,1.015141487121582,-0.010381062515079975,0.01224433071911335,0.0021294488105922937
2036909537575,1.602918028831482,-9.740809440612793,0.9648633003234863,-0.007985432632267475,0.014373779296875,0.007985432632267475
2036910774962,1.53707754611969,-9.758766174316406,1.0127472877502441,-0.004791259765625,0.012510511092841625,0.008517795242369175
2036912012375,1.5227123498916626,-9.762357711791992,0.9780313968658447,-0.008251613937318325,0.00692070834338665,0.007985432632267475
2036913249762,1.6101006269454956,-9.750386238098145,0.9756371974945068,-0.008517795242369175,0.01117960549890995,0.00452507846057415
2036914487162,1.5610195398330688,-9.745597839355469,1.0091559886932373,-0.008517795242369175,0.01117960549890995,0.00692070834338665
2036915724562,1.5322891473770142,-9.745597839355469,1.0187327861785889,-0.0063883461989462376,0.010381062515079975,0.006122165359556675
2036916961962,1.5921441316604614,-9.746795654296875,0.9900023937225342,-0.0042588976211845875,0.010381062515079975,0.008251613937318325
2036918199350,1.5729905366897583,-9.737218856811523,1.0007762908935547,-0.0018632676219567657,0.008251613937318325,0.0077192517928779125
2036919436750,1.5849615335464478,-9.758766174316406,0.9852139949798584,-0.0053236219100654125,0.01117960549890995,0.0066545275039970875
2036920674162,1.556231141090393,-9.732430458068848,0.9828197956085205,-0.00692070834338665,0.00984870083630085,0.007985432632267475
2036921911562,1.5873557329177856,-9.706093788146973,0.9804255962371826,-0.0090501569211483,0.008783976547420025,0.005589802749454975
2036923148950,1.5897499322891235,-9.716867446899414,0.9864110946655273,-0.008251613937318325,0.01357523538172245,0.0005323622026480734
2036924386375,1.5837644338607788,-9.75278091430664,1.01753568649292,-0.00452507846057415,0.008251613937318325,0.0015970865497365594
2036925623750,1.557428240776062,-9.774328231811523,0.9900023937225342,-0.00452507846057415,0.0066545275039970875,0.00692070834338665
2036926861162,1.5682021379470825,-9.72165584564209,1.0007762908935547,-0.0077192517928779125,0.0119781494140625,0.0023956298828125
2036928098562,1.5514427423477173,-9.732430458068848,1.0187327861785889,-0.006122165359556675,0.012510511092841625,0.0
2036929335950,1.5310920476913452,-9.712079048156738,1.0115501880645752,-0.0071868896484375,0.008517795242369175,0.00452507846057415
2036930573362,1.5251065492630005,-9.704896926879883,0.9445126056671143,-0.004791259765625,0.01224433071911335,0.0066545275039970875
2036931810750,1.5454572439193726,-9.710882186889648,1.0295066833496094,0.0002661811013240367,0.010913425125181675,0.003460354171693325
2036933048162,1.5622166395187378,-9.66419506072998,1.0330979824066162,-0.0026618109550327063,0.0090501569211483,0.0026618109550327063
2036934285562,1.5849615335464478,-9.696516990661621,0.9780313968658447,-0.008783976547420025,0.0114457868039608,0.0039927163161337376
2036935522962,1.5693992376327515,-9.714473724365234,1.0115501880645752,0.0,0.008517795242369175,0.0053236219100654125
2036936760375,1.578976035118103,-9.697713851928711,1.0055646896362305,-0.0013309054775163531,0.00984870083630085,0.0090501569211483
2036937997737,1.5322891473770142,-9.68933391571045,1.0259153842926025,-0.00692070834338665,0.0077192517928779125,0.008783976547420025
2036939235162,1.5885528326034546,-9.712079048156738,0.99479079246521,-0.0029279920272529125,0.005855984054505825,0.0090501569211483
2036940472575,1.5442601442337036,-9.690531730651855,1.0283095836639404,-0.0023956298828125,0.0066545275039970875,0.007453070487827063
2036941709962,1.5682021379470825,-9.672574996948242,1.05105459690094,-0.0013309054775163531,0.010647243820130825,0.00692070834338665
2036942947362,1.5634137392044067,-9.68933391571045,1.0031704902648926,-0.0026618109550327063,0.00984870083630085,0.0053236219100654125
2036944184775,1.534683346748352,-9.684545516967773,1.015141487121582,-0.0005323622026480734,0.01224433071911335,0.004791259765625
2036945422175,1.5981296300888062,-9.744400978088379,1.0319008827209473,0.0002661811013240367,0.0114457868039608,0.006122165359556675
2036946659562,1.5430630445480347,-9.732430458068848,1.0295066833496094,0.0,0.0063883461989462376,0.0053236219100654125
2036947896950,1.5514427423477173,-9.720458984375,1.0414777994155884,0.0002661811013240367,0.0063883461989462376,0.0077192517928779125
2036949134350,1.577778935432434,-9.697713851928711,1.0283095836639404,0.0037265352439135313,0.00931633822619915,0.005057440605014563
2036950371762,1.5430630445480347,-9.733627319335938,0.9959878921508789,-0.0015970865497365594,0.0053236219100654125,0.0042588976211845875
2036951609187,1.556231141090393,-9.75158405303955,0.99479079246521,0.0002661811013240367,0.008783976547420025,0.007453070487827063
2036952846562,1.5622166395187378,-9.704896926879883,0.970848798751831,0.0026618109550327063,0.013309055007994175,0.010647243820130825
2036954083962,1.5717934370040894,-9.715670585632324,1.0295066833496094,-0.0026618109550327063,0.01117960549890995,0.008783976547420025
2036955321375,1.5825673341751099,-9.731232643127441,0.9696516990661621,-0.0023956298828125,0.00452507846057415,0.01171196810901165
2036956558762,1.5705963373184204,-9.714473724365234,1.0043675899505615,0.0029279920272529125,0.006122165359556675,0.00958251953125
2036957796162,1.580173134803772,-9.726444244384766,1.0067617893218994,0.0015970865497365594,0.0037265352439135313,0.007985432632267475
2036959033562,1.5693992376327515,-9.782708168029785,1.0031704902648926,0.0005323622026480734,0.0077192517928779125,0.013309055007994175
2036960270962,1.5502456426620483,-9.743204116821289,1.0055646896362305,0.0063883461989462376,0.01171196810901165,0.008517795242369175
2036961508350,1.5538369417190552,-9.71926212310791,0.9744400978088379,0.0042588976211845875,0.0077192517928779125,0.008251613937318325
2036962745762,1.5598224401474,-9.736021041870117,0.9804255962371826,0.0037265352439135313,0.0071868896484375,0.008783976547420025
2036963983150,1.556231141090393,-9.744400978088379,1.0067617893218994,0.0039927163161337376,0.0071868896484375,0.0077192517928779125
2036965220575,1.5646108388900757,-9.75517463684082,0.99479079246521,0.0053236219100654125,0.005589802749454975,0.007985432632267475
2036966457962,1.5861586332321167,-9.713275909423828,0.9900023937225342,0.005855984054505825,0.007453070487827063,0.008251613937318325
2036967695362,1.5729905366897583,-9.730035781860352,1.0199298858642578,0.0039927163161337376,0.0138414166867733,0.00984870083630085
2036968932750,1.6196774244308472,-9.746795654296875,0.9684545993804932,0.0042588976211845875,0.010913425125181675,0.012776692397892475
2036970170175,1.577778935432434,-9.732430458068848,1.0127472877502441,0.0013309054775163531,0.0015970865497365594,0.00692070834338665
2036971407562,1.5945383310317993,-9.712079048156738,1.016338586807251,0.0039927163161337376,-0.0010647244052961469,0.01117960549890995
2036972644962,1.578976035118103,-9.757569313049316,0.9792284965515137,0.008517795242369175,0.0042588976211845875,0.007985432632267475
2036973882362,1.5909470319747925,-9.744400978088379,1.0187327861785889,0.003460354171693325,0.008783976547420025,0.007453070487827063
2036975119762,1.6136919260025024,-9.72285270690918,0.993593692779541,0.004791259765625,0.0023956298828125,0.00984870083630085
2036976357175,1.5693992376327515,-9.712079048156738,1.0642226934432983,0.0077192517928779125,0.0018632676219567657,0.010114881210029125
2036977594562,1.535880446434021,-9.710882186889648,1.0606313943862915,0.008517795242369175,0.0026618109550327063,0.0114457868039608
2036978831962,1.5658079385757446,-9.740809440612793,1.0390836000442505,0.0071868896484375,0.006122165359556675,0.007453070487827063
2036980069375,1.558625340461731,-9.732430458068848,0.9876081943511963,0.00452507846057415,0.0037265352439135313,0.0077192517928779125
2036981306762,1.5526398420333862,-9.728838920593262,0.9804255962371826,0.0071868896484375,0.0015970865497365594,0.010913425125181675
2036982544162,1.5717934370040894,-9.732430458068848,0.9995791912078857,0.0077192517928779125,0.0066545275039970875,0.012510511092841625
2036983781562,1.5670050382614136,-9.758766174316406,1.016338586807251,0.004791259765625,0.0063883461989462376,0.007985432632267475
2036985018962,1.5729905366897583,-9.728838920593262,1.0043675899505615,0.005855984054505825,0.0031941730994731188,0.00452507846057415
2036986256362,1.5837644338607788,-9.756372451782227,0.9445126056671143,0.01224433071911335,0.0007985432748682797,0.0066545275039970875
2036987493762,1.5622166395187378,-9.747992515563965,0.9995791912078857,0.005589802749454975,0.004791259765625,0.0090501569211483
2036988731175,1.5729905366897583,-9.736021041870117,0.993593692779541,0.00452507846057415,0.005589802749454975,0.00984870083630085
2036989968537,1.5646108388900757,-9.767146110534668,1.0666168928146362,0.005589802749454975,0.0066545275039970875,0.0119781494140625
2036991205962,1.5418659448623657,-9.724050521850586,1.0091559886932373,0.005057440605014563,0.00984870083630085,0.006122165359556675
2036992443375,1.5382746458053589,-9.789891242980957,1.0055646896362305,0.0042588976211845875,0.0066545275039970875,0.0053236219100654125
2036993680775,1.533486247062683,-9.7791166305542,1.0259153842926025,0.003460354171693325,0.0010647244052961469,0.006122165359556675
2036994918175,1.5753847360610962,-9.786299705505371,1.0031704902648926,0.003460354171693325,0.0021294488105922937,0.003460354171693325
2036996155587,1.5526398420333862,-9.764751434326172,1.0247182846069336,0.0077192517928779125,0.0029279920272529125,0.00692070834338665
2036997392950,1.577778935432434,-9.780314445495605,1.0103530883789062,0.007985432632267475,-0.0029279920272529125,0.0063883461989462376
2036998630362,1.5849615335464478,-9.762357711791992,1.0582371950149536,0.010381062515079975,0.0023956298828125,0.003460354171693325
2036999867762,1.557428240776062,-9.782708168029785,1.0522516965866089,0.00958251953125,-0.0013309054775163531,0.007453070487827063
2037001105175,1.5753847360610962,-9.81263542175293,1.071405291557312,0.0013309054775163531,0.0005323622026480734,0.00452507846057415
2037002342575,1.5466543436050415,-9.75517463684082,1.0091559886932373,0.0021294488105922937,0.0063883461989462376,0.0023956298828125
2037003579975,1.5514427423477173,-9.800664901733398,1.0019733905792236,0.0029279920272529125,0.0053236219100654125,0.0077192517928779125
2037004817375,1.600523829460144,-9.816226959228516,1.0103530883789062,0.0013309054775163531,0.0015970865497365594,0.0071868896484375
2037006054775,1.5658079385757446,-9.791088104248047,1.0187327861785889,0.0013309054775163531,-0.0005323622026480734,0.0090501569211483
2037007292175,1.5705963373184204,-9.803058624267578,1.0115501880645752,0.0039927163161337376,0.0031941730994731188,0.00692070834338665
2037008529550,1.6136919260025024,-9.756372451782227,0.9911994934082031,0.010647243820130825,-0.0007985432748682797,0.0037265352439135313
2037009766987,1.599326729774475,-9.804256439208984,0.9995791912078857,0.0042588976211845875,-0.0010647244052961469,0.0042588976211845875
2037011004387,1.5945383310317993,-9.81024169921875,0.99479079246521,0.0010647244052961469,-0.0023956298828125,0.005057440605014563
2037012241775,1.5861586332321167,-9.792284965515137,1.0259153842926025,0.0053236219100654125,-0.0029279920272529125,0.005057440605014563
2037013479162,1.580173134803772,-9.759963035583496,1.0127472877502441,0.00692070834338665,-0.0023956298828125,0.005057440605014563
2037014716575,1.6148890256881714,-9.764751434326172,1.013944387435913,0.003460354171693325,0.0005323622026480734,0.004791259765625
2037015953962,1.558625340461731,-9.756372451782227,1.0055646896362305,0.0029279920272529125,0.005057440605014563,0.0026618109550327063
2037017191375,1.5885528326034546,-9.791088104248047,1.01753568649292,0.0007985432748682797,-0.0013309054775163531,0.00452507846057415
2037018428787,1.6077064275741577,-9.764751434326172,0.9923965930938721,0.0026618109550327063,-0.007453070487827063,0.00958251953125
2037019666175,1.599326729774475,-9.792284965515137,0.9828197956085205,0.0,-0.0007985432748682797,0.0053236219100654125
2037020903587,1.5849615335464478,-9.782708168029785,0.9828197956085205,0.0,-0.0031941730994731188,0.0037265352439135313
2037022140962,1.5921441316604614,-9.75397777557373,1.0223240852355957,-0.003460354171693325,-0.0077192517928779125,0.0005323622026480734
2037023378375,1.5454572439193726,-9.764751434326172,0.9995791912078857,-0.003460354171693325,-0.0013309054775163531,0.0005323622026480734
2037024615762,1.6077064275741577,-9.781511306762695,1.0103530883789062,-0.0002661811013240367,-0.0026618109550327063,0.004791259765625
2037025853187,1.5981296300888062,-9.785102844238281,0.9768342971801758,0.0021294488105922937,-0.0029279920272529125,0.0037265352439135313
2037027090587,1.5741876363754272,-9.77672290802002,0.9900023937225342,-0.0021294488105922937,-0.0010647244052961469,-0.0018632676219567657
2037028327962,1.5741876363754272,-9.803058624267578,1.0271124839782715,-0.0053236219100654125,0.0010647244052961469,-0.0013309054775163531
2037029565375,1.5406688451766968,-9.75397777557373,1.0283095836639404,-0.0029279920272529125,0.0002661811013240367,-0.0013309054775163531
2037030802762,1.6268600225448608,-9.737218856811523,0.9888052940368652,-0.0010647244052961469,-0.0013309054775163531,0.003460354171693325
2037032040175,1.5933412313461304,-9.746795654296875,0.9660604000091553,-0.0029279920272529125,-0.004791259765625,0.0039927163161337376
2037033277575,1.5729905366897583,-9.747992515563965,1.049857497215271,-0.00452507846057415,-0.0026618109550327063,0.0002661811013240367
2037034514962,1.624465823173523,-9.744400978088379,1.0079588890075684,-0.0042588976211845875,-0.0037265352439135313,0.0021294488105922937
2037035752387,1.5981296300888062,-9.750386238098145,1.0833762884140015,-0.003460354171693325,-0.0007985432748682797,0.0005323622026480734
2037036989787,1.6065093278884888,-9.782708168029785,0.9828197956085205,-0.005057440605014563,-0.0005323622026480734,0.0013309054775163531
2037038227175,1.577778935432434,-9.743204116821289,1.0115501880645752,-0.00452507846057415,-0.005855984054505825,0.0018632676219567657
2037039464562,1.577778935432434,-9.737218856811523,1.0115501880645752,-0.004791259765625,-0.005855984054505825,-0.0010647244052961469
2037040701987,1.5969325304031372,-9.743204116821289,0.9983820915222168,-0.005855984054505825,-0.0042588976211845875,0.0
2037041939375,1.5921441316604614,-9.72285270690918,1.0007762908935547,-0.0031941730994731188,-0.0037265352439135313,0.004791259765625
2037043176775,1.5873557329177856,-9.757569313049316,1.0007762908935547,-0.0063883461989462376,-0.0015970865497365594,0.0029279920272529125
2037044414187,1.5957354307174683,-9.743204116821289,0.9971849918365479,-0.003460354171693325,-0.0039927163161337376,0.0031941730994731188
2037045651587,1.5981296300888062,-9.725247383117676,1.0115501880645752,-0.007453070487827063,-0.008783976547420025,0.006122165359556675
2037046888987,1.6053122282028198,-9.734824180603027,0.9852139949798584,-0.00452507846057415,-0.00958251953125,0.0037265352439135313
2037048126375,1.581370234489441,-9.750386238098145,1.0630255937576294,-0.0023956298828125,-0.0063883461989462376,0.0037265352439135313
2037049363787,1.5861586332321167,-9.780314445495605,1.0342952013015747,-0.0018632676219567657,-0.0090501569211483,0.0037265352439135313
2037050601187,1.5765818357467651,-9.718064308166504,0.9876081943511963,-0.005589802749454975,-0.010647243820130825,0.005057440605014563
2037051838587,1.6053122282028198,-9.725247383117676,1.0091559886932373,-0.004791259765625,-0.010381062515079975,0.007985432632267475
2037053075975,1.6041151285171509,-9.709685325622559,1.0103530883789062,-0.0002661811013240367,-0.0066545275039970875,0.010647243820130825
2037054313387,1.6053122282028198,-9.712079048156738,0.9588778018951416,-0.0005323622026480734,-0.013042873702943325,0.0077192517928779125
2037055550787,1.6160861253738403,-9.749189376831055,0.9588778018951416,-0.005589802749454975,-0.0090501569211483,0.005855984054505825
2037056788187,1.6077064275741577,-9.728838920593262,1.015141487121582,-0.005057440605014563,-0.008783976547420025,0.0077192517928779125
2037058025575,1.6196774244308472,-9.728838920593262,1.016338586807251,-0.0042588976211845875,-0.0066545275039970875,0.0071868896484375
2037059262987,1.623268723487854,-9.702502250671387,1.0055646896362305,0.0026618109550327063,0.0013309054775163531,0.010647243820130825
2037060500412,1.6280571222305298,-9.730035781860352,1.01753568649292,0.0,-0.0071868896484375,0.01357523538172245
2037061737787,1.6304513216018677,-9.740809440612793,1.0247182846069336,-0.0042588976211845875,-0.01117960549890995,0.010114881210029125
2037062975200,1.6053122282028198,-9.744400978088379,0.9852139949798584,-0.0005323622026480734,-0.01117960549890995,0.01117960549890995
2037064212600,1.6304513216018677,-9.718064308166504,0.9959878921508789,0.0015970865497365594,-0.010381062515079975,0.01597086526453495
2037065449987,1.6089035272598267,-9.75158405303955,0.9923965930938721,-0.0005323622026480734,-0.0066545275039970875,0.01224433071911335
2037066687400,1.6065093278884888,-9.709685325622559,0.9804255962371826,-0.0013309054775163531,-0.00984870083630085,0.014373779296875
2037067924800,1.5969325304031372,-9.749189376831055,1.0103530883789062,-0.0007985432748682797,-0.00958251953125,0.015438503585755825
2037069162200,1.5921441316604614,-9.700108528137207,1.016338586807251,0.0005323622026480734,-0.01117960549890995,0.01410759799182415
2037070399600,1.6101006269454956,-9.680954933166504,1.01753568649292,0.0005323622026480734,-0.012776692397892475,0.015438503585755825
2037071636987,1.6196774244308472,-9.708487510681152,1.0055646896362305,0.0023956298828125,-0.013042873702943325,0.0138414166867733
2037072874400,1.602918028831482,-9.737218856811523,0.99479079246521,0.0042588976211845875,-0.01117960549890995,0.0173017717897892
2037074111787,1.6172832250595093,-9.724050521850586,1.0043675899505615,0.005589802749454975,-0.012510511092841625,0.015438503585755825
2037075349200,1.5945383310317993,-9.71926212310791,1.0558429956436157,-0.0002661811013240367,-0.00984870083630085,0.013309055007994175
2037076586587,1.6148890256881714,-9.670180320739746,1.0115501880645752,0.0010647244052961469,-0.01117960549890995,0.01756795309484005
2037077824000,1.599326729774475,-9.733627319335938,1.01753568649292,0.0042588976211845875,-0.00984870083630085,0.0173017717897892
2037079061375,1.6292542219161987,-9.690531730651855,1.0019733905792236,0.003460354171693325,-0.01410759799182415,0.02848137728869915
2037080298800,1.6352397203445435,-9.701305389404297,1.0067617893218994,0.0002661811013240367,-0.01597086526453495,0.02608574740588665
2037081536200,1.6531963348388672,-9.682151794433594,1.0079588890075684,0.003460354171693325,-0.01463996060192585,0.0191650390625
2037082773587,1.625662922859192,-9.690531730651855,0.9744400978088379,0.003460354171693325,-0.01836649514734745,0.01889885775744915
2037084010987,1.5909470319747925,-9.716867446899414,1.0043675899505615,0.006122165359556675,-0.01943122036755085,0.01943122036755085
2037085248400,1.624465823173523,-9.716867446899414,1.0390836000442505,0.0042588976211845875,-0.0191650390625,0.01943122036755085
2037086485800,1.6136919260025024,-9.6989107131958,1.013944387435913,0.0007985432748682797,-0.02076212503015995,0.0223592109978199
2037087723200,1.623268723487854,-9.68574333190918,1.0019733905792236,0.008251613937318325,-0.02076212503015995,0.0276828333735466
2037088960600,1.6148890256881714,-9.709685325622559,0.9995791912078857,0.007985432632267475,-0.0228915736079216,0.0204959437251091
2037090197987,1.6376339197158813,-9.697713851928711,1.0378865003585815,0.008783976547420025,-0.0173017717897892,0.02129448764026165
2037091435400,1.5885528326034546,-9.691728591918945,1.0247182846069336,0.010381062515079975,-0.015438503585755825,0.02369011752307415
2037092672762,1.6208745241165161,-9.683348655700684,1.0187327861785889,0.0114457868039608,-0.02502102218568325,0.0252872034907341
2037093910212,1.6112977266311646,-9.713275909423828,1.0522516965866089,0.007985432632267475,-0.0252872034907341,0.02901373989880085
2037095147587,1.6208745241165161,-9.692925453186035,1.0319008827209473,0.0090501569211483,-0.01996358297765255,0.02981228195130825
2037096385000,1.5981296300888062,-9.730035781860352,0.9792284965515137,0.013042873702943325,-0.02129448764026165,0.02661811001598835
2037097622400,1.6124948263168335,-9.6989107131958,0.9971849918365479,0.010381062515079975,-0.0244886614382267,0.02661811001598835
2037098859812,1.624465823173523,-9.737218856811523,1.0127472877502441,0.00984870083630085,-0.0220930315554142,0.02794901467859745
2037100097212,1.6340426206588745,-9.716867446899414,1.0007762908935547,0.0114457868039608,-0.02741665206849575,0.0234239362180233
2037101334600,1.6208745241165161,-9.740809440612793,1.0330979824066162,0.01357523538172245,-0.0263519287109375,0.02741665206849575
2037102571987,1.5682021379470825,-9.75158405303955,1.0534487962722778,0.01357523538172245,-0.02369011752307415,0.02555338479578495
2037103809400,1.6112977266311646,-9.716867446899414,1.0271124839782715,0.0114457868039608,-0.02076212503015995,0.0271504707634449
2037105046800,1.5825673341751099,-9.72165584564209,1.0354923009872437,0.013042873702943325,-0.02182685025036335,0.01996358297765255
2037106284200,1.5969325304031372,-9.713275909423828,1.0330979824066162,0.0138414166867733,-0.02794901467859745,0.0268842913210392
2037107521587,1.5885528326034546,-9.731232643127441,1.0330979824066162,0.013042873702943325,-0.02555338479578495,0.03034464456140995
2037108759000,1.5945383310317993,-9.738415718078613,1.0295066833496094,0.01410759799182415,-0.0223592109978199,0.0247548408806324
2037109996400,1.5981296300888062,-9.727641105651855,1.0007762908935547,0.013042873702943325,-0.0258195661008358,0.0220930315554142
2037111233787,1.580173134803772,-9.732430458068848,1.0354923009872437,0.013309055007994175,-0.0292799212038517,0.02369011752307415
2037112471212,1.6172832250595093,-9.728838920593262,1.0690110921859741,0.0157046839594841,-0.0263519287109375,0.0223592109978199
2037113708612,1.6160861253738403,-9.730035781860352,1.071405291557312,0.013309055007994175,-0.0252872034907341,0.02182685025036335
2037114946025,1.5753847360610962,-9.712079048156738,1.0055646896362305,0.01463996060192585,-0.02661811001598835,0.02794901467859745
2037116183400,1.580173134803772,-9.696516990661621,1.072602391242981,0.00958251953125,-0.02422248013317585,0.02874755859375
2037117420800,1.601720929145813,-9.764751434326172,1.0067617893218994,0.01410759799182415,-0.0271504707634449,0.02369011752307415
2037118658212,1.5765818357467651,-9.739612579345703,1.0690110921859741,0.01410759799182415,-0.0306108258664608,0.02422248013317585
2037119895600,1.6124948263168335,-9.739612579345703,1.0031704902648926,0.015172322280704975,-0.0319417305290699,0.02848137728869915
2037121132987,1.6077064275741577,-9.769539833068848,1.0043675899505615,0.01463996060192585,-0.0324740931391716,0.0258195661008358
2037122370412,1.5849615335464478,-9.75158405303955,1.0019733905792236,0.01756795309484005,-0.0292799212038517,0.0271504707634449
2037123607812,1.5897499322891235,-9.71926212310791,0.99479079246521,0.0167694091796875,-0.0338049978017807,0.02981228195130825
2037124845212,1.624465823173523,-9.747992515563965,0.9792284965515137,0.0138414166867733,-0.0319417305290699,0.02848137728869915
2037126082612,1.5490485429763794,-9.75517463684082,0.9864110946655273,0.013309055007994175,-0.02874755859375,0.02608574740588665
2037127320012,1.5634137392044067,-9.758766174316406,1.01753568649292,0.012776692397892475,-0.0295461006462574,0.02502102218568325
2037128557412,1.5969325304031372,-9.730035781860352,0.9923965930938721,0.015172322280704975,-0.0319417305290699,0.0234239362180233
2037129794812,1.5682021379470825,-9.761160850524902,1.0103530883789062,0.0215606689453125,-0.0311431884765625,0.0268842913210392
2037131032225,1.6077064275741577,-9.72165584564209,0.993593692779541,0.0138414166867733,-0.0343373604118824,0.03034464456140995
2037132269612,1.5825673341751099,-9.733627319335938,0.9540894031524658,0.012776692397892475,-0.0391286201775074,0.0292799212038517
2037133507000,1.5849615335464478,-9.746795654296875,0.9612720012664795,0.01463996060192585,-0.033272635191679,0.0258195661008358
2037134744400,1.602918028831482,-9.736021041870117,1.0127472877502441,0.0181003138422966,-0.02874755859375,0.02022976242005825
2037135981800,1.5957354307174683,-9.749189376831055,1.0211269855499268,0.01171196810901165,-0.033538818359375,0.02369011752307415
2037137219225,1.581370234489441,-9.75278091430664,0.9900023937225342,0.015172322280704975,-0.033538818359375,0.02981228195130825
2037138456612,1.5849615335464478,-9.724050521850586,0.9684545993804932,0.0167694091796875,-0.0348697230219841,0.03087700717151165
2037139694012,1.5729905366897583,-9.738415718078613,1.05105459690094,0.015438503585755825,-0.0362006276845932,0.0258195661008358
2037140931412,1.5741876363754272,-9.727641105651855,0.9888052940368652,0.01703559048473835,-0.0385962575674057,0.02422248013317585
2037142168812,1.5753847360610962,-9.75517463684082,1.0295066833496094,0.015172322280704975,-0.0388624407351017,0.0343373604118824
2037143406212,1.5753847360610962,-9.739612579345703,1.05105459690094,0.01410759799182415,-0.0348697230219841,0.0306108258664608
2037144643612,1.535880446434021,-9.736021041870117,0.9864110946655273,0.01357523538172245,-0.0359344482421875,0.02741665206849575
2037145881012,1.5478514432907104,-9.734824180603027,1.0127472877502441,0.01357523538172245,-0.0412580706179142,0.0276828333735466
2037147118412,1.5825673341751099,-9.728838920593262,1.0247182846069336,0.01836649514734745,-0.0415242500603199,0.0319417305290699
2037148355812,1.5442601442337036,-9.747992515563965,1.0283095836639404,0.01996358297765255,-0.0399271659553051,0.0314093679189682
2037149593212,1.5717934370040894,-9.731232643127441,0.9684545993804932,0.01650322787463665,-0.0388624407351017,0.0343373604118824
2037150830600,1.5382746458053589,-9.75278091430664,1.0594342947006226,0.013309055007994175,-0.0354020856320858,0.0306108258664608
2037152068012,1.600523829460144,-9.747992515563965,1.0450690984725952,0.015438503585755825,-0.038330078125,0.02369011752307415
2037153305412,1.5729905366897583,-9.803058624267578,1.05105459690094,0.0157046839594841,-0.038063894957304,0.0244886614382267
2037154542812,1.5873557329177856,-9.773131370544434,1.0211269855499268,0.014373779296875,-0.0407257080078125,0.0311431884765625
2037155780212,1.5693992376327515,-9.756372451782227,1.0091559886932373,0.013042873702943325,-0.0433875173330307,0.0343373604118824
2037157017612,1.5263036489486694,-9.749189376831055,1.0809820890426636,0.013309055007994175,-0.0407257080078125,0.02794901467859745
2037158255025,1.581370234489441,-9.771934509277344,1.0618284940719604,0.012776692397892475,-0.0399271659553051,0.033538818359375
2037159492425,1.6101006269454956,-9.792284965515137,1.0235211849212646,0.013309055007994175,-0.038330078125,0.033272635191679
2037160729825,1.5382746458053589,-9.744400978088379,0.99479079246521,0.01410759799182415,-0.0385962575674057,0.0300784632563591
2037161967212,1.5454572439193726,-9.715670585632324,1.049857497215271,0.01410759799182415,-0.038330078125,0.0324740931391716
2037163204612,1.5490485429763794,-9.750386238098145,1.048660397529602,0.014373779296875,-0.0343373604118824,0.0271504707634449
2037164442012,1.5430630445480347,-9.757569313049316,0.9852139949798584,0.0181003138422966,-0.0412580706179142,0.0367329902946949
2037165679412,1.535880446434021,-9.773131370544434,1.049857497215271,0.01597086526453495,-0.0401933453977108,0.0311431884765625
2037166916812,1.5215152502059937,-9.759963035583496,1.048660397529602,0.01410759799182415,-0.0388624407351017,0.0385962575674057
2037168154225,1.5059528350830078,-9.78869342803955,1.0295066833496094,0.0173017717897892,-0.043121337890625,0.0346035435795784
2037169391625,1.5263036489486694,-9.768342971801758,1.01753568649292,0.0167694091796875,-0.0375315360724926,0.0324740931391716
2037170629037,1.5622166395187378,-9.767146110534668,1.0199298858642578,0.01703559048473835,-0.0372653529047966,0.0396609827876091
2037171866412,1.5275007486343384,-9.773131370544434,1.0354923009872437,0.01597086526453495,-0.0423227921128273,0.033538818359375
2037173103825,1.53707754611969,-9.794679641723633,1.0079588890075684,0.014906140975654125,-0.0385962575674057,0.0330064557492733
2037174341225,1.5298949480056763,-9.762357711791992,1.0666168928146362,0.012776692397892475,-0.0399271659553051,0.03087700717151165
2037175578625,1.5203181505203247,-9.77791976928711,0.9923965930938721,0.0186326764523983,-0.0455169677734375,0.0319417305290699
2037176816012,1.5227123498916626,-9.768342971801758,1.0366894006729126,0.0157046839594841,-0.0425889752805233,0.0327402763068676
2037178053425,1.5083470344543457,-9.804256439208984,1.0450690984725952,0.014373779296875,-0.0417904332280159,0.0354020856320858
2037179290825,1.535880446434021,-9.81024169921875,1.05105459690094,0.01463996060192585,-0.0415242500603199,0.0356682650744915
2037180528212,1.5071499347686768,-9.757569313049316,1.0390836000442505,0.0162370465695858,-0.0401933453977108,0.033272635191679
2037181765625,1.5298949480056763,-9.77552604675293,1.0223240852355957,0.0138414166867733,-0.0420566126704216,0.0377977155148983
2037183003037,1.5454572439193726,-9.81024169921875,0.9888052940368652,0.00984870083630085,-0.0372653529047966,0.0324740931391716
2037184240437,1.5275007486343384,-9.756372451782227,0.9911994934082031,0.015172322280704975,-0.0324740931391716,0.0324740931391716
2037185477825,1.5095441341400146,-9.782708168029785,1.0582371950149536,0.01463996060192585,-0.0393948033452034,0.0340711809694767
2037186715237,1.5394717454910278,-9.80904483795166,1.0905588865280151,0.0157046839594841,-0.0377977155148983,0.0316755510866642
2037187952637,1.5191209316253662,-9.736021041870117,1.0390836000442505,0.01171196810901165,-0.0369991734623909,0.0306108258664608
2037189190037,1.5251065492630005,-9.794679641723633,1.0438719987869263,0.0119781494140625,-0.038063894957304,0.03087700717151165
2037190427437,1.5406688451766968,-9.774328231811523,1.0785878896713257,0.013309055007994175,-0.0354020856320858,0.0319417305290699
2037191664825,1.4700398445129395,-9.785102844238281,1.0558429956436157,0.01410759799182415,-0.038063894957304,0.0295461006462574
2037192902225,1.4688427448272705,-9.799468040466309,1.0319008827209473,0.014906140975654125,-0.0385962575674057,0.03034464456140995
2037194139637,1.4736311435699463,-9.77672290802002,1.0462661981582642,0.014373779296875,-0.038330078125,0.02901373989880085
2037195377012,1.5107412338256836,-9.797073364257812,1.0366894006729126,0.012510511092841625,-0.0393948033452034,0.0295461006462574
2037196614437,1.479616641998291,-9.77791976928711,1.0450690984725952,0.0090501569211483,-0.033272635191679,0.02661811001598835
2037197851825,1.5071499347686768,-9.797073364257812,1.0043675899505615,0.01357523538172245,-0.0340711809694767,0.033538818359375
2037199089212,1.5251065492630005,-9.829395294189453,1.0235211849212646,0.0119781494140625,-0.0359344482421875,0.0327402763068676
2037200326612,1.4939818382263184,-9.816226959228516,1.0259153842926025,0.005855984054505825,-0.0316755510866642,0.02901373989880085
2037201564050,1.4856021404266357,-9.756372451782227,1.016338586807251,0.01117960549890995,-0.02981228195130825,0.0271504707634449
2037202801437,1.4951789379119873,-9.771934509277344,1.070208191871643,0.00931633822619915,-0.033538818359375,0.0210283063352108
2037204038837,1.50355863571167,-9.77791976928711,1.0534487962722778,0.005589802749454975,-0.033272635191679,0.0295461006462574
2037205276250,1.4772224426269531,-9.81143856048584,1.0414777994155884,0.010114881210029125,-0.0385962575674057,0.0292799212038517
2037206513625,1.5167267322540283,-9.795876502990723,1.0283095836639404,0.010913425125181675,-0.0362006276845932,0.03034464456140995
2037207751037,1.5286978483200073,-9.77552604675293,1.0187327861785889,0.01410759799182415,-0.0322079136967659,0.0346035435795784
2037208988450,1.4891934394836426,-9.771934509277344,1.0558429956436157,0.010114881210029125,-0.03034464456140995,0.0282151959836483
2037210225837,1.4963760375976562,-9.780314445495605,1.05105459690094,0.005855984054505825,-0.02874755859375,0.02874755859375
2037211463250,1.4700398445129395,-9.794679641723633,1.0366894006729126,0.010381062515079975,-0.02981228195130825,0.02741665206849575
2037212700650,1.4472949504852295,-9.783905029296875,1.0618284940719604,0.00931633822619915,-0.0300784632563591,0.0271504707634449
2037213938025,1.4724340438842773,-9.792284965515137,1.0450690984725952,0.0071868896484375,-0.0252872034907341,0.02848137728869915
2037215175425,1.502361536026001,-9.774328231811523,1.0965443849563599,0.005057440605014563,-0.0258195661008358,0.0215606689453125
2037216412837,1.4664485454559326,-9.787496566772461,1.0426748991012573,0.008251613937318325,-0.0247548408806324,0.0271504707634449
2037217650250,1.4748282432556152,-9.800664901733398,1.0378865003585815,0.008517795242369175,-0.0263519287109375,0.0295461006462574
2037218887625,1.4460978507995605,-9.763554573059082,1.0366894006729126,0.008517795242369175,-0.02741665206849575,0.0271504707634449
2037220125037,1.4891934394836426,-9.786299705505371,1.0354923009872437,0.005057440605014563,-0.0263519287109375,0.02502102218568325
2037221362437,1.4449007511138916,-9.764751434326172,1.0857704877853394,0.008517795242369175,-0.02555338479578495,0.0292799212038517
2037222599825,1.4520833492279053,-9.758766174316406,1.049857497215271,0.0090501569211483,-0.0220930315554142,0.0276828333735466
2037223837237,1.4867992401123047,-9.734824180603027,1.049857497215271,0.007985432632267475,-0.015172322280704975,0.02315775491297245
2037225074637,1.456871747970581,-9.765949249267578,1.094150185585022,0.005855984054505825,-0.023956298828125,0.0292799212038517
2037226312062,1.4772224426269531,-9.77672290802002,1.0606313943862915,0.007985432632267475,-0.01996358297765255,0.0252872034907341
2037227549450,1.4891934394836426,-9.749189376831055,1.0785878896713257,0.01117960549890995,-0.02555338479578495,0.02369011752307415
2037228786837,1.4628572463989258,-9.769539833068848,1.0833762884140015,0.010647243820130825,-0.0295461006462574,0.023956298828125
2037230024250,1.478419542312622,-9.716867446899414,1.072602391242981,0.003460354171693325,-0.0191650390625,0.023956298828125
2037231261650,1.4832079410552979,-9.767146110534668,1.0187327861785889,0.0039927163161337376,-0.01703559048473835,0.02555338479578495
2037232499050,1.5167267322540283,-9.756372451782227,1.05105459690094,0.0090501569211483,-0.0215606689453125,0.0268842913210392
2037233736437,1.5179238319396973,-9.732430458068848,1.0366894006729126,0.007985432632267475,-0.0196974016726017,0.0234239362180233
2037234973837,1.4939818382263184,-9.730035781860352,1.0654197931289673,0.007985432632267475,-0.0196974016726017,0.0220930315554142
2037236211237,1.482010841369629,-9.786299705505371,1.0558429956436157,0.0063883461989462376,-0.01996358297765255,0.02661811001598835
2037237448650,1.4879963397979736,-9.770737648010254,1.0678139925003052,0.0063883461989462376,-0.0210283063352108,0.02874755859375
2037238686037,1.456871747970581,-9.765949249267578,1.0271124839782715,0.0077192517928779125,-0.01836649514734745,0.0247548408806324
2037239923450,1.4975731372833252,-9.792284965515137,1.0330979824066162,0.008517795242369175,-0.0114457868039608,0.0271504707634449
2037241160825,1.4856021404266357,-9.773131370544434,1.0283095836639404,0.0090501569211483,-0.01463996060192585,0.02555338479578495
2037242398250,1.4760253429412842,-9.750386238098145,1.094150185585022,0.003460354171693325,-0.01597086526453495,0.02129448764026165
2037243635650,1.4736311435699463,-9.771934509277344,1.0271124839782715,0.0037265352439135313,-0.0138414166867733,0.0234239362180233
2037244873025,1.4257471561431885,-9.769539833068848,1.05105459690094,0.010114881210029125,-0.013042873702943325,0.0223592109978199
2037246110437,1.456871747970581,-9.787496566772461,1.0390836000442505,0.01117960549890995,-0.01597086526453495,0.02422248013317585
2037247347837,1.4891934394836426,-9.786299705505371,1.05105459690094,0.00692070834338665,-0.01171196810901165,0.02182685025036335
2037248585250,1.4963760375976562,-9.75397777557373,1.0618284940719604,0.0042588976211845875,-0.01224433071911335,0.0223592109978199
2037249822625,1.4712369441986084,-9.789891242980957,1.0845733880996704,0.0071868896484375,-0.012510511092841625,0.02555338479578495
2037251060075,1.4688427448272705,-9.757569313049316,1.016338586807251,0.0066545275039970875,-0.012776692397892475,0.02555338479578495
2037252297462,1.4712369441986084,-9.795876502990723,1.0079588890075684,0.006122165359556675,-0.010381062515079975,0.0282151959836483
2037253534850,1.4856021404266357,-9.794679641723633,1.049857497215271,0.0007985432748682797,-0.010913425125181675,0.0196974016726017
2037254772250,1.4856021404266357,-9.759963035583496,1.0223240852355957,0.003460354171693325,-0.013042873702943325,0.02262539230287075
2037256009650,1.460463047027588,-9.781511306762695,1.0570400953292847,0.0042588976211845875,-0.0119781494140625,0.02794901467859745
2037257247062,1.5203181505203247,-9.798270225524902,1.0642226934432983,0.0023956298828125,-0.010913425125181675,0.02901373989880085
2037258484462,1.4736311435699463,-9.794679641723633,1.0570400953292847,0.00452507846057415,-0.005855984054505825,0.0210283063352108
2037259721850,1.4437036514282227,-9.758766174316406,1.0809820890426636,0.0018632676219567657,-0.0053236219100654125,0.0234239362180233
2037260959262,1.4915876388549805,-9.77552604675293,1.0438719987869263,0.0031941730994731188,-0.008251613937318325,0.02981228195130825
2037262196650,1.4472949504852295,-9.781511306762695,1.016338586807251,0.0023956298828125,-0.0053236219100654125,0.023956298828125
2037263434062,1.4760253429412842,-9.793481826782227,1.0127472877502441,-0.0026618109550327063,-0.008251613937318325,0.02129448764026165
2037264671450,1.4867992401123047,-9.77552604675293,1.0019733905792236,-0.0007985432748682797,-0.007985432632267475,0.02422248013317585
2037265908862,1.4963760375976562,-9.767146110534668,1.047463297843933,0.0007985432748682797,-0.0053236219100654125,0.0271504707634449
2037267146262,1.5095441341400146,-9.769539833068848,1.0127472877502441,0.0007985432748682797,-0.0037265352439135313,0.02502102218568325
2037268383662,1.4676456451416016,-9.791088104248047,0.9971849918365479,-0.004791259765625,-0.007985432632267475,0.0247548408806324
2037269621062,1.4664485454559326,-9.773131370544434,1.0582371950149536,0.0007985432748682797,-0.003460354171693325,0.0244886614382267
2037270858450,1.455674648284912,-9.795876502990723,1.0522516965866089,0.0023956298828125,-0.0021294488105922937,0.02369011752307415
2037272095850,1.43532395362854,-9.764751434326172,1.0402806997299194,-0.0026618109550327063,-0.0039927163161337376,0.0276828333735466
2037273333262,1.4520833492279053,-9.806650161743164,1.0390836000442505,-0.005589802749454975,-0.0013309054775163531,0.02315775491297245
2037274570662,1.479616641998291,-9.757569313049316,1.0259153842926025,-0.0037265352439135313,-0.0031941730994731188,0.0268842913210392
2037275808062,1.4748282432556152,-9.769539833068848,1.0330979824066162,-0.0042588976211845875,-0.0023956298828125,0.02794901467859745
2037277045462,1.479616641998291,-9.805453300476074,1.0366894006729126,-0.0018632676219567657,-0.0029279920272529125,0.0295461006462574
2037278282862,1.4903905391693115,-9.798270225524902,1.0342952013015747,0.0007985432748682797,-0.0029279920272529125,0.03087700717151165
2037279520250,1.4508862495422363,-9.807847023010254,1.0570400953292847,-0.00452507846057415,0.0005323622026480734,0.0319417305290699
2037280757662,1.5143325328826904,-9.771934509277344,1.0235211849212646,-0.0077192517928779125,0.0007985432748682797,0.0282151959836483
2037281995050,1.534683346748352,-9.77672290802002,0.9983820915222168,-0.0018632676219567657,-0.0007985432748682797,0.0330064557492733
2037283232462,1.479616641998291,-9.762357711791992,0.9923965930938721,-0.0023956298828125,-0.0026618109550327063,0.0401933453977108
2037284469875,1.4736311435699463,-9.730035781860352,1.0115501880645752,-0.0066545275039970875,-0.0031941730994731188,0.0340711809694767
2037285707262,1.4844050407409668,-9.795876502990723,1.0534487962722778,-0.0039927163161337376,-0.005057440605014563,0.03087700717151165
2037286944662,1.502361536026001,-9.747992515563965,1.0546458959579468,-0.0042588976211845875,-0.003460354171693325,0.0295461006462574
2037288182062,1.5155296325683594,-9.782708168029785,1.0558429956436157,-0.007453070487827063,0.0,0.0276828333735466
2037289419462,1.50355863571167,-9.75278091430664,1.0450690984725952,-0.0071868896484375,0.0007985432748682797,0.02901373989880085
2037290656875,1.460463047027588,-9.793481826782227,1.0390836000442505,-0.007985432632267475,-0.0053236219100654125,0.02981228195130825
2037291894275,1.4927847385406494,-9.787496566772461,1.0426748991012573,-0.00692070834338665,-0.004791259765625,0.03087700717151165
2037293131700,1.499967336654663,-9.797073364257812,1.0127472877502441,-0.0063883461989462376,-0.0015970865497365594,0.0314093679189682
2037294369087,1.4903905391693115,-9.7791166305542,0.9959878921508789,-0.0077192517928779125,-0.005589802749454975,0.03087700717151165
2037295606462,1.501164436340332,-9.7791166305542,1.0666168928146362,-0.008783976547420025,-0.0010647244052961469,0.02874755859375
2037296843875,1.4867992401123047,-9.787496566772461,1.0115501880645752,-0.00958251953125,0.0002661811013240367,0.0268842913210392
2037298081275,1.482010841369629,-9.774328231811523,1.0247182846069336,-0.007453070487827063,-0.0042588976211845875,0.0300784632563591
2037299318662,1.4844050407409668,-9.770737648010254,1.0007762908935547,-0.00692070834338665,-0.0007985432748682797,0.02608574740588665
2037300556075,1.4903905391693115,-9.818621635437012,1.0354923009872437,-0.010114881210029125,-0.0015970865497365594,0.02901373989880085
2037301793475,1.436521053314209,-9.782708168029785,1.0402806997299194,-0.008517795242369175,-0.0037265352439135313,0.0292799212038517
2037303030875,1.4748282432556152,-9.75397777557373,1.0450690984725952,-0.00931633822619915,-0.0005323622026480734,0.0234239362180233
2037304268275,1.5059528350830078,-9.744400978088379,1.0366894006729126,-0.0077192517928779125,0.0005323622026480734,0.02901373989880085
2037305505675,1.4939818382263184,-9.782708168029785,1.0295066833496094,-0.010381062515079975,0.003460354171693325,0.0276828333735466
2037306743087,1.479616641998291,-9.789891242980957,1.0773907899856567,-0.010647243820130825,0.003460354171693325,0.0258195661008358
2037307980462,1.4915876388549805,-9.805453300476074,1.0414777994155884,-0.008517795242369175,-0.0026618109550327063,0.0271504707634449
2037309217887,1.5071499347686768,-9.807847023010254,1.0426748991012573,-0.012776692397892475,-0.0015970865497365594,0.0263519287109375
2037310455275,1.4856021404266357,-9.764751434326172,1.0330979824066162,-0.01756795309484005,-0.00692070834338665,0.0295461006462574
2037311692675,1.4772224426269531,-9.783905029296875,1.015141487121582,-0.01224433071911335,0.005057440605014563,0.0292799212038517
2037312930062,1.5179238319396973,-9.774328231811523,1.0534487962722778,-0.015172322280704975,0.0013309054775163531,0.0220930315554142
2037314167475,1.4987702369689941,-9.759963035583496,1.015141487121582,-0.0138414166867733,-0.0029279920272529125,0.02315775491297245
2037315404887,1.4652514457702637,-9.765949249267578,1.0247182846069336,-0.0066545275039970875,-0.0010647244052961469,0.0271504707634449
2037316642275,1.499967336654663,-9.78869342803955,1.0809820890426636,-0.010647243820130825,-0.0010647244052961469,0.02794901467859745
2037317879675,1.4975731372833252,-9.745597839355469,1.0247182846069336,-0.0186326764523983,-0.0023956298828125,0.0247548408806324
2037319117075,1.5155296325683594,-9.785102844238281,1.0007762908935547,-0.0181003138422966,-0.0042588976211845875,0.0247548408806324
2037320354475,1.5059528350830078,-9.797073364257812,0.9971849918365479,-0.01171196810901165,0.0010647244052961469,0.0215606689453125
2037321591887,1.5239094495773315,-9.77791976928711,1.0402806997299194,-0.013042873702943325,-0.0002661811013240367,0.02901373989880085
2037322829275,1.501164436340332,-9.780314445495605,1.0606313943862915,-0.012776692397892475,-0.0018632676219567657,0.0247548408806324
2037324066700,1.4975731372833252,-9.7791166305542,1.0570400953292847,-0.013042873702943325,-0.0026618109550327063,0.02741665206849575
2037325304087,1.482010841369629,-9.759963035583496,1.0378865003585815,-0.0162370465695858,-0.0007985432748682797,0.0268842913210392
2037326541512,1.4688427448272705,-9.77552604675293,1.0319008827209473,-0.01703559048473835,-0.0021294488105922937,0.01783413253724575
2037327778887,1.5119383335113525,-9.749189376831055,1.0438719987869263,-0.014906140975654125,-0.0013309054775163531,0.01783413253724575
2037329016275,1.5155296325683594,-9.738415718078613,1.0354923009872437,-0.014906140975654125,-0.0039927163161337376,0.0228915736079216
2037330253687,1.499967336654663,-9.75158405303955,1.0235211849212646,-0.0157046839594841,-0.0007985432748682797,0.0252872034907341
2037331491100,1.460463047027588,-9.763554573059082,1.0307037830352783,-0.02076212503015995,-0.0015970865497365594,0.01703559048473835
2037332728512,1.4927847385406494,-9.768342971801758,0.9756371974945068,-0.01889885775744915,-0.0018632676219567657,0.0228915736079216
2037333965887,1.4879963397979736,-9.743204116821289,1.0079588890075684,-0.01889885775744915,0.0002661811013240367,0.0263519287109375
2037335203300,1.48081374168396,-9.740809440612793,1.0366894006729126,-0.01597086526453495,-0.0021294488105922937,0.0223592109978199
2037336440712,1.4844050407409668,-9.762357711791992,1.0031704902648926,-0.015438503585755825,0.0002661811013240367,0.02874755859375
2037337678112,1.4975731372833252,-9.749189376831055,0.9612720012664795,-0.014373779296875,-0.0007985432748682797,0.02741665206849575
2037338915500,1.502361536026001,-9.739612579345703,1.07379949092865,-0.0186326764523983,-0.0021294488105922937,0.0204959437251091
2037340152900,1.4652514457702637,-9.733627319335938,0.9971849918365479,-0.0181003138422966,-0.0015970865497365594,0.0223592109978199
2037341390300,1.5155296325683594,-9.759963035583496,0.9720458984375,-0.01224433071911335,-0.0023956298828125,0.02608574740588665
2037342627687,1.4760253429412842,-9.728838920593262,1.0079588890075684,-0.015172322280704975,-0.0039927163161337376,0.0276828333735466
2037343865100,1.5203181505203247,-9.749189376831055,1.048660397529602,-0.01597086526453495,-0.0005323622026480734,0.0244886614382267
2037345102500,1.5251065492630005,-9.7420072555542,1.048660397529602,-0.015172322280704975,0.0013309054775163531,0.023956298828125
2037346339912,1.5227123498916626,-9.740809440612793,1.0330979824066162,-0.015438503585755825,-0.00452507846057415,0.0263519287109375
2037347577325,1.5382746458053589,-9.740809440612793,1.0450690984725952,-0.0181003138422966,-0.005057440605014563,0.0210283063352108
2037348814712,1.501164436340332,-9.692925453186035,1.01753568649292,-0.0138414166867733,-0.007453070487827063,0.0247548408806324
2037350052100,1.5167267322540283,-9.738415718078613,1.0295066833496094,-0.010913425125181675,-0.007453070487827063,0.03034464456140995
2037351289500,1.4939818382263184,-9.714473724365234,0.9792284965515137,-0.012510511092841625,-0.0013309054775163531,0.0244886614382267
2037352526900,1.534683346748352,-9.720458984375,1.015141487121582,-0.0167694091796875,-0.008251613937318325,0.02315775491297245
2037353764325,1.5083470344543457,-9.747992515563965,1.0366894006729126,-0.01836649514734745,-0.0029279920272529125,0.02369011752307415
2037355001700,1.4975731372833252,-9.727641105651855,1.0295066833496094,-0.013042873702943325,-0.003460354171693325,0.02608574740588665
2037356239100,1.5167267322540283,-9.736021041870117,1.0534487962722778,-0.01224433071911335,-0.003460354171693325,0.02502102218568325
2037357476537,1.5298949480056763,-9.708487510681152,1.0067617893218994,-0.010913425125181675,-0.0031941730994731188,0.01943122036755085
2037358713900,1.5047557353973389,-9.730035781860352,1.0115501880645752,-0.008251613937318325,-0.0039927163161337376,0.0252872034907341
2037359951300,1.4879963397979736,-9.726444244384766,1.0749965906143188,-0.010114881210029125,-0.005855984054505825,0.0268842913210392
2037361188700,1.4903905391693115,-9.731232643127441,1.0271124839782715,-0.01117960549890995,-0.0010647244052961469,0.02262539230287075
2037362426112,1.4832079410552979,-9.713275909423828,1.0187327861785889,-0.010913425125181675,0.0002661811013240367,0.0244886614382267
2037363663525,1.5263036489486694,-9.709685325622559,1.0187327861785889,-0.0119781494140625,-0.0029279920272529125,0.0263519287109375
2037364900937,1.479616641998291,-9.695320129394531,1.0558429956436157,-0.0090501569211483,-0.0029279920272529125,0.02555338479578495
2037366138312,1.4832079410552979,-9.726444244384766,1.0055646896362305,-0.005855984054505825,-0.0071868896484375,0.0271504707634449
2037367375725,1.45806884765625,-9.762357711791992,1.0330979824066162,-0.003460354171693325,-0.00931633822619915,0.0247548408806324
2037368613112,1.4939818382263184,-9.743204116821289,1.0271124839782715,-0.007985432632267475,-0.0071868896484375,0.0314093679189682
2037369850537,1.5095441341400146,-9.749189376831055,1.0211269855499268,-0.01171196810901165,-0.0037265352439135313,0.02661811001598835
2037371087912,1.5095441341400146,-9.707290649414062,0.9995791912078857,-0.0063883461989462376,-0.00692070834338665,0.02502102218568325
2037372325312,1.4329297542572021,-9.75517463684082,1.0426748991012573,-0.0042588976211845875,-0.005057440605014563,0.033538818359375
2037373562737,1.4879963397979736,-9.744400978088379,1.0007762908935547,-0.008251613937318325,-0.0037265352439135313,0.03087700717151165
2037374800125,1.4939818382263184,-9.726444244384766,1.0654197931289673,-0.0066545275039970875,-0.0005323622026480734,0.0306108258664608
2037376037537,1.5155296325683594,-9.744400978088379,1.0103530883789062,-0.00692070834338665,-0.0066545275039970875,0.0311431884765625
2037377274925,1.5131354331970215,-9.780314445495605,1.0115501880645752,-0.0053236219100654125,-0.00692070834338665,0.02848137728869915
2037378512312,1.4760253429412842,-9.75397777557373,1.0091559886932373,-0.0066545275039970875,-0.00452507846057415,0.0346035435795784
2037379749725,1.4856021404266357,-9.720458984375,1.0223240852355957,-0.008251613937318325,-0.006122165359556675,0.0316755510866642
2037380987125,1.4449007511138916,-9.72285270690918,1.0007762908935547,-0.0026618109550327063,-0.00692070834338665,0.02981228195130825
2037382224537,1.45806884765625,-9.769539833068848,1.013944387435913,-0.005589802749454975,-0.0119781494140625,0.03087700717151165
2037383461925,1.482010841369629,-9.781511306762695,0.970848798751831,-0.0071868896484375,-0.007985432632267475,0.02901373989880085
2037384699325,1.460463047027588,-9.743204116821289,1.0103530883789062,0.0018632676219567657,-0.0039927163161337376,0.02848137728869915
2037385936737,1.4939818382263184,-9.730035781860352,1.0043675899505615,-0.0039927163161337376,-0.00692070834338665,0.0252872034907341
2037387174125,1.4532804489135742,-9.720458984375,1.0199298858642578,-0.008517795242369175,-0.01117960549890995,0.02874755859375
2037388411525,1.5179238319396973,-9.702502250671387,1.0342952013015747,-0.0026618109550327063,-0.007985432632267475,0.0252872034907341
2037389648925,1.5263036489486694,-9.703699111938477,0.9720458984375,-0.0013309054775163531,-0.00692070834338665,0.0268842913210392
2037390886337,1.5107412338256836,-9.732430458068848,1.0749965906143188,0.0018632676219567657,-0.010647243820130825,0.02848137728869915
2037392123750,1.4903905391693115,-9.743204116821289,1.01753568649292,0.0002661811013240367,-0.013309055007994175,0.0330064557492733
2037393361125,1.4496891498565674,-9.716867446899414,0.9900023937225342,-0.0026618109550327063,-0.0114457868039608,0.033272635191679
2037394598537,1.502361536026001,-9.714473724365234,1.0019733905792236,-0.0053236219100654125,-0.006122165359556675,0.02502102218568325
2037395835937,1.456871747970581,-9.761160850524902,1.0354923009872437,-0.0021294488105922937,-0.008251613937318325,0.02422248013317585
2037397073325,1.4676456451416016,-9.726444244384766,1.0546458959579468,0.0,-0.012510511092841625,0.0271504707634449
2037398310737,1.4652514457702637,-9.770737648010254,1.0402806997299194,0.0002661811013240367,-0.008783976547420025,0.02901373989880085
2037399548137,1.4712369441986084,-9.762357711791992,1.0426748991012573,0.0005323622026480734,-0.0063883461989462376,0.0340711809694767
2037400785550,1.4700398445129395,-9.732430458068848,1.05105459690094,0.005057440605014563,-0.00692070834338665,0.03087700717151165
2037402022950,1.4736311435699463,-9.736021041870117,1.013944387435913,0.0031941730994731188,-0.00931633822619915,0.02981228195130825
2037403260350,1.482010841369629,-9.728838920593262,1.0103530883789062,0.0005323622026480734,-0.0090501569211483,0.0295461006462574
2037404497750,1.4664485454559326,-9.745597839355469,1.0546458959579468,0.003460354171693325,-0.01117960549890995,0.0330064557492733
2037405735150,1.4760253429412842,-9.749189376831055,1.0259153842926025,0.0013309054775163531,-0.0114457868039608,0.0292799212038517
2037406972562,1.5095441341400146,-9.769539833068848,1.0043675899505615,0.0013309054775163531,-0.006122165359556675,0.0314093679189682
2037408209975,1.4927847385406494,-9.758766174316406,0.9852139949798584,-0.0026618109550327063,-0.0071868896484375,0.033272635191679
2037409447350,1.4832079410552979,-9.763554573059082,1.0199298858642578,0.003460354171693325,-0.013309055007994175,0.0292799212038517
2037410684750,1.5155296325683594,-9.791088104248047,0.9804255962371826,0.0037265352439135313,-0.00931633822619915,0.02661811001598835
2037411922150,1.4736311435699463,-9.769539833068848,1.0259153842926025,0.00452507846057415,-0.005855984054505825,0.02901373989880085
2037413159550,1.4939818382263184,-9.761160850524902,0.9971849918365479,-0.0010647244052961469,-0.01224433071911335,0.02555338479578495
2037414396962,1.4652514457702637,-9.757569313049316,0.9959878921508789,0.0,-0.013309055007994175,0.02502102218568325
2037415634362,1.5167267322540283,-9.813833236694336,1.0211269855499268,-0.0007985432748682797,-0.012776692397892475,0.02848137728869915
2037416871762,1.4760253429412842,-9.761160850524902,1.0606313943862915,-0.0005323622026480734,-0.005855984054505825,0.03087700717151165
2037418109162,1.4867992401123047,-9.789891242980957,1.0235211849212646,0.0029279920272529125,-0.008517795242369175,0.02661811001598835
2037419346550,1.4915876388549805,-9.773131370544434,1.0534487962722778,-0.0013309054775163531,-0.010913425125181675,0.0263519287109375
2037420583962,1.4915876388549805,-9.793481826782227,0.9971849918365479,-0.0005323622026480734,-0.0119781494140625,0.0258195661008358
2037421821375,1.4460978507995605,-9.799468040466309,0.99479079246521,0.0021294488105922937,-0.0042588976211845875,0.0263519287109375
2037423058762,1.455674648284912,-9.770737648010254,1.0223240852355957,0.0018632676219567657,-0.0071868896484375,0.0220930315554142
2037424296175,1.4640543460845947,-9.77791976928711,1.0354923009872437,0.0031941730994731188,-0.01171196810901165,0.02315775491297245
2037425533575,1.4233529567718506,-9.762357711791992,1.0055646896362305,-0.0013309054775163531,-0.0119781494140625,0.02661811001598835
2037426770975,1.4676456451416016,-9.745597839355469,1.0043675899505615,-0.0002661811013240367,-0.01357523538172245,0.02848137728869915
2037428008375,1.502361536026001,-9.744400978088379,1.0223240852355957,0.0005323622026480734,-0.0066545275039970875,0.0244886614382267
2037429245775,1.5107412338256836,-9.771934509277344,1.015141487121582,-0.0007985432748682797,-0.010114881210029125,0.0244886614382267
2037430483175,1.455674648284912,-9.792284965515137,1.0402806997299194,0.0010647244052961469,-0.010647243820130825,0.02502102218568325
2037431720587,1.4652514457702637,-9.780314445495605,1.0402806997299194,0.0013309054775163531,-0.010381062515079975,0.02555338479578495
2037432957975,1.4712369441986084,-9.746795654296875,1.0402806997299194,0.0010647244052961469,-0.013042873702943325,0.023956298828125
2037434195375,1.4760253429412842,-9.793481826782227,1.0115501880645752,0.0007985432748682797,-0.0063883461989462376,0.02129448764026165
2037435432762,1.4520833492279053,-9.744400978088379,1.048660397529602,-0.0026618109550327063,-0.0066545275039970875,0.01836649514734745
2037436670187,1.41257905960083,-9.761160850524902,1.0199298858642578,0.0,-0.010913425125181675,0.0220930315554142
2037437907587,1.4508862495422363,-9.804256439208984,1.0426748991012573,0.003460354171693325,-0.012510511092841625,0.0268842913210392
2037439144975,1.4879963397979736,-9.800664901733398,1.0342952013015747,-0.0013309054775163531,-0.0114457868039608,0.01889885775744915
2037440382387,1.4329297542572021,-9.793481826782227,1.047463297843933,-0.005589802749454975,-0.00931633822619915,0.01783413253724575
2037441619800,1.4281413555145264,-9.830592155456543,1.0307037830352783,-0.0042588976211845875,-0.007985432632267475,0.02182685025036335
2037442857200,1.4664485454559326,-9.78869342803955,1.0797849893569946,-0.0021294488105922937,-0.01171196810901165,0.01889885775744915
2037444094587,1.479616641998291,-9.81024169921875,1.0115501880645752,-0.0026618109550327063,-0.01224433071911335,0.01996358297765255
2037445331987,1.4209587574005127,-9.795876502990723,0.9995791912078857,-0.0031941730994731188,-0.008517795242369175,0.0210283063352108
2037446569375,1.4269442558288574,-9.763554573059082,1.0390836000442505,0.0,-0.008783976547420025,0.01650322787463665
2037447806800,1.4389152526855469,-9.797073364257812,1.0115501880645752,-0.0042588976211845875,-0.012510511092841625,0.01889885775744915
2037449044200,1.4413094520568848,-9.764751434326172,0.99479079246521,-0.0031941730994731188,-0.00984870083630085,0.01836649514734745
2037450281600,1.437718152999878,-9.768342971801758,0.993593692779541,-0.0039927163161337376,-0.0119781494140625,0.0215606689453125
2037451518987,1.4664485454559326,-9.780314445495605,1.0414777994155884,-0.006122165359556675,-0.01117960549890995,0.0204959437251091
2037452756375,1.436521053314209,-9.767146110534668,1.0666168928146362,-0.0037265352439135313,-0.008783976547420025,0.01756795309484005
2037453993787,1.459265947341919,-9.7791166305542,1.0199298858642578,-0.0029279920272529125,-0.0138414166867733,0.02262539230287075
2037455231200,1.416170358657837,-9.767146110534668,1.0402806997299194,-0.0053236219100654125,-0.010114881210029125,0.0215606689453125
2037456468600,1.456871747970581,-9.783905029296875,1.0307037830352783,-0.00984870083630085,-0.01357523538172245,0.01703559048473835
2037457705987,1.4077906608581543,-9.771934509277344,1.0630255937576294,-0.007453070487827063,-0.008517795242369175,0.02022976242005825
2037458943375,1.3994109630584717,-9.831789016723633,1.0199298858642578,-0.0077192517928779125,-0.007985432632267475,0.02076212503015995
2037460180800,1.4329297542572021,-9.75397777557373,1.0438719987869263,-0.0042588976211845875,-0.00931633822619915,0.01889885775744915
2037461418187,1.4652514457702637,-9.797073364257812,1.0067617893218994,-0.003460354171693325,-0.012776692397892475,0.01783413253724575
2037462655600,1.4640543460845947,-9.831789016723633,0.9792284965515137,-0.007453070487827063,-0.01410759799182415,0.01597086526453495
2037463893000,1.4089877605438232,-9.792284965515137,1.0295066833496094,-0.008251613937318325,-0.008783976547420025,0.0204959437251091
2037465130425,1.4113819599151611,-9.78869342803955,1.0354923009872437,-0.008517795242369175,-0.005589802749454975,0.0210283063352108
2037466367800,1.4257471561431885,-9.804256439208984,1.047463297843933,-0.010381062515079975,-0.008251613937318325,0.0181003138422966
2037467605225,1.4413094520568848,-9.828198432922363,1.0785878896713257,-0.008517795242369175,-0.008517795242369175,0.012776692397892475
2037468842600,1.4113819599151611,-9.806650161743164,1.07379949092865,-0.004791259765625,-0.01410759799182415,0.014906140975654125
2037470080025,1.4425065517425537,-9.763554573059082,1.0390836000442505,-0.00692070834338665,-0.012776692397892475,0.0157046839594841
2037471317412,1.4449007511138916,-9.77672290802002,1.0127472877502441,-0.0138414166867733,-0.008517795242369175,0.014373779296875
2037472554787,1.4197616577148438,-9.817423820495605,1.0247182846069336,-0.01597086526453495,-0.012510511092841625,0.01703559048473835
2037473792200,1.4221558570861816,-9.783905029296875,1.016338586807251,-0.0090501569211483,-0.012510511092841625,0.0162370465695858
2037475029625,1.4437036514282227,-9.791088104248047,1.0223240852355957,-0.010381062515079975,-0.01171196810901165,0.0228915736079216
2037476267025,1.4293384552001953,-9.806650161743164,1.0187327861785889,-0.00931633822619915,-0.0138414166867733,0.01783413253724575
2037477504425,1.4257471561431885,-9.791088104248047,0.9864110946655273,-0.004791259765625,-0.010114881210029125,0.0191650390625
2037478741837,1.4209587574005127,-9.793481826782227,1.0342952013015747,-0.01703559048473835,-0.0077192517928779125,0.014373779296875
2037479979237,1.4269442558288574,-9.77552604675293,1.0342952013015747,-0.0157046839594841,-0.0063883461989462376,0.010381062515079975
2037481216637,1.3934253454208374,-9.806650161743164,1.0342952013015747,-0.0157046839594841,-0.010913425125181675,0.0071868896484375
2037482454012,1.413776159286499,-9.798270225524902,1.0378865003585815,-0.01756795309484005,-0.0138414166867733,0.015438503585755825
2037483691425,1.382651448249817,-9.806650161743164,1.0582371950149536,-0.015438503585755825,-0.007453070487827063,0.015172322280704975
2037484928812,1.3958195447921753,-9.77672290802002,0.9959878921508789,-0.01224433071911335,-0.010913425125181675,0.02076212503015995
2037486166237,1.4041993618011475,-9.75397777557373,0.9923965930938721,-0.008251613937318325,-0.01171196810901165,0.01756795309484005
2037487403637,1.4257471561431885,-9.769539833068848,1.0319008827209473,-0.01224433071911335,-0.007453070487827063,0.0090501569211483
2037488641037,1.4269442558288574,-9.781511306762695,1.016338586807251,-0.0186326764523983,-0.005057440605014563,0.01224433071911335
2037489878450,1.4089877605438232,-9.726444244384766,1.0199298858642578,-0.015438503585755825,-0.01117960549890995,0.01171196810901165
2037491115825,1.4413094520568848,-9.768342971801758,0.9780313968658447,-0.014373779296875,-0.00692070834338665,0.00958251953125
2037492353237,1.43532395362854,-9.7791166305542,1.0091559886932373,-0.0196974016726017,-0.005057440605014563,0.0157046839594841
2037493590650,1.3994109630584717,-9.740809440612793,1.013944387435913,-0.01650322787463665,-0.007985432632267475,0.010913425125181675
2037494828037,1.4053964614868164,-9.757569313049316,1.0235211849212646,-0.0157046839594841,-0.008517795242369175,0.0119781494140625
2037496065425,1.4305355548858643,-9.774328231811523,1.0043675899505615,-0.01836649514734745,-0.0039927163161337376,0.01224433071911335
2037497302837,1.4293384552001953,-9.758766174316406,1.016338586807251,-0.012510511092841625,-0.007453070487827063,0.010647243820130825
2037498540237,1.41257905960083,-9.767146110534668,1.0103530883789062,-0.012776692397892475,-0.0042588976211845875,0.0071868896484375
2037499777650,1.414973258972168,-9.797073364257812,0.9888052940368652,-0.0173017717897892,-0.007453070487827063,0.010647243820130825
2037501015037,1.413776159286499,-9.806650161743164,1.01753568649292,-0.02022976242005825,-0.0066545275039970875,0.010114881210029125
2037502252450,1.4305355548858643,-9.815030097961426,0.993593692779541,-0.01756795309484005,-0.0037265352439135313,0.01171196810901165
2037503489850,1.45806884765625,-9.781511306762695,1.0414777994155884,-0.0173017717897892,0.0,0.014906140975654125
2037504727237,1.4305355548858643,-9.787496566772461,1.0259153842926025,-0.0210283063352108,-0.0010647244052961469,0.008251613937318325
2037505964637,1.3874398469924927,-9.793481826782227,1.070208191871643,-0.0228915736079216,-0.003460354171693325,0.006122165359556675
2037507202062,1.4700398445129395,-9.825803756713867,1.0055646896362305,-0.02262539230287075,-0.0018632676219567657,0.006122165359556675
2037508439437,1.437718152999878,-9.782708168029785,1.0067617893218994,-0.01889885775744915,-0.0013309054775163531,0.010647243820130825
2037509676850,1.4221558570861816,-9.77672290802002,1.0654197931289673,-0.02022976242005825,0.0013309054775163531,0.0114457868039608
2037510914250,1.4269442558288574,-9.744400978088379,0.9600749015808105,-0.02315775491297245,0.0021294488105922937,0.00692070834338665
2037512151662,1.413776159286499,-9.756372451782227,1.0019733905792236,-0.0223592109978199,0.0021294488105922937,0.008517795242369175
2037513389050,1.4425065517425537,-9.794679641723633,1.0450690984725952,-0.02076212503015995,-0.0007985432748682797,0.014906140975654125
2037514626450,1.413776159286499,-9.746795654296875,1.0342952013015747,-0.023956298828125,0.0,0.010647243820130825
2037515863850,1.437718152999878,-9.770737648010254,1.0079588890075684,-0.02555338479578495,0.0015970865497365594,0.012510511092841625
2037517101275,1.4185645580291748,-9.77791976928711,0.9780313968658447,-0.0210283063352108,0.0066545275039970875,0.008783976547420025
2037518338662,1.4209587574005127,-9.758766174316406,0.9756371974945068,-0.0223592109978199,0.0018632676219567657,0.0015970865497365594
2037519576075,1.4185645580291748,-9.746795654296875,1.0438719987869263,-0.02022976242005825,0.0039927163161337376,0.007453070487827063
2037520813450,1.4233529567718506,-9.747992515563965,1.0378865003585815,-0.01756795309484005,0.004791259765625,0.00931633822619915
2037522050875,1.43532395362854,-9.743204116821289,0.9612720012664795,-0.0181003138422966,-0.0005323622026480734,0.005855984054505825
2037523288275,1.3850456476211548,-9.737218856811523,1.0019733905792236,-0.02262539230287075,-0.0013309054775163531,0.007985432632267475
2037524525675,1.4496891498565674,-9.72165584564209,1.0115501880645752,-0.0186326764523983,0.0042588976211845875,0.007985432632267475
2037525763062,1.4065935611724854,-9.728838920593262,1.0055646896362305,-0.0167694091796875,0.004791259765625,0.0042588976211845875
2037527000475,1.3694833517074585,-9.746795654296875,1.016338586807251,-0.01943122036755085,0.005589802749454975,0.0053236219100654125
2037528237862,1.4030022621154785,-9.745597839355469,1.0223240852355957,-0.01996358297765255,0.0023956298828125,0.0037265352439135313
2037529475262,1.4089877605438232,-9.77672290802002,0.9780313968658447,-0.0223592109978199,0.005855984054505825,0.0063883461989462376
2037530712662,1.414973258972168,-9.737218856811523,1.0283095836639404,-0.02422248013317585,0.01117960549890995,0.00452507846057415
2037531950075,1.4305355548858643,-9.747992515563965,1.013944387435913,-0.01650322787463665,0.00958251953125,0.0039927163161337376
2037533187475,1.4209587574005127,-9.738415718078613,0.9983820915222168,-0.0173017717897892,0.010381062515079975,0.0010647244052961469
2037534424875,1.4089877605438232,-9.767146110534668,0.9684545993804932,-0.0173017717897892,0.00958251953125,-0.0002661811013240367
2037535662300,1.4018051624298096,-9.767146110534668,0.9648633003234863,-0.0244886614382267,0.010114881210029125,0.0005323622026480734
2037536899687,1.3934253454208374,-9.72165584564209,0.9648633003234863,-0.0196974016726017,0.008251613937318325,0.0013309054775163531
2037538137100,1.4245500564575195,-9.767146110534668,0.973242998123169,-0.014373779296875,0.01117960549890995,0.0013309054775163531
2037539374500,1.4293384552001953,-9.726444244384766,1.0283095836639404,-0.01410759799182415,0.0181003138422966,0.0018632676219567657
2037540611875,1.4700398445129395,-9.727641105651855,1.0055646896362305,-0.01836649514734745,0.0157046839594841,0.0023956298828125
2037541849300,1.4305355548858643,-9.72165584564209,0.9840168952941895,-0.02262539230287075,0.012510511092841625,-0.0031941730994731188
2037543086687,1.3910311460494995,-9.747992515563965,1.0055646896362305,-0.01889885775744915,0.010913425125181675,-0.00452507846057415
2037544324075,1.4221558570861816,-9.7791166305542,0.9265560507774353,-0.01783413253724575,0.01357523538172245,-0.0018632676219567657
2037545561500,1.4472949504852295,-9.757569313049316,0.9672574996948242,-0.014906140975654125,0.0119781494140625,0.0018632676219567657
2037546798900,1.41257905960083,-9.734824180603027,1.0019733905792236,-0.01463996060192585,0.013309055007994175,-0.0002661811013240367
2037548036287,1.4401123523712158,-9.7420072555542,1.016338586807251,-0.01650322787463665,0.015172322280704975,0.0023956298828125
2037549273687,1.4317326545715332,-9.732430458068848,1.013944387435913,-0.01996358297765255,0.014373779296875,-0.0007985432748682797
2037550511075,1.482010841369629,-9.726444244384766,0.9720458984375,-0.0210283063352108,0.013042873702943325,-0.0042588976211845875
2037551748512,1.4449007511138916,-9.744400978088379,1.0079588890075684,-0.01836649514734745,0.01783413253724575,0.0005323622026480734
2037552985900,1.437718152999878,-9.756372451782227,0.9911994934082031,-0.0167694091796875,0.01650322787463665,0.0013309054775163531
2037554223300,1.478419542312622,-9.763554573059082,1.0127472877502441,-0.0167694091796875,0.01783413253724575,-0.0013309054775163531
2037555460687,1.3970166444778442,-9.72285270690918,1.0079588890075684,-0.01650322787463665,0.01943122036755085,0.0029279920272529125
2037556698087,1.4640543460845947,-9.72285270690918,0.9696516990661621,-0.012776692397892475,0.01463996060192585,-0.0015970865497365594
2037557935512,1.4484920501708984,-9.715670585632324,0.9780313968658447,-0.0162370465695858,0.02076212503015995,-0.0029279920272529125
2037559172900,1.4018051624298096,-9.744400978088379,0.9923965930938721,-0.007985432632267475,0.02129448764026165,0.0002661811013240367
2037560410312,1.4329297542572021,-9.757569313049316,0.9672574996948242,-0.00958251953125,0.01996358297765255,0.0026618109550327063
2037561647700,1.4281413555145264,-9.707290649414062,1.0187327861785889,-0.0173017717897892,0.0210283063352108,0.0018632676219567657
2037562885125,1.4269442558288574,-9.739612579345703,0.9564836025238037,-0.015172322280704975,0.01889885775744915,0.0021294488105922937
2037564122512,1.4425065517425537,-9.716867446899414,0.9516952037811279,-0.010114881210029125,0.0138414166867733,-0.0026618109550327063
2037565359912,1.45806884765625,-9.728838920593262,0.99479079246521,-0.0090501569211483,0.0162370465695858,0.0037265352439135313
2037566597312,1.4018051624298096,-9.736021041870117,1.0103530883789062,-0.013042873702943325,0.02262539230287075,0.0002661811013240367
2037567834712,1.4736311435699463,-9.770737648010254,1.0079588890075684,-0.01171196810901165,0.0191650390625,0.00692070834338665
2037569072125,1.4496891498565674,-9.727641105651855,0.9971849918365479,-0.014373779296875,0.02076212503015995,0.0007985432748682797
2037570309537,1.4628572463989258,-9.71926212310791,0.9804255962371826,-0.00931633822619915,0.01703559048473835,-0.0031941730994731188
2037571546925,1.4520833492279053,-9.733627319335938,0.9816226959228516,-0.0114457868039608,0.02369011752307415,-0.0007985432748682797
2037572784312,1.4688427448272705,-9.747992515563965,0.99479079246521,-0.010913425125181675,0.0234239362180233,0.0002661811013240367
2037574021725,1.4700398445129395,-9.744400978088379,0.9636662006378174,-0.007985432632267475,0.02182685025036335,-0.0031941730994731188
2037575259112,1.4520833492279053,-9.75517463684082,1.016338586807251,-0.01463996060192585,0.0228915736079216,-0.0015970865497365594
2037576496525,1.4748282432556152,-9.75397777557373,0.9780313968658447,-0.0157046839594841,0.0234239362180233,-0.0037265352439135313
2037577733925,1.4532804489135742,-9.747992515563965,0.99479079246521,-0.0090501569211483,0.02608574740588665,-0.003460354171693325
2037578971337,1.4532804489135742,-9.763554573059082,1.0019733905792236,-0.00984870083630085,0.02555338479578495,0.0
2037580208737,1.4508862495422363,-9.75397777557373,1.0103530883789062,-0.0114457868039608,0.02262539230287075,0.0015970865497365594
2037581446125,1.4460978507995605,-9.757569313049316,0.9768342971801758,-0.010913425125181675,0.0244886614382267,-0.0018632676219567657
2037582683525,1.4389152526855469,-9.727641105651855,0.970848798751831,-0.010114881210029125,0.023956298828125,-0.005855984054505825
2037583920925,1.4903905391693115,-9.745597839355469,0.9528923034667969,-0.00931633822619915,0.01836649514734745,-0.0018632676219567657
2037585158337,1.4903905391693115,-9.768342971801758,0.993593692779541,-0.0026618109550327063,0.01889885775744915,-0.003460354171693325
2037586395737,1.455674648284912,-9.749189376831055,0.93254154920578,-0.008251613937318325,0.0247548408806324,-0.00452507846057415
2037587633150,1.534683346748352,-9.75397777557373,0.9828197956085205,-0.008517795242369175,0.02315775491297245,-0.0031941730994731188
2037588870550,1.455674648284912,-9.75158405303955,1.0007762908935547,-0.00984870083630085,0.02369011752307415,-0.0029279920272529125
2037590107937,1.50355863571167,-9.774328231811523,0.9552865028381348,-0.0090501569211483,0.0244886614382267,0.0010647244052961469
2037591345337,1.5071499347686768,-9.72165584564209,0.9816226959228516,-0.01171196810901165,0.02874755859375,-0.0013309054775163531
2037592582750,1.48081374168396,-9.724050521850586,0.9744400978088379,-0.0114457868039608,0.02502102218568325,-0.005057440605014563
2037593820137,1.4748282432556152,-9.700108528137207,1.0103530883789062,-0.005855984054505825,0.03034464456140995,-0.010381062515079975
2037595057550,1.48081374168396,-9.720458984375,1.048660397529602,-0.01117960549890995,0.02794901467859745,-0.0023956298828125
2037596294950,1.4688427448272705,-9.727641105651855,0.9624691009521484,-0.00958251953125,0.02422248013317585,0.0013309054775163531
2037597532350,1.4748282432556152,-9.77791976928711,0.9876081943511963,-0.010114881210029125,0.0247548408806324,-0.0071868896484375
2037598769750,1.4987702369689941,-9.71926212310791,0.9756371974945068,-0.008251613937318325,0.03087700717151165,-0.00692070834338665
2037600007150,1.4856021404266357,-9.72285270690918,0.9684545993804932,-0.005057440605014563,0.0268842913210392,0.0015970865497365594
2037601244550,1.4903905391693115,-9.714473724365234,1.0223240852355957,-0.0039927163161337376,0.02741665206849575,-0.0013309054775163531
2037602481962,1.4867992401123047,-9.715670585632324,0.9672574996948242,-0.006122165359556675,0.02794901467859745,-0.0037265352439135313
2037603719350,1.4724340438842773,-9.732430458068848,0.9816226959228516,-0.007453070487827063,0.023956298828125,-0.005589802749454975
2037604956762,1.4951789379119873,-9.716867446899414,0.99479079246521,-0.008783976547420025,0.0220930315554142,-0.0037265352439135313
2037606194162,1.4951789379119873,-9.724050521850586,0.9780313968658447,-0.006122165359556675,0.0234239362180233,0.0
2037607431562,1.4927847385406494,-9.744400978088379,0.9684545993804932,-0.0063883461989462376,0.0247548408806324,-0.0023956298828125
2037608668975,1.5119383335113525,-9.739612579345703,0.9648633003234863,-0.005057440605014563,0.02422248013317585,-0.0015970865497365594
2037609906350,1.4867992401123047,-9.733627319335938,0.9588778018951416,-0.00692070834338665,0.0220930315554142,-0.0029279920272529125
2037611143775,1.4652514457702637,-9.725247383117676,1.0247182846069336,-0.003460354171693325,0.02182685025036335,-0.0042588976211845875
2037612381150,1.5179238319396973,-9.708487510681152,0.9840168952941895,-0.0039927163161337376,0.0234239362180233,-0.0066545275039970875
2037613618575,1.4652514457702637,-9.716867446899414,1.0271124839782715,-0.00692070834338665,0.0210283063352108,0.0023956298828125
2037614855950,1.501164436340332,-9.7420072555542,0.9756371974945068,-0.0015970865497365594,0.02262539230287075,0.0013309054775163531
2037616093350,1.4664485454559326,-9.77791976928711,0.9852139949798584,-0.0090501569211483,0.0228915736079216,-0.0002661811013240367
2037617330762,1.4832079410552979,-9.797073364257812,0.9397241473197937,-0.0063883461989462376,0.0210283063352108,0.0007985432748682797
2037618568187,1.5454572439193726,-9.730035781860352,0.9516952037811279,-0.0042588976211845875,0.0186326764523983,-0.0015970865497365594
2037619805575,1.5047557353973389,-9.797073364257812,0.9696516990661621,-0.010381062515079975,0.01463996060192585,-0.00692070834338665
2037621042975,1.5095441341400146,-9.75517463684082,0.9840168952941895,-0.0039927163161337376,0.0181003138422966,-0.0015970865497365594
2037622280375,1.4939818382263184,-9.75397777557373,0.9911994934082031,-0.0042588976211845875,0.0196974016726017,-0.0042588976211845875
2037623517787,1.4437036514282227,-9.731232643127441,1.013944387435913,-0.0039927163161337376,0.01889885775744915,-0.005855984054505825
2037624755187,1.4927847385406494,-9.72285270690918,0.94930100440979,-0.0037265352439135313,0.0196974016726017,-0.0002661811013240367
2037625992587,1.5071499347686768,-9.732430458068848,0.9696516990661621,-0.0029279920272529125,0.01996358297765255,0.0010647244052961469
2037627229987,1.5298949480056763,-9.768342971801758,0.9672574996948242,-0.0042588976211845875,0.02608574740588665,-0.0013309054775163531
2037628467387,1.5179238319396973,-9.75517463684082,0.9313444495201111,-0.0053236219100654125,0.0196974016726017,-0.0119781494140625
2037629704787,1.5179238319396973,-9.771934509277344,1.0091559886932373,-0.00452507846057415,0.0244886614382267,-0.0018632676219567657
2037630942187,1.4736311435699463,-9.716867446899414,0.9672574996948242,-0.005855984054505825,0.02076212503015995,0.0007985432748682797
2037632179587,1.5298949480056763,-9.769539833068848,0.9648633003234863,-0.0010647244052961469,0.01410759799182415,-0.0010647244052961469
2037633416987,1.5310920476913452,-9.757569313049316,0.9780313968658447,-0.0018632676219567657,0.013042873702943325,-0.005855984054505825
2037634654400,1.501164436340332,-9.765949249267578,0.9971849918365479,-0.008783976547420025,0.00984870083630085,-0.00958251953125
2037635891775,1.5239094495773315,-9.730035781860352,0.9457097053527832,-0.0066545275039970875,0.010381062515079975,0.0007985432748682797
2037637129200,1.5107412338256836,-9.75397777557373,0.9469068050384521,-0.004791259765625,0.010913425125181675,0.0013309054775163531
2037638366587,1.5119383335113525,-9.750386238098145,0.9409212470054626,-0.0026618109550327063,0.013309055007994175,-0.0026618109550327063
2037639604000,1.4472949504852295,-9.738415718078613,0.9780313968658447,-0.0053236219100654125,0.0157046839594841,-0.00452507846057415
