timestamp_ns,accel_x,accel_y,accel_z,gyro_x,gyro_y,gyro_z
18533337597712,-0.19153614342212677,-9.988609313964844,1.1492167711257935,0.0005323622026480734,-0.02981228195130825,0.02661811001598835
18533338834950,-0.20231004059314728,-9.945513725280762,1.1300631761550903,-0.005057440605014563,-0.02794901467859745,0.02874755859375
18533340072200,-0.20949265360832214,-10.04726791381836,1.1204863786697388,-0.005589802749454975,-0.02422248013317585,0.0271504707634449
18533341309412,-0.16998831927776337,-9.999383926391602,1.1671733856201172,-0.010913425125181675,-0.0228915736079216,0.02369011752307415
18533342546650,-0.17836803197860718,-9.976638793945312,1.0845733880996704,-0.010913425125181675,-0.02369011752307415,0.0348697230219841
18533343783912,-0.16160862147808075,-9.986215591430664,1.1121066808700562,-0.01357523538172245,-0.0220930315554142,0.0364668108522892
18533345021125,-0.17238251864910126,-9.97065258026123,1.138442873954773,-0.0138414166867733,-0.0223592109978199,0.0354020856320858
18533346258375,-0.18076223134994507,-9.944316864013672,1.171961784362793,-0.0215606689453125,-0.02369011752307415,0.0295461006462574
18533347495612,-0.17836803197860718,-9.980230331420898,1.171961784362793,-0.0167694091796875,-0.0263519287109375,0.0300784632563591
18533348732825,-0.1711854189634323,-9.925163269042969,1.2006921768188477,-0.01889885775744915,-0.0220930315554142,0.0324740931391716
18533349970087,-0.1628057211637497,-9.945513725280762,1.1815385818481445,-0.02422248013317585,-0.01996358297765255,0.02555338479578495
18533351207312,-0.14844051003456116,-9.949105262756348,1.170764684677124,-0.0234239362180233,-0.02129448764026165,0.0292799212038517
18533352444525,-0.15921440720558167,-9.921571731567383,1.215057373046875,-0.0234239362180233,-0.0181003138422966,0.0316755510866642
18533353681762,-0.16400282084941864,-9.853337287902832,1.238999366760254,-0.0252872034907341,-0.0204959437251091,0.02741665206849575
18533354919012,-0.15083470940589905,-9.858125686645508,1.1839327812194824,-0.0263519287109375,-0.0244886614382267,0.02502102218568325
18533356156250,-0.15322890877723694,-9.84615421295166,1.1827356815338135,-0.0292799212038517,-0.0223592109978199,0.0220930315554142
18533357393487,-0.1256955862045288,-9.854534149169922,1.2342109680175781,-0.02874755859375,-0.0215606689453125,0.0220930315554142
18533358630725,-0.1604115217924118,-9.794679641723633,1.2258312702178955,-0.02794901467859745,-0.0295461006462574,0.0215606689453125
18533359867950,-0.15801730751991272,-9.77791976928711,1.2090718746185303,-0.0295461006462574,-0.0263519287109375,0.0215606689453125
18533361105187,-0.2059013545513153,-9.732430458068848,1.2773066759109497,-0.0324740931391716,-0.0215606689453125,0.015438503585755825
18533362342425,-0.1759738326072693,-9.757569313049316,1.2270283699035645,-0.0330064557492733,-0.0215606689453125,0.012776692397892475
18533363579650,-0.19393034279346466,-9.68813705444336,1.2533645629882812,-0.0322079136967659,-0.0247548408806324,0.010114881210029125
18533364816887,-0.1735796183347702,-9.712079048156738,1.2401964664459229,-0.0311431884765625,-0.01889885775744915,0.00984870083630085
18533366054125,-0.1604115217924118,-9.718064308166504,1.2270283699035645,-0.02555338479578495,-0.0114457868039608,0.0002661811013240367
18533367291375,-0.16879121959209442,-9.63067626953125,1.2282254695892334,-0.0258195661008358,-0.01597086526453495,-0.0077192517928779125
18533368528612,-0.14844051003456116,-9.637859344482422,1.2282254695892334,-0.02661811001598835,-0.014373779296875,-0.0013309054775163531
18533369765837,-0.17477671802043915,-9.637859344482422,1.2557587623596191,-0.0244886614382267,-0.0181003138422966,0.0
18533371003075,-0.16759411990642548,-9.591172218322754,1.194706678390503,-0.033272635191679,-0.012510511092841625,-0.0114457868039608
18533372240312,-0.1711854189634323,-9.651026725769043,1.236605167388916,-0.02741665206849575,-0.01463996060192585,-0.01783413253724575
18533373477550,-0.22744916379451752,-9.647436141967773,1.193509578704834,-0.0210283063352108,-0.014906140975654125,-0.01783413253724575
18533374714775,-0.19273324310779572,-9.62828254699707,1.2258312702178955,-0.01996358297765255,-0.01224433071911335,-0.01996358297765255
18533375952012,-0.1867477297782898,-9.62828254699707,1.191115379333496,-0.0234239362180233,-0.010381062515079975,-0.0234239362180233
18533377189237,-0.17956513166427612,-9.56124496459961,1.1959037780761719,-0.0181003138422966,-0.007985432632267475,-0.02741665206849575
18533378426462,-0.1759738326072693,-9.619902610778809,1.2258312702178955,-0.01943122036755085,-0.007453070487827063,-0.038063894957304
18533379663712,-0.2406172752380371,-9.634267807006836,1.2473790645599365,-0.015438503585755825,-0.0071868896484375,-0.0372653529047966
18533380900950,-0.181959331035614,-9.592369079589844,1.1994950771331787,-0.01597086526453495,-0.004791259765625,-0.043121337890625
18533382138162,-0.19033904373645782,-9.57321548461914,1.2461819648742676,-0.01410759799182415,-0.012510511092841625,-0.043121337890625
18533383375412,-0.19632454216480255,-9.59476375579834,1.2808979749679565,-0.01117960549890995,-0.0063883461989462376,-0.0503082275390625
18533384612662,-0.1951274424791336,-9.593565940856934,1.2282254695892334,-0.004791259765625,-0.004791259765625,-0.0537685826420784
18533385849875,-0.23582887649536133,-9.564835548400879,1.2545616626739502,-0.003460354171693325,-0.0018632676219567657,-0.0580274797976017
18533387087100,-0.20949265360832214,-9.549273490905762,1.2725181579589844,-0.0031941730994731188,-0.0018632676219567657,-0.0590922012925148
18533388324362,-0.1735796183347702,-9.534908294677734,1.258152961730957,0.0029279920272529125,-0.0018632676219567657,-0.0609554722905159
18533389561587,-0.20709845423698425,-9.53849983215332,1.2449848651885986,0.005855984054505825,-0.0010647244052961469,-0.0700056254863739
18533390798825,-0.19632454216480255,-9.551668167114258,1.2413935661315918,0.014906140975654125,0.0002661811013240367,-0.0721350759267807
18533392036062,-0.2059013545513153,-9.545681953430176,1.2761094570159912,0.0167694091796875,0.0007985432748682797,-0.0694732666015625
18533393273300,-0.152031809091568,-9.514557838439941,1.2976573705673218,0.0157046839594841,-0.0007985432748682797,-0.0702718123793602
18533394510525,-0.14844051003456116,-9.532514572143555,1.2773066759109497,0.01996358297765255,-0.0013309054775163531,-0.0750630721449852
18533395747775,-0.17477671802043915,-9.473855972290039,1.2461819648742676,0.02901373989880085,-0.0031941730994731188,-0.0801205113530159
18533396984987,-0.13048399984836578,-9.441534042358398,1.2449848651885986,0.0338049978017807,0.003460354171693325,-0.0798543319106102
18533398222237,-0.14245499670505524,-9.41759204864502,1.2832921743392944,0.0399271659553051,0.003460354171693325,-0.0846455842256546
18533399459450,-0.1472434103488922,-9.453505516052246,1.2820950746536255,0.0417904332280159,0.0037265352439135313,-0.08624267578125
18533400696712,-0.13048399984836578,-9.410409927368164,1.237802267074585,0.0463155098259449,0.0015970865497365594,-0.0851779505610466
18533401933950,-0.13287819921970367,-9.403226852416992,1.2629413604736328,0.0529700368642807,0.0042588976211845875,-0.0878397598862648
18533403171162,-0.13287819921970367,-9.391256332397461,1.2641384601593018,0.0566965714097023,0.01117960549890995,-0.0923648402094841
18533404408437,-0.12330138683319092,-9.366117477416992,1.2832921743392944,0.0596245639026165,0.00958251953125,-0.0889044851064682
18533405645662,-0.1280897855758667,-9.338583946228027,1.3299790620803833,0.0649481862783432,0.007453070487827063,-0.0931633859872818
18533406882875,-0.13287819921970367,-9.350554466247559,1.294066071510315,0.0724012553691864,0.0071868896484375,-0.0968899205327034
18533408120125,-0.13168109953403473,-9.41519832611084,1.2844892740249634,0.0742645263671875,0.008783976547420025,-0.100084088742733
18533409357350,-0.1496376097202301,-9.39365005493164,1.315613865852356,0.0801205113530159,0.003460354171693325,-0.0971560999751091
18533410594575,-0.11851298809051514,-9.412803649902344,1.3192051649093628,0.0867750346660614,0.005855984054505825,-0.0963575541973114
18533411831825,-0.11971008777618408,-9.460687637329102,1.2653355598449707,0.0865088552236557,0.014373779296875,-0.1003502756357193
18533413069075,-0.15083470940589905,-9.497797966003418,1.2868834733963013,0.091033935546875,0.014906140975654125,-0.1038106232881546
18533414306287,-0.16998831927776337,-9.510966300964355,1.2761094570159912,0.0960913747549057,0.00931633822619915,-0.0987531840801239
18533415543512,-0.17956513166427612,-9.583989143371582,1.2282254695892334,0.095292828977108,0.014906140975654125,-0.1051415354013443
18533416780762,-0.18315643072128296,-9.580398559570312,1.235408067703247,0.0998179093003273,0.02182685025036335,-0.1072709783911705
18533418018012,-0.22505496442317963,-9.651026725769043,1.2473790645599365,0.0990193635225296,0.01756795309484005,-0.1088680699467659
18533419255225,-0.22266076505184174,-9.714473724365234,1.2557587623596191,0.0995517298579216,0.01943122036755085,-0.1043429896235466
18533420492450,-0.21308395266532898,-9.774328231811523,1.236605167388916,0.1038106232881546,0.0210283063352108,-0.1032782644033432
18533421729700,-0.21547815203666687,-9.77672290802002,1.2114660739898682,0.1072709783911705,0.0247548408806324,-0.1011488139629364
18533422966925,-0.23942017555236816,-9.877279281616211,1.2246341705322266,0.1075371652841568,0.0282151959836483,-0.0987531840801239
18533424204187,-0.2645592987537384,-9.926360130310059,1.2006921768188477,0.1070047989487648,0.03034464456140995,-0.1024797186255455
18533425441412,-0.2693476974964142,-9.911994934082031,1.212663173675537,0.1070047989487648,0.0258195661008358,-0.1027459055185318
18533426678662,-0.22385786473751068,-9.963470458984375,1.2018892765045166,0.1059400737285614,0.0322079136967659,-0.1014149934053421
18533427915887,-0.22266076505184174,-10.002974510192871,1.1994950771331787,0.1014149934053421,0.0354020856320858,-0.0963575541973114
18533429153125,-0.2214636653661728,-10.017339706420898,1.2449848651885986,0.0987531840801239,0.0327402763068676,-0.0897030308842659
18533430390362,-0.20350714027881622,-10.037691116333008,1.192312479019165,0.0968899205327034,0.0372653529047966,-0.0944942906498909
18533431627587,-0.21547815203666687,-10.070012092590332,1.2294225692749023,0.0947604700922966,0.0417904332280159,-0.0899692103266716
18533432864825,-0.19871874153614044,-10.105925559997559,1.2042834758758545,0.0913001149892807,0.0385962575674057,-0.0841132253408432
18533434102050,-0.21787235140800476,-10.087968826293945,1.2042834758758545,0.0873074010014534,0.0401933453977108,-0.0841132253408432
18533435339300,-0.1759738326072693,-10.092757225036621,1.1791443824768066,0.0865088552236557,0.0393948033452034,-0.0833146795630455
18533436576525,-0.13527239859104156,-10.11669921875,1.1982979774475098,0.0843794047832489,0.0399271659553051,-0.0731998011469841
18533437813750,-0.13287819921970367,-10.14782428741455,1.215057373046875,0.0790557861328125,0.0420566126704216,-0.0721350759267807
18533439050987,-0.16160862147808075,-10.17296314239502,1.1767501831054688,0.0750630721449852,0.0465816929936409,-0.0710703507065773
18533440288237,-0.1867477297782898,-10.213664054870605,1.1863269805908203,0.0676099956035614,0.0508405901491642,-0.0646820068359375
18533441525450,-0.1735796183347702,-10.251972198486328,1.1743559837341309,0.0652143657207489,0.0500420443713665,-0.0644158273935318
18533442762725,-0.21188685297966003,-10.245985984802246,1.191115379333496,0.0590922012925148,0.0521714948117733,-0.0574951171875
18533443999925,-0.16639702022075653,-10.271125793457031,1.1875240802764893,0.057228934019804,0.0484449602663517,-0.0500420443713665
18533445237175,-0.14484921097755432,-10.26513957977295,1.2006921768188477,0.0553656667470932,0.0500420443713665,-0.0487111397087574
18533446474400,-0.17477671802043915,-10.323798179626465,1.1827356815338135,0.0465816929936409,0.0505744069814682,-0.0495096817612648
18533447711625,-0.1951274424791336,-10.315418243408203,1.2090718746185303,0.0388624407351017,0.0577612966299057,-0.0420566126704216
18533448948887,-0.2082955539226532,-10.314221382141113,1.2066776752471924,0.0356682650744915,0.0580274797976017,-0.0354020856320858
18533450186112,-0.1496376097202301,-10.289081573486328,1.1659762859344482,0.0327402763068676,0.0617540143430233,-0.03034464456140995
18533451423350,-0.17477671802043915,-10.286687850952148,1.1480196714401245,0.0263519287109375,0.0580274797976017,-0.02848137728869915
18533452660587,-0.16639702022075653,-10.26274585723877,1.1276689767837524,0.01224433071911335,0.0614878311753273,-0.02848137728869915
18533453897825,-0.1364694982767105,-10.253169059753418,1.1863269805908203,0.010381062515079975,0.0689409002661705,-0.02315775491297245
18533455135050,-0.12210428714752197,-10.213664054870605,1.1827356815338135,0.0090501569211483,0.0686747208237648,-0.0234239362180233
18533456372275,-0.10893617570400238,-10.194510459899902,1.2246341705322266,-0.0010647244052961469,0.0692070871591568,-0.02076212503015995
18533457609537,-0.12210428714752197,-10.135852813720703,1.1528080701828003,-0.010381062515079975,0.0692070871591568,-0.0138414166867733
18533458846775,-0.13168109953403473,-10.132261276245117,1.2198457717895508,-0.014373779296875,0.0692070871591568,-0.00692070834338665
18533460084000,-0.1149216815829277,-10.072406768798828,1.2234370708465576,-0.0157046839594841,0.0750630721449852,-0.007985432632267475
18533461321237,-0.0802057608962059,-10.068815231323242,1.2054805755615234,-0.0191650390625,0.0747968852519989,-0.0063883461989462376
18533462558487,-0.1149216815829277,-10.04846477508545,1.2449848651885986,-0.02369011752307415,0.0731998011469841,-0.003460354171693325
18533463795712,-0.09935937076807022,-10.046070098876953,1.2030863761901855,-0.02874755859375,0.0769263356924057,-0.0018632676219567657
18533465032912,-0.15801730751991272,-10.029311180114746,1.2449848651885986,-0.0340711809694767,0.0745307058095932,0.003460354171693325
18533466270175,-0.17238251864910126,-10.089165687561035,1.213860273361206,-0.033272635191679,0.0763939768075943,0.005057440605014563
18533467507412,-0.1280897855758667,-10.044873237609863,1.2078747749328613,-0.0388624407351017,0.0785234197974205,0.007985432632267475
18533468744637,-0.12210428714752197,-10.06043529510498,1.213860273361206,-0.0436537005007267,0.0769263356924057,0.010913425125181675
18533469981862,-0.09576807171106339,-10.08318042755127,1.2030863761901855,-0.0473802350461483,0.0854441300034523,0.00958251953125
18533471219100,-0.13527239859104156,-10.085575103759766,1.215057373046875,-0.0513729527592659,0.0897030308842659,0.01171196810901165
18533472456362,-0.1041477769613266,-10.078392028808594,1.2042834758758545,-0.0535023994743824,0.0843794047832489,0.02182685025036335
18533473693562,-0.08858546614646912,-10.08198356628418,1.236605167388916,-0.0574951171875,0.0819837749004364,0.01943122036755085
18533474930825,-0.07302315533161163,-10.096348762512207,1.213860273361206,-0.062286376953125,0.085710309445858,0.01889885775744915
18533476168062,-0.061052143573760986,-10.102334022521973,1.2042834758758545,-0.0625525563955307,0.0918324738740921,0.0252872034907341
18533477405275,-0.03711012750864029,-10.08078670501709,1.2114660739898682,-0.0649481862783432,0.0859764963388443,0.02262539230287075
18533478642512,-0.07900865375995636,-10.071209907531738,1.2306196689605713,-0.0649481862783432,0.0819837749004364,0.0263519287109375
18533479879762,-0.05626374110579491,-10.041281700134277,1.2413935661315918,-0.0689409002661705,0.0875735804438591,0.02661811001598835
18533481117000,-0.031124621629714966,-10.02571964263916,1.2509703636169434,-0.0700056254863739,0.0928971990942955,0.0324740931391716
18533482354237,0.0059855044819414616,-10.007762908935547,1.259350061416626,-0.0716027170419693,0.0915662944316864,0.0364668108522892
18533483591475,0.011971008963882923,-9.97065258026123,1.2725181579589844,-0.0755954310297966,0.0907677561044693,0.0404595248401165
18533484828700,-0.0059855044819414616,-9.97065258026123,1.2749123573303223,-0.0705379918217659,0.090501569211483,0.0388624407351017
18533486065950,0.031124621629714966,-9.97065258026123,1.2820950746536255,-0.0708041712641716,0.0944942906498909,0.0388624407351017
18533487303175,-0.008379706181585789,-9.963470458984375,1.2689268589019775,-0.076127789914608,0.085710309445858,0.0391286201775074
18533488540425,0.08259996026754379,-9.93593692779541,1.3251906633377075,-0.0798543319106102,0.0886383056640625,0.0409918874502182
18533489777650,0.06823474913835526,-9.927556991577148,1.3084312677383423,-0.07666015625,0.0873074010014534,0.0423227921128273
18533491014887,0.07062894850969315,-9.90122127532959,1.290474772453308,-0.0774587020277977,0.0891706645488739,0.0420566126704216
18533492252112,0.03950432687997818,-9.86770248413086,1.3431471586227417,-0.0750630721449852,0.090501569211483,0.043121337890625
18533493489350,0.04429273307323456,-9.908403396606445,1.316810965538025,-0.0790557861328125,0.0902353897690773,0.0425889752805233
18533494726587,0.03711012750864029,-9.874884605407715,1.3706804513931274,-0.076127789914608,0.0851779505610466,0.0447184219956398
18533495963862,0.07661445438861847,-9.858125686645508,1.2844892740249634,-0.0710703507065773,0.0843794047832489,0.0433875173330307
18533497201062,0.06584054976701736,-9.818621635437012,1.3335703611373901,-0.0742645263671875,0.0870412141084671,0.0487111397087574
18533498438300,0.09935937076807022,-9.824606895446777,1.260547161102295,-0.0769263356924057,0.0918324738740921,0.0513729527592659
18533499675525,0.10055647045373917,-9.827000617980957,1.3000515699386597,-0.0737321600317955,0.0894368439912796,0.0540347620844841
18533500912775,0.0933738648891449,-9.786299705505371,1.3012486696243286,-0.0721350759267807,0.091033935546875,0.0465816929936409
18533502150000,0.07541735470294952,-9.759963035583496,1.3096283674240112,-0.0747968852519989,0.0955590158700943,0.0447184219956398
18533503387250,0.12689268589019775,-9.798270225524902,1.3000515699386597,-0.0721350759267807,0.0881059393286705,0.0489773228764534
18533504624475,0.07541735470294952,-9.739612579345703,1.2844892740249634,-0.0705379918217659,0.0875735804438591,0.0481787770986557
18533505861712,0.07781155407428741,-9.756372451782227,1.3024457693099976,-0.0676099956035614,0.0859764963388443,0.0516391322016716
18533507098937,0.0347159244120121,-9.759963035583496,1.2246341705322266,-0.0678761824965477,0.0897030308842659,0.0503082275390625
18533508336175,0.08379705995321274,-9.736021041870117,1.2617442607879639,-0.0716027170419693,0.0870412141084671,0.0471140518784523
18533509573412,0.0454898327589035,-9.72285270690918,1.2797008752822876,-0.0649481862783432,0.0881059393286705,0.0508405901491642
18533510810662,0.08259996026754379,-9.715670585632324,1.2042834758758545,-0.0646820068359375,0.0835808664560318,0.0487111397087574
18533512047900,0.090979665517807,-9.756372451782227,1.2545616626739502,-0.062286376953125,0.0811852365732193,0.0495096817612648
18533513285125,0.090979665517807,-9.773131370544434,1.291671872138977,-0.0638834610581398,0.0787896066904068,0.04791259765625
18533514522375,0.08379705995321274,-9.75517463684082,1.2737152576446533,-0.062286376953125,0.0811852365732193,0.04791259765625
18533515759600,0.07182604819536209,-9.798270225524902,1.2078747749328613,-0.0660129114985466,0.0833146795630455,0.0463155098259449
18533516996837,0.0802057608962059,-9.805453300476074,1.2102689743041992,-0.0694732666015625,0.0833146795630455,0.0425889752805233
18533518234050,0.11133038252592087,-9.828198432922363,1.2186486721038818,-0.0638834610581398,0.0825161412358284,0.0439198799431324
18533519471287,0.0694318488240242,-9.854534149169922,1.1827356815338135,-0.062286376953125,0.0801205113530159,0.0449846051633358
18533520708525,0.09935937076807022,-9.874884605407715,1.1504138708114624,-0.0636172816157341,0.0763939768075943,0.0425889752805233
18533521945762,0.08619125932455063,-9.8784761428833,1.1994950771331787,-0.0662790909409523,0.0806528702378273,0.038063894957304
18533523183012,0.07781155407428741,-9.891644477844238,1.2198457717895508,-0.0646820068359375,0.0750630721449852,0.0351359061896801
18533524420250,0.06224924325942993,-9.895236015319824,1.1671733856201172,-0.0630849227309227,0.0798543319106102,0.0330064557492733
18533525657487,0.06344634294509888,-9.90122127532959,1.1875240802764893,-0.0649481862783432,0.0777248814702034,0.0319417305290699
18533526894725,0.07900865375995636,-9.911994934082031,1.2030863761901855,-0.0596245639026165,0.07666015625,0.0351359061896801
18533528131937,0.05147533863782883,-9.927556991577148,1.2473790645599365,-0.0598907470703125,0.0708041712641716,0.0356682650744915
18533529369187,0.06464345008134842,-9.914389610290527,1.1851298809051514,-0.0636172816157341,0.0731998011469841,0.0300784632563591
18533530606400,0.09217676520347595,-9.939528465270996,1.2330138683319092,-0.0636172816157341,0.0676099956035614,0.0322079136967659
18533531843662,0.05985504388809204,-9.926360130310059,1.192312479019165,-0.0638834610581398,0.0731998011469841,0.0268842913210392
18533533080900,0.0933738648891449,-9.877279281616211,1.2258312702178955,-0.0630849227309227,0.0726674422621727,0.02369011752307415
18533534318125,0.026336219161748886,-9.913191795349121,1.2078747749328613,-0.0681423619389534,0.0705379918217659,0.0210283063352108
18533535555362,0.10893617570400238,-9.883264541625977,1.1671733856201172,-0.0686747208237648,0.0681423619389534,0.0228915736079216
18533536792587,0.10893617570400238,-9.873687744140625,1.2114660739898682,-0.0636172816157341,0.0662790909409523,0.01943122036755085
18533538029837,0.10295067727565765,-9.911994934082031,1.193509578704834,-0.0686747208237648,0.0681423619389534,0.0210283063352108
18533539267075,0.08259996026754379,-9.854534149169922,1.2222399711608887,-0.0710703507065773,0.0662790909409523,0.01597086526453495
18533540504300,0.07062894850969315,-9.86889934539795,1.1504138708114624,-0.0676099956035614,0.0649481862783432,0.0186326764523983
18533541741537,0.07781155407428741,-9.858125686645508,1.1671733856201172,-0.0708041712641716,0.0598907470703125,0.0181003138422966
18533542978775,0.08379705995321274,-9.86889934539795,1.193509578704834,-0.0668114572763443,0.0630849227309227,0.01463996060192585
18533544216012,0.0802057608962059,-9.860519409179688,1.1575965881347656,-0.0657467320561409,0.0644158273935318,0.02129448764026165
18533545453237,0.07422025501728058,-9.841365814208984,1.1587936878204346,-0.0686747208237648,0.062286376953125,0.0196974016726017
18533546690487,0.040701430290937424,-9.838972091674805,1.1803414821624756,-0.0705379918217659,0.0612216517329216,0.0186326764523983
18533547927725,0.05626374110579491,-9.823410034179688,1.1563994884490967,-0.0702718123793602,0.0590922012925148,0.01597086526453495
18533549164950,0.06344634294509888,-9.7791166305542,1.1480196714401245,-0.0710703507065773,0.0582936592400074,0.0210283063352108
18533550402200,0.019153613597154617,-9.803058624267578,1.1552022695541382,-0.0681423619389534,0.0540347620844841,0.01996358297765255
18533551639412,0.05506663769483566,-9.791088104248047,1.1097124814987183,-0.0729336217045784,0.0577612966299057,0.01410759799182415
18533552876675,0.06464345008134842,-9.78869342803955,1.1432312726974487,-0.0697394460439682,0.0582936592400074,0.00931633822619915
18533554113887,0.0694318488240242,-9.799468040466309,1.1492167711257935,-0.0708041712641716,0.0508405901491642,0.01357523538172245
18533555351137,0.03711012750864029,-9.791088104248047,1.1192892789840698,-0.0731998011469841,0.0492435023188591,0.0204959437251091
18533556588362,0.02274491637945175,-9.787496566772461,1.1097124814987183,-0.0684085413813591,0.0492435023188591,0.02129448764026165
18533557825612,0.004788403399288654,-9.786299705505371,1.1228805780410767,-0.0678761824965477,0.04791259765625,0.0220930315554142
18533559062850,-0.011971008963882923,-9.801861763000488,1.0809820890426636,-0.0678761824965477,0.047646414488554,0.0223592109978199
18533560300075,0.02274491637945175,-9.800664901733398,1.0881646871566772,-0.0684085413813591,0.0468478724360466,0.0204959437251091
18533561537312,0.015562310814857483,-9.767146110534668,1.0869675874710083,-0.0726674422621727,0.0511067695915699,0.01996358297765255
18533562774550,0.02992752194404602,-9.797073364257812,1.1037269830703735,-0.0684085413813591,0.0473802350461483,0.0220930315554142
18533564011800,0.010773907415568829,-9.804256439208984,1.0857704877853394,-0.0702718123793602,0.0436537005007267,0.02262539230287075
18533565249000,0.0059855044819414616,-9.738415718078613,1.07379949092865,-0.0716027170419693,0.0415242500603199,0.0220930315554142
18533566486262,0.0035913025494664907,-9.733627319335938,1.0833762884140015,-0.0673438161611557,0.0409918874502182,0.02315775491297245
18533567723487,-0.0035913025494664907,-9.780314445495605,1.0965443849563599,-0.0684085413813591,0.0399271659553051,0.0215606689453125
18533568960725,0.038307227194309235,-9.757569313049316,1.0534487962722778,-0.0652143657207489,0.0367329902946949,0.0247548408806324
18533570197975,0.02992752194404602,-9.785102844238281,1.0295066833496094,-0.06707763671875,0.0362006276845932,0.0244886614382267
18533571435187,-0.021547814831137657,-9.763554573059082,1.0630255937576294,-0.0710703507065773,0.0407257080078125,0.02022976242005825
18533572672437,-0.0035913025494664907,-9.780314445495605,1.0570400953292847,-0.0641496405005455,0.0346035435795784,0.0258195661008358
18533573909662,0.014365210197865963,-9.780314445495605,1.05105459690094,-0.0636172816157341,0.0343373604118824,0.0263519287109375
18533575146900,-0.04429273307323456,-9.770737648010254,1.0690110921859741,-0.0668114572763443,0.0364668108522892,0.0276828333735466
18533576384137,-0.03950432687997818,-9.782708168029785,1.0366894006729126,-0.0649481862783432,0.0271504707634449,0.0258195661008358
18533577621362,-0.04668693244457245,-9.7791166305542,1.0019733905792236,-0.0662790909409523,0.0282151959836483,0.02661811001598835
18533578858612,-0.031124621629714966,-9.762357711791992,1.0450690984725952,-0.0638834610581398,0.0314093679189682,0.02848137728869915
18533580095837,-0.04429273307323456,-9.769539833068848,1.047463297843933,-0.0617540143430233,0.0271504707634449,0.03087700717151165
18533581333075,0.0011971008498221636,-9.758766174316406,1.0857704877853394,-0.0614878311753273,0.0252872034907341,0.0306108258664608
18533582570312,-0.038307227194309235,-9.72165584564209,1.0785878896713257,-0.0646820068359375,0.02129448764026165,0.0311431884765625
18533583807550,-0.02274491637945175,-9.704896926879883,1.0785878896713257,-0.0697394460439682,0.0220930315554142,0.0292799212038517
18533585044775,-0.028730420395731926,-9.736021041870117,1.0582371950149536,-0.0662790909409523,0.0295461006462574,0.0268842913210392
18533586282012,-0.0071826050989329815,-9.763554573059082,1.0426748991012573,-0.0636172816157341,0.0244886614382267,0.0258195661008358
18533587519262,-0.008379706181585789,-9.747992515563965,1.0690110921859741,-0.0601569265127182,0.0223592109978199,0.02794901467859745
18533588756475,-0.035913024097681046,-9.666589736938477,1.0558429956436157,-0.062020193785429,0.02262539230287075,0.02794901467859745
18533589993737,-0.03711012750864029,-9.679757118225098,1.0534487962722778,-0.0636172816157341,0.0196974016726017,0.0258195661008358
18533591230962,-0.031124621629714966,-9.674968719482422,0.993593692779541,-0.0588260218501091,0.02608574740588665,0.0258195661008358
18533592468200,-0.07900865375995636,-9.657012939453125,1.0414777994155884,-0.0646820068359375,0.0258195661008358,0.0258195661008358
18533593705450,-0.03711012750864029,-9.634267807006836,1.0211269855499268,-0.0617540143430233,0.02022976242005825,0.02315775491297245
18533594942662,-0.02992752194404602,-9.612719535827637,1.0235211849212646,-0.0574951171875,0.0181003138422966,0.02502102218568325
18533596179900,0.010773907415568829,-9.618705749511719,1.0103530883789062,-0.0558980293571949,0.01756795309484005,0.02369011752307415
18533597417150,-0.02992752194404602,-9.612719535827637,0.94930100440979,-0.0553656667470932,0.01357523538172245,0.02422248013317585
18533598654375,-0.07182604819536209,-9.641449928283691,1.0091559886932373,-0.0529700368642807,0.00984870083630085,0.01836649514734745
18533599891600,-0.05147533863782883,-9.604340553283691,0.993593692779541,-0.0545671246945858,0.0114457868039608,0.01783413253724575
18533601128850,-0.0035913025494664907,-9.603142738342285,1.0067617893218994,-0.0457831472158432,0.00958251953125,0.02022976242005825
18533602366075,-0.07182604819536209,-9.585186958312988,0.9636662006378174,-0.0487111397087574,0.008517795242369175,0.0204959437251091
18533603603325,-0.05027823522686958,-9.612719535827637,0.9696516990661621,-0.0511067695915699,0.010647243820130825,0.01410759799182415
18533604840550,-0.0694318488240242,-9.591172218322754,1.0199298858642578,-0.0503082275390625,0.010381062515079975,0.012776692397892475
18533606077800,-0.07302315533161163,-9.640253067016602,0.9684545993804932,-0.0452507846057415,0.0071868896484375,0.01357523538172245
18533607315012,-0.0454898327589035,-9.62828254699707,1.0031704902648926,-0.0420566126704216,0.0090501569211483,0.014373779296875
18533608552262,-0.0347159244120121,-9.591172218322754,0.9720458984375,-0.0385962575674057,0.0077192517928779125,0.0090501569211483
18533609789500,-0.08259996026754379,-9.589975357055664,0.9397241473197937,-0.038330078125,0.0026618109550327063,0.013042873702943325
18533611026725,-0.1173158809542656,-9.623494148254395,0.9385270476341248,-0.0391286201775074,0.007453070487827063,0.0071868896484375
18533612263962,-0.03950432687997818,-9.627084732055664,0.9911994934082031,-0.0359344482421875,0.007985432632267475,0.005057440605014563
18533613501200,-0.05985504388809204,-9.605537414550781,0.9672574996948242,-0.038063894957304,0.0063883461989462376,0.005589802749454975
18533614738425,-0.06823474913835526,-9.609128952026367,0.93254154920578,-0.0359344482421875,0.0026618109550327063,0.0077192517928779125
18533615975662,-0.05147533863782883,-9.633070945739746,0.9540894031524658,-0.0324740931391716,0.0023956298828125,0.007985432632267475
18533617212912,-0.05746084079146385,-9.600749015808105,0.9804255962371826,-0.0306108258664608,0.00931633822619915,0.00958251953125
18533618450137,-0.04429273307323456,-9.62828254699707,0.9900023937225342,-0.0268842913210392,0.0066545275039970875,0.008783976547420025
18533619687387,-0.07900865375995636,-9.651026725769043,0.9516952037811279,-0.0364668108522892,0.005589802749454975,0.0023956298828125
18533620924600,-0.1041477769613266,-9.62947940826416,0.9397241473197937,-0.02794901467859745,-0.0005323622026480734,0.0063883461989462376
18533622161862,-0.06344634294509888,-9.63187313079834,0.9169792532920837,-0.0252872034907341,-0.0021294488105922937,0.0029279920272529125
18533623399087,-0.09217676520347595,-9.63187313079834,0.9445126056671143,-0.0223592109978199,0.0021294488105922937,-0.0023956298828125
18533624636325,-0.08499415963888168,-9.677363395690918,0.9840168952941895,-0.01783413253724575,0.006122165359556675,-0.00692070834338665
18533625873562,-0.05386953800916672,-9.609128952026367,0.9361328482627869,-0.0204959437251091,0.0023956298828125,-0.003460354171693325
18533627110812,-0.08499415963888168,-9.634267807006836,0.9588778018951416,-0.0210283063352108,-0.0039927163161337376,-0.0039927163161337376
18533628348025,-0.1149216815829277,-9.622296333312988,0.94930100440979,-0.0191650390625,-0.0002661811013240367,-0.0053236219100654125
18533629585275,-0.05506663769483566,-9.623494148254395,0.99479079246521,-0.0157046839594841,0.0071868896484375,-0.008251613937318325
18533630822500,-0.09935937076807022,-9.636661529541016,0.973242998123169,-0.012776692397892475,-0.0037265352439135313,-0.010114881210029125
18533632059750,-0.09696517139673233,-9.639056205749512,0.9361328482627869,-0.01410759799182415,-0.0029279920272529125,-0.012776692397892475
18533633296987,-0.10055647045373917,-9.588777542114258,0.9672574996948242,-0.01171196810901165,-0.0021294488105922937,-0.0119781494140625
18533634534212,-0.04788403585553169,-9.612719535827637,0.9373299479484558,-0.010647243820130825,-0.0013309054775163531,-0.01410759799182415
18533635771437,-0.12330138683319092,-9.618705749511719,0.9672574996948242,-0.0090501569211483,-0.0007985432748682797,-0.014906140975654125
18533637008687,-0.14844051003456116,-9.599552154541016,0.9959878921508789,-0.0037265352439135313,-0.0010647244052961469,-0.014906140975654125
18533638245912,-0.061052143573760986,-9.62947940826416,0.9756371974945068,-0.007453070487827063,-0.003460354171693325,-0.012510511092841625
18533639483175,-0.04908113554120064,-9.627084732055664,1.0043675899505615,-0.005057440605014563,-0.00452507846057415,-0.015172322280704975
18533640720362,-0.09816227108240128,-9.645041465759277,0.9457097053527832,0.0042588976211845875,-0.007453070487827063,-0.012776692397892475
18533641957625,-0.10055647045373917,-9.601945877075195,0.9265560507774353,0.0015970865497365594,-0.005855984054505825,-0.0162370465695858
18533643194862,-0.13407529890537262,-9.623494148254395,0.9445126056671143,0.0018632676219567657,-0.0039927163161337376,-0.0204959437251091
18533644432087,-0.08858546614646912,-9.639056205749512,0.9612720012664795,0.0071868896484375,-0.0077192517928779125,-0.014373779296875
18533645669337,-0.1173158809542656,-9.59715747833252,0.9564836025238037,0.008517795242369175,-0.007985432632267475,-0.01463996060192585
18533646906550,-0.09217676520347595,-9.645041465759277,0.99479079246521,0.005589802749454975,-0.0071868896484375,-0.0196974016726017
18533648143812,-0.10893617570400238,-9.627084732055664,0.9744400978088379,0.0063883461989462376,-0.008251613937318325,-0.02369011752307415
18533649381062,-0.10773907601833344,-9.645041465759277,0.94930100440979,0.0071868896484375,-0.0037265352439135313,-0.02555338479578495
18533650618287,-0.0454898327589035,-9.642647743225098,0.9540894031524658,0.008517795242369175,-0.0053236219100654125,-0.0191650390625
18533651855525,-0.11611878126859665,-9.607931137084961,0.9181763529777527,0.01357523538172245,-0.0077192517928779125,-0.02369011752307415
18533653092750,-0.090979665517807,-9.622296333312988,0.9780313968658447,0.0114457868039608,-0.0053236219100654125,-0.0228915736079216
18533654329987,-0.11133038252592087,-9.63067626953125,1.0103530883789062,0.00984870083630085,-0.0002661811013240367,-0.02369011752307415
18533655567200,-0.08858546614646912,-9.667786598205566,0.9552865028381348,0.008783976547420025,-0.0037265352439135313,-0.02555338479578495
18533656804462,-0.08738835901021957,-9.66539192199707,0.9744400978088379,0.01597086526453495,-0.004791259765625,-0.02981228195130825
18533658041687,-0.08259996026754379,-9.646238327026367,0.9636662006378174,0.02129448764026165,-0.005589802749454975,-0.0276828333735466
18533659278937,-0.1280897855758667,-9.641449928283691,0.9576807022094727,0.0220930315554142,-0.0037265352439135313,-0.02874755859375
18533660516150,-0.10893617570400238,-9.673771858215332,0.9804255962371826,0.0234239362180233,-0.0090501569211483,-0.0295461006462574
18533661753375,-0.1173158809542656,-9.683348655700684,0.9804255962371826,0.014906140975654125,-0.0018632676219567657,-0.0314093679189682
18533662990637,-0.06584054976701736,-9.676166534423828,1.0031704902648926,0.01996358297765255,-0.0063883461989462376,-0.0314093679189682
18533664227875,-0.08140286058187485,-9.692925453186035,0.9660604000091553,0.02076212503015995,-0.003460354171693325,-0.02874755859375
18533665465100,-0.08259996026754379,-9.707290649414062,0.9876081943511963,0.0234239362180233,-0.006122165359556675,-0.033272635191679
18533666702337,-0.07661445438861847,-9.737218856811523,1.0079588890075684,0.02129448764026165,-0.00931633822619915,-0.0367329902946949
18533667939550,-0.07302315533161163,-9.694122314453125,0.99479079246521,0.0295461006462574,-0.0037265352439135313,-0.0319417305290699
18533669176812,-0.06344634294509888,-9.651026725769043,0.9900023937225342,0.0276828333735466,-0.0029279920272529125,-0.0324740931391716
18533670414037,-0.06224924325942993,-9.683348655700684,1.0091559886932373,0.0263519287109375,-0.0031941730994731188,-0.0354020856320858
18533671651287,-0.07661445438861847,-9.731232643127441,0.9864110946655273,0.0271504707634449,-0.006122165359556675,-0.0359344482421875
18533672888512,-0.038307227194309235,-9.71926212310791,1.0055646896362305,0.0276828333735466,-0.004791259765625,-0.0362006276845932
18533674125762,-0.08619125932455063,-9.691728591918945,1.013944387435913,0.0292799212038517,-0.0013309054775163531,-0.0401933453977108
18533675362975,-0.11133038252592087,-9.715670585632324,1.0091559886932373,0.0282151959836483,-0.0026618109550327063,-0.0359344482421875
18533676600237,-0.06344634294509888,-9.678560256958008,1.0295066833496094,0.0330064557492733,-0.007985432632267475,-0.0356682650744915
18533677837450,-0.0933738648891449,-9.695320129394531,0.9888052940368652,0.0330064557492733,-0.0037265352439135313,-0.0423227921128273
18533679074687,-0.04429273307323456,-9.733627319335938,1.0366894006729126,0.02874755859375,-0.0023956298828125,-0.0369991734623909
18533680311937,-0.08858546614646912,-9.700108528137207,0.9636662006378174,0.03034464456140995,-0.003460354171693325,-0.0338049978017807
18533681549175,-0.021547814831137657,-9.690531730651855,1.016338586807251,0.0340711809694767,0.0,-0.0367329902946949
18533682786400,-0.06224924325942993,-9.701305389404297,0.99479079246521,0.0311431884765625,-0.003460354171693325,-0.0356682650744915
18533684023637,-0.05985504388809204,-9.697713851928711,1.0091559886932373,0.0327402763068676,-0.0063883461989462376,-0.0343373604118824
18533685260862,-0.07182604819536209,-9.724050521850586,0.9900023937225342,0.0356682650744915,-0.013309055007994175,-0.0346035435795784
18533686498112,-0.05027823522686958,-9.75517463684082,0.99479079246521,0.0330064557492733,-0.008783976547420025,-0.038330078125
18533687735337,-0.04189852997660637,-9.732430458068848,0.9768342971801758,0.0356682650744915,-0.0031941730994731188,-0.0346035435795784
18533688972587,-0.07541735470294952,-9.704896926879883,0.9983820915222168,0.0385962575674057,-0.0010647244052961469,-0.0369991734623909
18533690209812,-0.05267243832349777,-9.668983459472656,1.0091559886932373,0.0391286201775074,-0.0031941730994731188,-0.0409918874502182
18533691447050,-0.08140286058187485,-9.68694019317627,1.0390836000442505,0.0415242500603199,-0.006122165359556675,-0.0404595248401165
18533692684287,-0.014365210197865963,-9.731232643127441,0.9804255962371826,0.0417904332280159,-0.00931633822619915,-0.0417904332280159
18533693921537,-0.0454898327589035,-9.75158405303955,1.0366894006729126,0.0409918874502182,-0.005589802749454975,-0.0439198799431324
18533695158762,-0.05027823522686958,-9.75397777557373,1.01753568649292,0.0441860631108284,-0.003460354171693325,-0.038063894957304
18533696395987,-0.028730420395731926,-9.759963035583496,1.0330979824066162,0.0439198799431324,-0.0018632676219567657,-0.0372653529047966
18533697633250,-0.004788403399288654,-9.769539833068848,0.993593692779541,0.0396609827876091,-0.005057440605014563,-0.0404595248401165
18533698870475,-0.015562310814857483,-9.771934509277344,1.0414777994155884,0.043121337890625,-0.0114457868039608,-0.0412580706179142
18533700107712,-0.03711012750864029,-9.787496566772461,1.047463297843933,0.0460493303835392,-0.0077192517928779125,-0.0362006276845932
18533701344937,0.013168109580874443,-9.793481826782227,1.0905588865280151,0.0436537005007267,0.0,-0.0404595248401165
18533702582187,-0.023942017927765846,-9.774328231811523,1.049857497215271,0.0423227921128273,-0.0015970865497365594,-0.0420566126704216
18533703819400,-0.010773907415568829,-9.794679641723633,1.0582371950149536,0.0385962575674057,-0.0053236219100654125,-0.0423227921128273
18533705056650,-0.011971008963882923,-9.77672290802002,1.0295066833496094,0.043121337890625,-0.00452507846057415,-0.0425889752805233
18533706293887,0.0059855044819414616,-9.797073364257812,1.0271124839782715,0.0436537005007267,-0.005589802749454975,-0.0407257080078125
18533707531125,-0.020350715145468712,-9.783905029296875,1.0857704877853394,0.0460493303835392,-0.00452507846057415,-0.043121337890625
18533708768350,0.017956512048840523,-9.792284965515137,1.0821791887283325,0.0473802350461483,-0.007453070487827063,-0.0385962575674057
18533710005600,0.0011971008498221636,-9.792284965515137,1.0462661981582642,0.0444522425532341,-0.0053236219100654125,-0.0385962575674057
18533711242837,0.023942017927765846,-9.818621635437012,1.0773907899856567,0.0401933453977108,-0.0015970865497365594,-0.0452507846057415
18533712480075,0.020350715145468712,-9.77552604675293,1.1228805780410767,0.0436537005007267,-0.0053236219100654125,-0.0444522425532341
18533713717300,0.0011971008498221636,-9.816226959228516,1.0881646871566772,0.042855154722929,-0.0021294488105922937,-0.0425889752805233
18533714954550,0.010773907415568829,-9.80904483795166,1.0426748991012573,0.0444522425532341,-0.0063883461989462376,-0.0415242500603199
18533716191775,0.008379706181585789,-9.822212219238281,1.0857704877853394,0.0452507846057415,-0.00931633822619915,-0.0417904332280159
18533717429012,0.03950432687997818,-9.853337287902832,1.116895079612732,0.0444522425532341,-0.0066545275039970875,-0.0343373604118824
18533718666262,0.02992752194404602,-9.840168952941895,1.0618284940719604,0.04791259765625,-0.005855984054505825,-0.0367329902946949
18533719903500,0.04668693244457245,-9.860519409179688,1.1204863786697388,0.0449846051633358,-0.0029279920272529125,-0.0417904332280159
18533721140712,0.04189852997660637,-9.848548889160156,1.1097124814987183,0.0463155098259449,-0.0066545275039970875,-0.0423227921128273
18533722377950,0.010773907415568829,-9.861717224121094,1.113303780555725,0.0468478724360466,-0.0077192517928779125,-0.0396609827876091
18533723615200,0.038307227194309235,-9.819818496704102,1.1037269830703735,0.0425889752805233,0.0005323622026480734,-0.0401933453977108
18533724852450,0.026336219161748886,-9.836577415466309,1.1204863786697388,0.0460493303835392,-0.0005323622026480734,-0.0364668108522892
18533726089662,0.05027823522686958,-9.829395294189453,1.0821791887283325,0.0497758649289608,-0.00692070834338665,-0.0300784632563591
18533727326900,0.002394201699644327,-9.848548889160156,1.1192892789840698,0.0401933453977108,-0.0053236219100654125,-0.0359344482421875
18533728564137,0.05626374110579491,-9.848548889160156,1.095347285270691,0.0452507846057415,-0.0071868896484375,-0.0319417305290699
18533729801387,0.05267243832349777,-9.819818496704102,1.0845733880996704,0.0497758649289608,-0.00931633822619915,-0.0343373604118824
18533731038625,0.014365210197865963,-9.853337287902832,1.1073182821273804,0.0393948033452034,-0.004791259765625,-0.0385962575674057
18533732275850,0.05147533863782883,-9.818621635437012,1.091755986213684,0.0407257080078125,-0.0031941730994731188,-0.0362006276845932
18533733513100,0.02992752194404602,-9.856928825378418,1.1300631761550903,0.0452507846057415,-0.0090501569211483,-0.033272635191679
18533734750325,0.05386953800916672,-9.81263542175293,1.113303780555725,0.04791259765625,-0.00984870083630085,-0.0295461006462574
18533735987550,0.05027823522686958,-9.835380554199219,1.0809820890426636,0.0417904332280159,-0.0037265352439135313,-0.0276828333735466
18533737224800,0.02274491637945175,-9.849745750427246,1.0809820890426636,0.0330064557492733,-0.0053236219100654125,-0.0311431884765625
18533738462025,0.040701430290937424,-9.854534149169922,1.0857704877853394,0.0415242500603199,-0.0090501569211483,-0.0322079136967659
18533739699275,0.03711012750864029,-9.86770248413086,1.0905588865280151,0.0404595248401165,-0.008251613937318325,-0.0223592109978199
18533740936500,0.019153613597154617,-9.865307807922363,1.095347285270691,0.0369991734623909,-0.010381062515079975,-0.0234239362180233
18533742173750,0.028730420395731926,-9.885659217834473,1.1061211824417114,0.0396609827876091,-0.005589802749454975,-0.0271504707634449
18533743410975,0.010773907415568829,-9.864110946655273,1.1061211824417114,0.0409918874502182,-0.0071868896484375,-0.0311431884765625
18533744648212,0.05626374110579491,-9.872490882873535,1.0821791887283325,0.0372653529047966,-0.008517795242369175,-0.0322079136967659
18533745885450,0.07422025501728058,-9.847352027893066,1.1097124814987183,0.038063894957304,-0.013042873702943325,-0.0292799212038517
18533747122687,0.05985504388809204,-9.853337287902832,1.1480196714401245,0.0359344482421875,-0.0063883461989462376,-0.02369011752307415
18533748359925,0.05506663769483566,-9.90122127532959,1.114500880241394,0.038063894957304,-0.0077192517928779125,-0.02608574740588665
18533749597137,0.06344634294509888,-9.890447616577148,1.0905588865280151,0.0388624407351017,-0.005057440605014563,-0.0220930315554142
18533750834400,0.028730420395731926,-9.90122127532959,1.113303780555725,0.0330064557492733,-0.0031941730994731188,-0.0271504707634449
18533752071625,0.04429273307323456,-9.880870819091797,1.1037269830703735,0.0327402763068676,-0.010114881210029125,-0.02608574740588665
18533753308875,0.04189852997660637,-9.9000244140625,1.1432312726974487,0.0356682650744915,-0.01224433071911335,-0.02262539230287075
18533754546100,0.0802057608962059,-9.906009674072266,1.1001356840133667,0.0359344482421875,-0.0090501569211483,-0.02555338479578495
18533755783337,0.043095629662275314,-9.921571731567383,1.1444283723831177,0.0314093679189682,-0.008783976547420025,-0.02129448764026165
18533757020562,0.033518824726343155,-9.915586471557617,1.1563994884490967,0.0324740931391716,-0.008251613937318325,-0.0223592109978199
18533758257812,0.07541735470294952,-9.908403396606445,1.169567584991455,0.02901373989880085,-0.00958251953125,-0.0181003138422966
18533759495062,0.09576807171106339,-9.932345390319824,1.136048674583435,0.033272635191679,-0.0077192517928779125,-0.01357523538172245
18533760732287,0.090979665517807,-9.907206535339355,1.1228805780410767,0.0327402763068676,-0.007985432632267475,-0.0167694091796875
18533761969525,0.061052143573760986,-9.848548889160156,1.1623849868774414,0.02848137728869915,-0.010913425125181675,-0.0186326764523983
18533763206750,0.02274491637945175,-9.84376049041748,1.1839327812194824,0.02076212503015995,-0.010381062515079975,-0.01889885775744915
18533764444000,0.10055647045373917,-9.897629737854004,1.1420341730117798,0.02555338479578495,-0.0090501569211483,-0.0204959437251091
18533765681237,0.11013327538967133,-9.872490882873535,1.1839327812194824,0.0271504707634449,-0.0114457868039608,-0.0157046839594841
18533766918487,0.10534487664699554,-9.853337287902832,1.1647791862487793,0.0263519287109375,-0.01171196810901165,-0.02129448764026165
18533768155687,0.06703764945268631,-9.81024169921875,1.2102689743041992,0.0244886614382267,-0.00452507846057415,-0.01650322787463665
18533769392962,0.11133038252592087,-9.822212219238281,1.1587936878204346,0.0244886614382267,-0.0063883461989462376,-0.0090501569211483
18533770630187,0.1388636976480484,-9.795876502990723,1.1683704853057861,0.02022976242005825,-0.00958251953125,-0.014373779296875
18533771867412,0.10893617570400238,-9.813833236694336,1.1815385818481445,0.02076212503015995,-0.00692070834338665,-0.013309055007994175
18533773104662,0.08379705995321274,-9.80904483795166,1.170764684677124,0.023956298828125,-0.008251613937318325,-0.0077192517928779125
18533774341900,0.0802057608962059,-9.770737648010254,1.2030863761901855,0.02555338479578495,-0.008251613937318325,-0.008251613937318325
18533775579137,0.08978256583213806,-9.77791976928711,1.1635820865631104,0.0228915736079216,-0.010913425125181675,-0.0090501569211483
18533776816350,0.09816227108240128,-9.758766174316406,1.1743559837341309,0.02129448764026165,-0.0071868896484375,-0.008783976547420025
18533778053600,0.06823474913835526,-9.824606895446777,1.1767501831054688,0.0263519287109375,-0.0114457868039608,-0.0063883461989462376
18533779290837,0.03950432687997818,-9.805453300476074,1.1480196714401245,0.0268842913210392,-0.012776692397892475,-0.004791259765625
18533780528075,0.07302315533161163,-9.832986831665039,1.1575965881347656,0.02262539230287075,-0.0066545275039970875,-0.0071868896484375
18533781765287,0.0347159244120121,-9.841365814208984,1.1827356815338135,0.01756795309484005,-0.0071868896484375,-0.008783976547420025
18533783002562,0.043095629662275314,-9.84495735168457,1.1755530834197998,0.02129448764026165,-0.0114457868039608,-0.007985432632267475
18533784239775,0.0059855044819414616,-9.86770248413086,1.1420341730117798,0.02022976242005825,-0.0090501569211483,-0.0063883461989462376
18533785477012,0.035913024097681046,-9.877279281616211,1.1109095811843872,0.01463996060192585,-0.00958251953125,-0.0029279920272529125
18533786714262,0.023942017927765846,-9.928754806518555,1.1073182821273804,0.0210283063352108,-0.012510511092841625,-0.005855984054505825
18533787951500,0.04429273307323456,-9.919178009033203,1.0989385843276978,0.02076212503015995,-0.00958251953125,-0.0039927163161337376
18533789188725,0.008379706181585789,-9.916783332824707,1.0809820890426636,0.014373779296875,-0.0037265352439135313,-0.0066545275039970875
18533790425975,0.0,-9.950302124023438,1.091755986213684,0.012776692397892475,-0.00984870083630085,-0.007453070487827063
18533791663200,0.0035913025494664907,-9.976638793945312,1.1300631761550903,0.005855984054505825,-0.00931633822619915,-0.007453070487827063
18533792900425,0.0,-9.988609313964844,1.0845733880996704,0.010913425125181675,-0.008517795242369175,0.0
18533794137662,0.05267243832349777,-9.964667320251465,1.1204863786697388,0.012510511092841625,-0.00958251953125,0.0031941730994731188
18533795374912,0.016759412363171577,-9.981427192687988,1.0965443849563599,0.010647243820130825,-0.010913425125181675,0.0042588976211845875
18533796612162,-0.013168109580874443,-9.938331604003906,1.0905588865280151,0.0077192517928779125,-0.00984870083630085,0.0
18533797849362,0.009576806798577309,-9.929951667785645,1.1073182821273804,0.01171196810901165,-0.008783976547420025,-0.0026618109550327063
18533799086625,0.03711012750864029,-9.90361499786377,1.1312602758407593,0.008251613937318325,-0.004791259765625,-0.0015970865497365594
18533800323862,0.02992752194404602,-9.923966407775879,1.1599907875061035,-0.0010647244052961469,-0.00958251953125,-0.003460354171693325
18533801561100,-0.020350715145468712,-9.926360130310059,1.1587936878204346,0.0023956298828125,-0.0063883461989462376,-0.0007985432748682797
18533802798325,-0.020350715145468712,-9.9371337890625,1.139639973640442,0.0010647244052961469,0.0013309054775163531,0.0023956298828125
18533804035550,0.021547814831137657,-9.888052940368652,1.1599907875061035,0.003460354171693325,-0.0066545275039970875,0.0039927163161337376
18533805272800,-0.0011971008498221636,-9.920374870300293,1.173158884048462,-0.0002661811013240367,-0.004791259765625,0.00452507846057415
18533806510037,0.013168109580874443,-9.939528465270996,1.1348515748977661,-0.0063883461989462376,-0.0042588976211845875,0.007985432632267475
18533807747287,-0.023942017927765846,-9.904812812805176,1.1468225717544556,-0.005589802749454975,-0.008251613937318325,0.007453070487827063
18533808984512,0.011971008963882923,-9.907206535339355,1.1671733856201172,-0.0002661811013240367,-0.0066545275039970875,0.0031941730994731188
18533810221750,-0.008379706181585789,-9.909601211547852,1.094150185585022,-0.0005323622026480734,-0.0021294488105922937,0.005855984054505825
18533811458975,-0.02992752194404602,-9.890447616577148,1.1180921792984009,-0.0071868896484375,-0.0015970865497365594,0.008783976547420025
18533812696212,-0.014365210197865963,-9.9000244140625,1.1336544752120972,-0.010913425125181675,-0.0021294488105922937,0.010913425125181675
18533813933450,0.02753331884741783,-9.920374870300293,1.1300631761550903,-0.005589802749454975,-0.0039927163161337376,0.010114881210029125
18533815170675,-0.0035913025494664907,-9.910798072814941,1.1635820865631104,-0.0077192517928779125,-0.005855984054505825,0.012510511092841625
18533816407925,0.015562310814857483,-9.906009674072266,1.1336544752120972,-0.010647243820130825,0.0029279920272529125,0.006122165359556675
18533817645162,-0.010773907415568829,-9.897629737854004,1.116895079612732,-0.010647243820130825,-0.0031941730994731188,0.00692070834338665
18533818882412,-0.010773907415568829,-9.916783332824707,1.095347285270691,-0.01117960549890995,-0.0026618109550327063,0.013309055007994175
18533820119625,-0.013168109580874443,-9.864110946655273,1.1121066808700562,-0.010381062515079975,-0.0029279920272529125,0.01117960549890995
18533821356875,0.0,-9.852140426635742,1.0809820890426636,-0.008251613937318325,-0.0002661811013240367,0.015438503585755825
18533822594125,-0.0011971008498221636,-9.827000617980957,1.095347285270691,-0.00984870083630085,0.0005323622026480734,0.02022976242005825
18533823831337,-0.013168109580874443,-9.853337287902832,1.1025298833847046,-0.01357523538172245,-0.0021294488105922937,0.0162370465695858
18533825068562,-0.011971008963882923,-9.828198432922363,1.1204863786697388,-0.01117960549890995,0.0007985432748682797,0.01836649514734745
18533826305812,-0.010773907415568829,-9.864110946655273,1.0977414846420288,-0.013309055007994175,-0.0029279920272529125,0.01943122036755085
18533827543050,-0.02992752194404602,-9.816226959228516,1.0977414846420288,-0.01889885775744915,0.0,0.010647243820130825
18533828780300,-0.03711012750864029,-9.805453300476074,1.1252747774124146,-0.01171196810901165,0.004791259765625,0.0181003138422966
18533830017512,0.004788403399288654,-9.830592155456543,1.1097124814987183,-0.012510511092841625,0.003460354171693325,0.02422248013317585
18533831254762,-0.002394201699644327,-9.84256362915039,1.1061211824417114,-0.0173017717897892,-0.0018632676219567657,0.0220930315554142
18533832491987,-0.05506663769483566,-9.807847023010254,1.0582371950149536,-0.01756795309484005,-0.0037265352439135313,0.0234239362180233
18533833729237,-0.0694318488240242,-9.858125686645508,1.113303780555725,-0.015438503585755825,-0.0037265352439135313,0.01836649514734745
18533834966462,-0.038307227194309235,-9.880870819091797,1.0462661981582642,-0.01410759799182415,-0.0029279920272529125,0.0258195661008358
18533836203700,-0.020350715145468712,-9.886856079101562,1.07379949092865,-0.01650322787463665,0.0010647244052961469,0.02502102218568325
18533837440925,-0.031124621629714966,-9.926360130310059,1.116895079612732,-0.01889885775744915,0.0023956298828125,0.02076212503015995
18533838678187,-0.04668693244457245,-9.882067680358887,1.1013327836990356,-0.0186326764523983,0.0010647244052961469,0.02129448764026165
18533839915412,-0.05267243832349777,-9.897629737854004,1.0390836000442505,-0.014906140975654125,0.0042588976211845875,0.0244886614382267
18533841152662,-0.05267243832349777,-9.93354320526123,1.0546458959579468,-0.0173017717897892,0.0042588976211845875,0.02502102218568325
18533842389887,-0.026336219161748886,-9.915586471557617,1.0977414846420288,-0.01783413253724575,0.0037265352439135313,0.0292799212038517
18533843627137,-0.03950432687997818,-9.925163269042969,1.1480196714401245,-0.015172322280704975,0.003460354171693325,0.02874755859375
18533844864350,-0.05027823522686958,-9.959878921508789,1.0450690984725952,-0.02182685025036335,0.003460354171693325,0.0220930315554142
18533846101600,-0.061052143573760986,-9.938331604003906,1.0761936902999878,-0.0204959437251091,0.004791259765625,0.02661811001598835
18533847338812,-0.05626374110579491,-9.898826599121094,1.092953085899353,-0.01836649514734745,0.0023956298828125,0.0295461006462574
18533848576075,-0.05386953800916672,-9.951498985290527,1.0678139925003052,-0.0268842913210392,0.006122165359556675,0.0268842913210392
18533849813312,-0.05506663769483566,-9.983820915222168,1.0869675874710083,-0.02741665206849575,0.008251613937318325,0.0348697230219841
18533851050537,-0.07661445438861847,-9.976638793945312,1.0127472877502441,-0.0314093679189682,0.005855984054505825,0.03034464456140995
18533852287787,-0.06344634294509888,-9.982624053955078,1.0570400953292847,-0.0306108258664608,0.007453070487827063,0.02901373989880085
18533853525025,-0.06344634294509888,-9.949105262756348,1.0534487962722778,-0.02981228195130825,0.0090501569211483,0.0258195661008358
18533854762250,-0.04668693244457245,-9.9586820602417,1.0582371950149536,-0.0354020856320858,0.0063883461989462376,0.02555338479578495
18533855999475,-0.05985504388809204,-9.973047256469727,1.0749965906143188,-0.0343373604118824,0.00692070834338665,0.0228915736079216
18533857236712,-0.0071826050989329815,-9.963470458984375,1.0893617868423462,-0.0364668108522892,0.0026618109550327063,0.02661811001598835
18533858473962,-0.02992752194404602,-9.96945571899414,1.072602391242981,-0.0401933453977108,0.0037265352439135313,0.0258195661008358
18533859711187,-0.04189852997660637,-9.941922187805176,1.048660397529602,-0.0423227921128273,0.007453070487827063,0.023956298828125
18533860948437,-0.04908113554120064,-9.926360130310059,1.1192892789840698,-0.043121337890625,0.008783976547420025,0.0215606689453125
18533862185687,-0.05985504388809204,-9.891644477844238,1.1073182821273804,-0.0407257080078125,0.007453070487827063,0.0228915736079216
18533863422912,-0.02992752194404602,-9.909601211547852,1.0809820890426636,-0.038330078125,0.006122165359556675,0.023956298828125
18533864660137,-0.07302315533161163,-9.947908401489258,1.0857704877853394,-0.0436537005007267,0.0063883461989462376,0.02874755859375
18533865897362,-0.033518824726343155,-9.880870819091797,1.0654197931289673,-0.0460493303835392,0.0077192517928779125,0.02369011752307415
18533867134625,-0.06703764945268631,-9.838972091674805,1.0690110921859741,-0.0444522425532341,0.010381062515079975,0.0252872034907341
18533868371837,-0.04668693244457245,-9.832986831665039,1.0821791887283325,-0.0439198799431324,0.0114457868039608,0.02369011752307415
18533869609100,-0.061052143573760986,-9.835380554199219,1.0857704877853394,-0.0439198799431324,0.008517795242369175,0.02422248013317585
18533870846325,-0.05506663769483566,-9.801861763000488,1.0690110921859741,-0.0457831472158432,0.0090501569211483,0.02022976242005825
18533872083562,-0.06464345008134842,-9.831789016723633,1.0857704877853394,-0.0444522425532341,0.01171196810901165,0.0244886614382267
18533873320812,-0.07422025501728058,-9.800664901733398,1.0773907899856567,-0.0425889752805233,0.0162370465695858,0.0263519287109375
18533874558025,-0.05267243832349777,-9.813833236694336,1.0690110921859741,-0.0425889752805233,0.012510511092841625,0.02555338479578495
18533875795262,-0.06464345008134842,-9.816226959228516,1.0654197931289673,-0.0444522425532341,0.01357523538172245,0.023956298828125
18533877032487,-0.020350715145468712,-9.81143856048584,1.0570400953292847,-0.0391286201775074,0.0090501569211483,0.02422248013317585
18533878269725,-0.0454898327589035,-9.827000617980957,1.0785878896713257,-0.0391286201775074,0.007453070487827063,0.0268842913210392
18533879506975,-0.031124621629714966,-9.824606895446777,1.0666168928146362,-0.0404595248401165,0.012776692397892475,0.0324740931391716
18533880744212,-0.07182604819536209,-9.780314445495605,1.048660397529602,-0.042855154722929,0.00692070834338665,0.0330064557492733
18533881981450,-0.04189852997660637,-9.783905029296875,1.07379949092865,-0.0436537005007267,0.0071868896484375,0.0306108258664608
18533883218700,-0.05506663769483566,-9.821015357971191,1.0378865003585815,-0.0441860631108284,0.008517795242369175,0.0364668108522892
18533884455912,-0.06823474913835526,-9.756372451782227,1.0821791887283325,-0.0420566126704216,0.00958251953125,0.0391286201775074
18533885693162,-0.11013327538967133,-9.81263542175293,1.0546458959579468,-0.0423227921128273,0.00984870083630085,0.02901373989880085
18533886930400,-0.043095629662275314,-9.813833236694336,1.0354923009872437,-0.0441860631108284,0.01703559048473835,0.02848137728869915
18533888167625,-0.05985504388809204,-9.792284965515137,1.05105459690094,-0.043121337890625,0.015438503585755825,0.0319417305290699
18533889404862,-0.013168109580874443,-9.77672290802002,1.0618284940719604,-0.0388624407351017,0.0162370465695858,0.03034464456140995
18533890642100,-0.05506663769483566,-9.791088104248047,1.0654197931289673,-0.0415242500603199,0.0114457868039608,0.0324740931391716
18533891879337,-0.04788403585553169,-9.7791166305542,1.0247182846069336,-0.0407257080078125,0.010381062515079975,0.0343373604118824
18533893116575,-0.08140286058187485,-9.799468040466309,1.0271124839782715,-0.0399271659553051,0.008783976547420025,0.0356682650744915
18533894353812,-0.035913024097681046,-9.794679641723633,1.0654197931289673,-0.0396609827876091,0.012776692397892475,0.02741665206849575
18533895591050,-0.033518824726343155,-9.793481826782227,1.0797849893569946,-0.0385962575674057,0.01463996060192585,0.02315775491297245
18533896828287,-0.04668693244457245,-9.746795654296875,1.0091559886932373,-0.0362006276845932,0.012510511092841625,0.0362006276845932
18533898065512,-0.06584054976701736,-9.81263542175293,1.0654197931289673,-0.0457831472158432,0.014906140975654125,0.0364668108522892
18533899302762,-0.05985504388809204,-9.81024169921875,1.0773907899856567,-0.0455169677734375,0.013309055007994175,0.0354020856320858
18533900539987,-0.05027823522686958,-9.816226959228516,1.0019733905792236,-0.0375315360724926,0.012776692397892475,0.0362006276845932
18533901777250,-0.06344634294509888,-9.801861763000488,1.0366894006729126,-0.0396609827876091,0.014906140975654125,0.02555338479578495
18533903014462,-0.06823474913835526,-9.819818496704102,1.0462661981582642,-0.0385962575674057,0.0138414166867733,0.0322079136967659
18533904251700,-0.05626374110579491,-9.786299705505371,1.0438719987869263,-0.0399271659553051,0.0138414166867733,0.0343373604118824
18533905488937,-0.06823474913835526,-9.781511306762695,1.0582371950149536,-0.0348697230219841,0.0119781494140625,0.0340711809694767
18533906726162,-0.05027823522686958,-9.797073364257812,1.0785878896713257,-0.0375315360724926,0.01224433071911335,0.033538818359375
18533907963400,-0.07302315533161163,-9.761160850524902,1.0570400953292847,-0.0391286201775074,0.01756795309484005,0.0340711809694767
18533909200650,-0.08619125932455063,-9.7791166305542,1.0654197931289673,-0.0369991734623909,0.010647243820130825,0.0375315360724926
18533910437887,-0.06703764945268631,-9.759963035583496,1.0283095836639404,-0.0412580706179142,0.013309055007994175,0.0338049978017807
18533911675125,-0.07182604819536209,-9.764751434326172,1.0330979824066162,-0.0372653529047966,0.01597086526453495,0.0399271659553051
18533912912362,-0.05506663769483566,-9.746795654296875,1.016338586807251,-0.0391286201775074,0.014906140975654125,0.0393948033452034
18533914149587,-0.07302315533161163,-9.77552604675293,1.0319008827209473,-0.0375315360724926,0.0138414166867733,0.033538818359375
18533915386837,-0.08619125932455063,-9.783905029296875,1.0426748991012573,-0.0420566126704216,0.01463996060192585,0.0340711809694767
18533916624062,-0.06584054976701736,-9.749189376831055,1.0354923009872437,-0.0369991734623909,0.014373779296875,0.038063894957304
18533917861300,-0.07062894850969315,-9.795876502990723,1.0881646871566772,-0.0346035435795784,0.01357523538172245,0.0415242500603199
18533919098537,-0.06464345008134842,-9.763554573059082,1.047463297843933,-0.033538818359375,0.0066545275039970875,0.0372653529047966
18533920335787,-0.04429273307323456,-9.789891242980957,1.0654197931289673,-0.0276828333735466,0.0167694091796875,0.0311431884765625
18533921573012,-0.033518824726343155,-9.763554573059082,1.0606313943862915,-0.0324740931391716,0.0210283063352108,0.0314093679189682
18533922810262,-0.09217676520347595,-9.798270225524902,1.0438719987869263,-0.0340711809694767,0.01703559048473835,0.0367329902946949
18533924047475,-0.09935937076807022,-9.800664901733398,1.05105459690094,-0.0369991734623909,0.0157046839594841,0.0292799212038517
18533925284712,-0.07422025501728058,-9.75278091430664,1.013944387435913,-0.033272635191679,0.008783976547420025,0.0319417305290699
18533926521962,-0.1041477769613266,-9.786299705505371,1.0091559886932373,-0.0369991734623909,0.012776692397892475,0.0314093679189682
18533927759187,-0.04429273307323456,-9.823410034179688,1.0211269855499268,-0.0356682650744915,0.0167694091796875,0.0263519287109375
18533928996450,-0.07781155407428741,-9.805453300476074,1.0259153842926025,-0.0327402763068676,0.01463996060192585,0.0306108258664608
18533930233675,-0.10295067727565765,-9.789891242980957,1.016338586807251,-0.033272635191679,0.0167694091796875,0.0268842913210392
18533931470912,-0.09457096457481384,-9.749189376831055,1.0283095836639404,-0.0362006276845932,0.0186326764523983,0.02555338479578495
18533932708162,-0.12928690016269684,-9.792284965515137,1.0378865003585815,-0.0330064557492733,0.0186326764523983,0.02874755859375
18533933945375,-0.10654197633266449,-9.786299705505371,1.0450690984725952,-0.0295461006462574,0.01650322787463665,0.03087700717151165
18533935182600,-0.04908113554120064,-9.773131370544434,1.0414777994155884,-0.0292799212038517,0.015438503585755825,0.0292799212038517
18533936419850,-0.06823474913835526,-9.803058624267578,0.9864110946655273,-0.0327402763068676,0.01703559048473835,0.02555338479578495
18533937657100,-0.05985504388809204,-9.7791166305542,0.9995791912078857,-0.0311431884765625,0.0181003138422966,0.02182685025036335
18533938894337,-0.07781155407428741,-9.75397777557373,1.048660397529602,-0.02874755859375,0.0204959437251091,0.02315775491297245
18533940131550,-0.08978256583213806,-9.764751434326172,1.0630255937576294,-0.0322079136967659,0.0181003138422966,0.01889885775744915
18533941368800,-0.05985504388809204,-9.763554573059082,1.0235211849212646,-0.03087700717151165,0.015438503585755825,0.0223592109978199
18533942606037,-0.08379705995321274,-9.764751434326172,1.0007762908935547,-0.0271504707634449,0.0210283063352108,0.0204959437251091
18533943843287,-0.0454898327589035,-9.763554573059082,1.047463297843933,-0.02315775491297245,0.01597086526453495,0.01943122036755085
18533945080500,-0.0454898327589035,-9.736021041870117,1.0450690984725952,-0.0263519287109375,0.015438503585755825,0.02369011752307415
18533946317762,-0.07302315533161163,-9.718064308166504,1.0247182846069336,-0.0215606689453125,0.013309055007994175,0.02608574740588665
18533947555000,-0.06703764945268631,-9.730035781860352,1.0462661981582642,-0.0191650390625,0.015172322280704975,0.01703559048473835
18533948792225,-0.05985504388809204,-9.703699111938477,0.9971849918365479,-0.0220930315554142,0.0181003138422966,0.01597086526453495
18533950029462,-0.07661445438861847,-9.713275909423828,1.0438719987869263,-0.02076212503015995,0.0191650390625,0.02022976242005825
18533951266675,-0.03950432687997818,-9.746795654296875,0.9995791912078857,-0.0228915736079216,0.0210283063352108,0.0167694091796875
18533952503950,-0.05267243832349777,-9.704896926879883,1.0295066833496094,-0.0191650390625,0.01357523538172245,0.010913425125181675
18533953741162,-0.017956512048840523,-9.75517463684082,1.01753568649292,-0.02315775491297245,0.0114457868039608,0.01703559048473835
18533954978400,-0.04189852997660637,-9.756372451782227,0.9804255962371826,-0.02262539230287075,0.01756795309484005,0.0173017717897892
18533956215637,-0.04189852997660637,-9.734824180603027,1.0330979824066162,-0.01836649514734745,0.02076212503015995,0.014373779296875
18533957452887,-0.07661445438861847,-9.737218856811523,1.0618284940719604,-0.01783413253724575,0.01410759799182415,0.015172322280704975
18533958690125,-0.03950432687997818,-9.756372451782227,1.0079588890075684,-0.01783413253724575,0.01943122036755085,0.0162370465695858
18533959927375,-0.061052143573760986,-9.690531730651855,1.0271124839782715,-0.014373779296875,0.01756795309484005,0.0162370465695858
18533961164587,-0.07422025501728058,-9.715670585632324,1.0414777994155884,-0.01597086526453495,0.0167694091796875,0.0138414166867733
18533962401837,-0.02753331884741783,-9.66539192199707,1.0618284940719604,-0.01703559048473835,0.0181003138422966,0.01463996060192585
18533963639075,-0.03232172504067421,-9.725247383117676,1.0749965906143188,-0.01756795309484005,0.0167694091796875,0.012776692397892475
18533964876300,-0.02753331884741783,-9.726444244384766,1.0582371950149536,-0.01410759799182415,0.0191650390625,0.014373779296875
18533966113537,-0.026336219161748886,-9.7420072555542,1.0307037830352783,-0.0181003138422966,0.0173017717897892,0.010381062515079975
18533967350775,-0.05985504388809204,-9.715670585632324,1.0007762908935547,-0.01410759799182415,0.01171196810901165,0.01117960549890995
18533968588012,-0.05626374110579491,-9.716867446899414,1.015141487121582,-0.00984870083630085,0.015172322280704975,0.008783976547420025
18533969825250,-0.07541735470294952,-9.75397777557373,1.0366894006729126,-0.012776692397892475,0.02076212503015995,0.008517795242369175
18533971062487,-0.06823474913835526,-9.75278091430664,1.0295066833496094,-0.007453070487827063,0.0114457868039608,0.0119781494140625
18533972299712,-0.05386953800916672,-9.738415718078613,1.016338586807251,-0.006122165359556675,0.01171196810901165,0.015438503585755825
18533973536962,-0.0059855044819414616,-9.78869342803955,1.015141487121582,-0.004791259765625,0.014906140975654125,0.012510511092841625
18533974774200,0.0059855044819414616,-9.798270225524902,1.0295066833496094,-0.005589802749454975,0.01836649514734745,0.01357523538172245
18533976011425,-0.014365210197865963,-9.806650161743164,0.9624691009521484,-0.0042588976211845875,0.0186326764523983,0.01357523538172245
18533977248662,-0.028730420395731926,-9.81263542175293,0.9804255962371826,-0.0039927163161337376,0.0162370465695858,0.010647243820130825
18533978485900,-0.023942017927765846,-9.795876502990723,1.0115501880645752,-0.0010647244052961469,0.010647243820130825,0.0114457868039608
18533979723150,-0.03232172504067421,-9.791088104248047,0.9864110946655273,-0.0013309054775163531,0.012510511092841625,0.01117960549890995
18533980960375,-0.0347159244120121,-9.840168952941895,1.01753568649292,0.0018632676219567657,0.0138414166867733,0.01463996060192585
18533982197612,-0.03950432687997818,-9.848548889160156,1.016338586807251,0.0,0.010913425125181675,0.01889885775744915
18533983434862,-0.0035913025494664907,-9.81263542175293,1.0414777994155884,0.0005323622026480734,0.01117960549890995,0.01650322787463665
18533984672100,-0.031124621629714966,-9.803058624267578,1.0390836000442505,0.0013309054775163531,0.010114881210029125,0.01597086526453495
18533985909325,-0.033518824726343155,-9.762357711791992,1.048660397529602,0.0023956298828125,0.013042873702943325,0.0173017717897892
18533987146550,-0.031124621629714966,-9.740809440612793,1.071405291557312,0.00452507846057415,0.012510511092841625,0.0167694091796875
18533988383787,-0.020350715145468712,-9.746795654296875,1.0606313943862915,0.0066545275039970875,0.0090501569211483,0.015172322280704975
18533989621037,0.015562310814857483,-9.764751434326172,1.0881646871566772,0.004791259765625,0.0071868896484375,0.012510511092841625
18533990858262,-0.03232172504067421,-9.744400978088379,1.1192892789840698,0.0066545275039970875,0.007985432632267475,0.014373779296875
18533992095525,0.04668693244457245,-9.694122314453125,1.0606313943862915,0.00452507846057415,0.008783976547420025,0.01783413253724575
18533993332750,-0.017956512048840523,-9.714473724365234,1.0402806997299194,0.008251613937318325,0.0039927163161337376,0.0223592109978199
18533994570012,-0.008379706181585789,-9.718064308166504,1.0905588865280151,0.00452507846057415,0.00984870083630085,0.012776692397892475
18533995807225,0.004788403399288654,-9.739612579345703,1.0546458959579468,0.0053236219100654125,0.0157046839594841,0.01943122036755085
18533997044475,-0.014365210197865963,-9.709685325622559,1.0845733880996704,0.010381062515079975,0.0037265352439135313,0.0181003138422966
18533998281700,0.020350715145468712,-9.709685325622559,1.048660397529602,0.008251613937318325,0.0066545275039970875,0.0162370465695858
18533999518925,0.0071826050989329815,-9.72285270690918,1.0223240852355957,0.008517795242369175,0.005855984054505825,0.01410759799182415
18534000756175,-0.03232172504067421,-9.718064308166504,1.0043675899505615,0.0138414166867733,0.0023956298828125,0.0162370465695858
18534001993412,-0.05746084079146385,-9.730035781860352,1.0007762908935547,0.0119781494140625,0.00692070834338665,0.01996358297765255
18534003230650,-0.05027823522686958,-9.780314445495605,1.0091559886932373,0.012510511092841625,0.00452507846057415,0.01650322787463665
18534004467887,-0.021547814831137657,-9.81143856048584,0.9792284965515137,0.01703559048473835,0.0013309054775163531,0.010913425125181675
18534005705125,-0.05386953800916672,-9.838972091674805,1.047463297843933,0.0138414166867733,-0.0007985432748682797,0.014373779296875
18534006942362,-0.07062894850969315,-9.840168952941895,1.0319008827209473,0.01357523538172245,0.0,0.013042873702943325
18534008179600,-0.07900865375995636,-9.848548889160156,1.0833762884140015,0.010114881210029125,0.0023956298828125,0.01650322787463665
18534009416825,-0.035913024097681046,-9.895236015319824,1.0402806997299194,0.01117960549890995,0.0021294488105922937,0.01410759799182415
18534010654062,-0.06584054976701736,-9.911994934082031,0.9923965930938721,0.008517795242369175,0.0023956298828125,0.0066545275039970875
18534011891300,-0.09457096457481384,-9.874884605407715,1.0187327861785889,0.008517795242369175,0.0018632676219567657,0.0053236219100654125
18534013128550,-0.07302315533161163,-9.872490882873535,1.0450690984725952,0.010913425125181675,-0.0018632676219567657,0.0063883461989462376
18534014365775,-0.08858546614646912,-9.915586471557617,1.0259153842926025,0.0042588976211845875,-0.0015970865497365594,0.0039927163161337376
18534015603025,-0.0694318488240242,-9.874884605407715,1.0534487962722778,0.004791259765625,-0.0018632676219567657,0.008517795242369175
18534016840262,-0.004788403399288654,-9.870096206665039,1.0462661981582642,0.0037265352439135313,0.005855984054505825,0.006122165359556675
18534018077500,-0.04189852997660637,-9.896432876586914,1.0426748991012573,0.004791259765625,0.003460354171693325,0.00452507846057415
18534019314712,-0.05626374110579491,-9.865307807922363,1.0546458959579468,0.0013309054775163531,0.0,0.004791259765625
18534020551950,-0.06823474913835526,-9.859322547912598,1.0570400953292847,0.005057440605014563,0.0015970865497365594,0.0
18534021789212,-0.028730420395731926,-9.859322547912598,1.0115501880645752,0.0053236219100654125,-0.0037265352439135313,0.003460354171693325
18534023026437,-0.06344634294509888,-9.870096206665039,1.072602391242981,0.0053236219100654125,-0.0031941730994731188,0.005855984054505825
18534024263662,-0.07062894850969315,-9.86889934539795,0.9971849918365479,0.0039927163161337376,-0.0023956298828125,0.0063883461989462376
18534025500912,-0.033518824726343155,-9.81024169921875,1.0330979824066162,0.0039927163161337376,-0.0029279920272529125,-0.0021294488105922937
18534026738150,-0.07062894850969315,-9.791088104248047,1.0522516965866089,-0.0029279920272529125,-0.0010647244052961469,-0.0002661811013240367
18534027975400,-0.05746084079146385,-9.818621635437012,1.0223240852355957,0.0015970865497365594,-0.0002661811013240367,0.0037265352439135313
18534029212625,-0.0694318488240242,-9.795876502990723,1.0821791887283325,0.0031941730994731188,-0.0023956298828125,0.0015970865497365594
18534030449850,-0.016759412363171577,-9.786299705505371,1.0989385843276978,0.005057440605014563,-0.0031941730994731188,0.0013309054775163531
18534031687087,-0.06584054976701736,-9.795876502990723,1.1109095811843872,0.0013309054775163531,-0.005855984054505825,0.0015970865497365594
18534032924325,-0.038307227194309235,-9.794679641723633,1.0534487962722778,0.0018632676219567657,-0.0010647244052961469,0.005057440605014563
18534034161575,-0.02992752194404602,-9.75397777557373,1.0582371950149536,0.0013309054775163531,-0.0002661811013240367,-0.0002661811013240367
18534035398787,-0.05626374110579491,-9.763554573059082,1.0546458959579468,0.0042588976211845875,-0.0042588976211845875,-0.0010647244052961469
18534036636050,-0.0454898327589035,-9.787496566772461,1.0307037830352783,0.0042588976211845875,-0.0029279920272529125,0.0029279920272529125
18534037873275,-0.026336219161748886,-9.791088104248047,1.0546458959579468,0.0066545275039970875,-0.0039927163161337376,0.004791259765625
18534039110525,-0.0802057608962059,-9.771934509277344,1.0235211849212646,0.004791259765625,-0.0018632676219567657,-0.0021294488105922937
18534040347750,-0.033518824726343155,-9.781511306762695,1.0295066833496094,0.0031941730994731188,-0.0015970865497365594,0.0066545275039970875
18534041585000,-0.035913024097681046,-9.75517463684082,0.970848798751831,0.00692070834338665,0.0010647244052961469,0.010114881210029125
18534042822237,-0.05626374110579491,-9.75397777557373,1.015141487121582,0.008783976547420025,-0.0021294488105922937,0.008251613937318325
18534044059462,-0.06344634294509888,-9.764751434326172,1.0319008827209473,0.008517795242369175,-0.0031941730994731188,0.0007985432748682797
18534045296712,-0.05147533863782883,-9.791088104248047,1.0450690984725952,0.0053236219100654125,-0.00692070834338665,-0.0010647244052961469
18534046533950,-0.10055647045373917,-9.77672290802002,1.0606313943862915,0.00692070834338665,-0.0026618109550327063,0.0063883461989462376
18534047771162,-0.0454898327589035,-9.740809440612793,1.0414777994155884,0.01224433071911335,-0.0007985432748682797,0.008251613937318325
18534049008400,-0.08499415963888168,-9.75158405303955,0.9648633003234863,0.0053236219100654125,-0.0037265352439135313,0.0042588976211845875
18534050245662,-0.05506663769483566,-9.781511306762695,1.049857497215271,0.0037265352439135313,-0.00452507846057415,0.0010647244052961469
18534051482900,-0.03950432687997818,-9.75397777557373,1.0438719987869263,0.008251613937318325,-0.0063883461989462376,0.007453070487827063
18534052720125,-0.061052143573760986,-9.806650161743164,1.071405291557312,-0.0002661811013240367,-0.007453070487827063,0.008517795242369175
18534053957362,-0.061052143573760986,-9.767146110534668,1.0366894006729126,0.005589802749454975,-0.0063883461989462376,0.005057440605014563
18534055194587,-0.06344634294509888,-9.763554573059082,1.0690110921859741,0.008251613937318325,-0.0037265352439135313,0.003460354171693325
18534056431837,-0.04429273307323456,-9.743204116821289,1.05105459690094,0.0071868896484375,-0.005057440605014563,0.0066545275039970875
18534057669075,-0.04788403585553169,-9.738415718078613,1.0414777994155884,0.0042588976211845875,-0.005057440605014563,0.012776692397892475
18534058906287,-0.0454898327589035,-9.769539833068848,1.0570400953292847,0.0042588976211845875,-0.0007985432748682797,0.00958251953125
18534060143537,-0.05386953800916672,-9.791088104248047,0.9995791912078857,0.00452507846057415,-0.0021294488105922937,0.010381062515079975
18534061380775,-0.038307227194309235,-9.756372451782227,0.9959878921508789,0.00958251953125,-0.0026618109550327063,0.00958251953125
18534062618012,-0.06224924325942993,-9.806650161743164,1.047463297843933,0.010381062515079975,-0.0042588976211845875,0.0077192517928779125
18534063855250,-0.061052143573760986,-9.769539833068848,1.0378865003585815,0.006122165359556675,-0.0066545275039970875,0.0071868896484375
18534065092487,-0.011971008963882923,-9.780314445495605,1.0295066833496094,0.004791259765625,-0.00692070834338665,0.0119781494140625
18534066329725,-0.0933738648891449,-9.75517463684082,1.094150185585022,0.005855984054505825,-0.00452507846057415,0.0077192517928779125
18534067566962,-0.04429273307323456,-9.737218856811523,1.07379949092865,0.007453070487827063,-0.005855984054505825,0.005589802749454975
18534068804187,-0.05626374110579491,-9.768342971801758,1.048660397529602,0.007453070487827063,-0.00692070834338665,0.008251613937318325
18534070041425,-0.08499415963888168,-9.783905029296875,1.071405291557312,0.0039927163161337376,-0.005057440605014563,0.00958251953125
18534071278662,-0.07302315533161163,-9.807847023010254,1.0378865003585815,0.0031941730994731188,-0.0077192517928779125,0.01224433071911335
18534072515900,-0.10654197633266449,-9.803058624267578,1.0606313943862915,0.008783976547420025,-0.0029279920272529125,0.00958251953125
18534073753150,-0.08499415963888168,-9.787496566772461,1.0558429956436157,0.0090501569211483,-0.005057440605014563,0.012510511092841625
18534074990400,-0.09935937076807022,-9.767146110534668,1.0522516965866089,0.010114881210029125,-0.004791259765625,0.012776692397892475
18534076227625,-0.07062894850969315,-9.799468040466309,1.0283095836639404,0.0114457868039608,-0.005589802749454975,0.013309055007994175
18534077464862,-0.08858546614646912,-9.818621635437012,1.0091559886932373,0.00452507846057415,-0.0031941730994731188,0.010913425125181675
18534078702100,-0.11252748221158981,-9.84256362915039,1.0319008827209473,0.0029279920272529125,-0.0029279920272529125,0.01117960549890995
18534079939337,-0.11611878126859665,-9.795876502990723,1.0043675899505615,0.005057440605014563,-0.0026618109550327063,0.005855984054505825
18534081176575,-0.10055647045373917,-9.78869342803955,1.0570400953292847,0.005589802749454975,-0.0007985432748682797,0.0029279920272529125
18534082413812,-0.0933738648891449,-9.854534149169922,1.0678139925003052,0.0063883461989462376,-0.00452507846057415,0.007453070487827063
18534083651050,-0.07661445438861847,-9.801861763000488,1.0295066833496094,0.010381062515079975,-0.0005323622026480734,0.008783976547420025
18534084888275,-0.10773907601833344,-9.780314445495605,1.0857704877853394,0.00958251953125,-0.0029279920272529125,0.008251613937318325
18534086125525,-0.07661445438861847,-9.841365814208984,1.0594342947006226,0.0023956298828125,-0.0002661811013240367,0.007985432632267475
18534087362762,-0.07541735470294952,-9.774328231811523,1.01753568649292,0.00692070834338665,0.0021294488105922937,0.00984870083630085
18534088599987,-0.090979665517807,-9.783905029296875,1.0438719987869263,0.010114881210029125,0.00452507846057415,0.0063883461989462376
18534089837212,-0.08499415963888168,-9.827000617980957,1.0773907899856567,0.0090501569211483,0.003460354171693325,0.012510511092841625
18534091074450,-0.07661445438861847,-9.819818496704102,1.0319008827209473,0.007985432632267475,-0.0005323622026480734,0.0114457868039608
18534092311700,-0.0933738648891449,-9.782708168029785,1.0342952013015747,0.007453070487827063,0.0005323622026480734,0.00931633822619915
18534093548950,-0.08738835901021957,-9.758766174316406,1.0654197931289673,0.005057440605014563,0.0029279920272529125,0.0114457868039608
18534094786187,-0.090979665517807,-9.783905029296875,1.070208191871643,0.008251613937318325,0.0066545275039970875,0.005589802749454975
18534096023412,-0.11133038252592087,-9.747992515563965,1.0366894006729126,0.0053236219100654125,-0.0002661811013240367,0.0037265352439135313
18534097260650,-0.07302315533161163,-9.762357711791992,1.0606313943862915,0.005057440605014563,0.0002661811013240367,0.005057440605014563
18534098497887,-0.10654197633266449,-9.768342971801758,1.1109095811843872,0.004791259765625,0.00692070834338665,0.0007985432748682797
18534099735125,-0.09457096457481384,-9.765949249267578,1.0869675874710083,0.0026618109550327063,0.0039927163161337376,0.0018632676219567657
18534100972375,-0.11013327538967133,-9.789891242980957,1.0271124839782715,0.0053236219100654125,0.0023956298828125,-0.0013309054775163531
18534102209600,-0.08619125932455063,-9.758766174316406,1.0666168928146362,0.008783976547420025,0.00452507846057415,0.0042588976211845875
18534103446825,-0.10773907601833344,-9.759963035583496,1.092953085899353,0.0090501569211483,0.0013309054775163531,0.0021294488105922937
18534104684087,-0.1041477769613266,-9.800664901733398,1.0546458959579468,0.007453070487827063,0.0066545275039970875,-0.0007985432748682797
18534105921312,-0.10055647045373917,-9.756372451782227,1.0378865003585815,0.0053236219100654125,0.0077192517928779125,-0.0031941730994731188
18534107158550,-0.11851298809051514,-9.800664901733398,1.1001356840133667,0.010647243820130825,0.007985432632267475,0.0015970865497365594
18534108395800,-0.1364694982767105,-9.806650161743164,1.0606313943862915,0.0114457868039608,0.0023956298828125,0.0002661811013240367
18534109633025,-0.1256955862045288,-9.84495735168457,1.0330979824066162,0.0090501569211483,0.008251613937318325,0.0002661811013240367
18534110870262,-0.14484921097755432,-9.80904483795166,1.0378865003585815,0.010381062515079975,0.0063883461989462376,-0.0029279920272529125
18534112107500,-0.13168109953403473,-9.793481826782227,1.0283095836639404,0.0138414166867733,0.008251613937318325,-0.0010647244052961469
18534113344737,-0.043095629662275314,-9.822212219238281,1.0558429956436157,0.01224433071911335,0.0077192517928779125,-0.0021294488105922937
18534114581975,-0.09816227108240128,-9.771934509277344,1.0582371950149536,0.008517795242369175,0.006122165359556675,-0.00452507846057415
18534115819212,-0.1041477769613266,-9.832986831665039,1.0211269855499268,0.008517795242369175,0.00958251953125,-0.005589802749454975
18534117056462,-0.10175357013940811,-9.798270225524902,1.0582371950149536,0.00984870083630085,0.01171196810901165,-0.005855984054505825
18534118293687,-0.0933738648891449,-9.798270225524902,1.0522516965866089,0.01117960549890995,0.010381062515079975,0.0
18534119530912,-0.0933738648891449,-9.771934509277344,1.0785878896713257,0.008517795242369175,0.010647243820130825,0.00452507846057415
18534120768150,-0.11133038252592087,-9.785102844238281,1.1073182821273804,0.0090501569211483,0.010647243820130825,-0.003460354171693325
18534122005425,-0.08978256583213806,-9.781511306762695,1.0773907899856567,0.010913425125181675,0.00984870083630085,-0.005057440605014563
18534123242637,-0.09217676520347595,-9.830592155456543,1.1013327836990356,0.010647243820130825,0.00931633822619915,0.0002661811013240367
18534124479862,-0.08858546614646912,-9.791088104248047,1.1061211824417114,0.0053236219100654125,0.012776692397892475,-0.0018632676219567657
18534125717125,-0.11013327538967133,-9.799468040466309,1.0965443849563599,0.00958251953125,0.014906140975654125,-0.0037265352439135313
18534126954337,-0.07062894850969315,-9.794679641723633,1.0761936902999878,0.01171196810901165,0.01357523538172245,-0.0018632676219567657
18534128191575,-0.0802057608962059,-9.785102844238281,1.115697979927063,0.01171196810901165,0.0138414166867733,-0.0010647244052961469
18534129428825,-0.07541735470294952,-9.792284965515137,1.0809820890426636,0.0119781494140625,0.0114457868039608,-0.0005323622026480734
18534130666062,-0.10295067727565765,-9.780314445495605,1.0462661981582642,0.0071868896484375,0.013042873702943325,-0.0026618109550327063
18534131903275,-0.1041477769613266,-9.77552604675293,1.0977414846420288,0.00931633822619915,0.014906140975654125,-0.0037265352439135313
18534133140537,-0.12210428714752197,-9.815030097961426,1.0582371950149536,0.007453070487827063,0.01597086526453495,0.0
18534134377762,-0.11013327538967133,-9.789891242980957,1.0079588890075684,0.005589802749454975,0.015438503585755825,-0.0053236219100654125
18534135615025,-0.10295067727565765,-9.78869342803955,1.0642226934432983,0.005855984054505825,0.01703559048473835,-0.0007985432748682797
18534136852250,-0.09696517139673233,-9.781511306762695,1.0522516965866089,0.01117960549890995,0.0162370465695858,0.0007985432748682797
18534138089475,-0.09457096457481384,-9.758766174316406,1.0462661981582642,0.00984870083630085,0.0173017717897892,-0.0023956298828125
18534139326712,-0.1041477769613266,-9.816226959228516,1.0797849893569946,0.012510511092841625,0.0173017717897892,0.0002661811013240367
18534140563950,-0.10295067727565765,-9.795876502990723,1.0223240852355957,0.015172322280704975,0.01463996060192585,-0.0053236219100654125
18534141801187,-0.1173158809542656,-9.825803756713867,1.0187327861785889,0.010647243820130825,0.013042873702943325,-0.00692070834338665
18534143038425,-0.10893617570400238,-9.816226959228516,1.0426748991012573,0.005057440605014563,0.02182685025036335,-0.0018632676219567657
18534144275675,-0.10295067727565765,-9.849745750427246,1.0642226934432983,0.005057440605014563,0.02661811001598835,-0.0013309054775163531
18534145512912,-0.08259996026754379,-9.829395294189453,1.072602391242981,0.0039927163161337376,0.0220930315554142,-0.008517795242369175
18534146750137,-0.07900865375995636,-9.78869342803955,1.0821791887283325,0.0005323622026480734,0.0196974016726017,-0.0077192517928779125
18534147987387,-0.09816227108240128,-9.861717224121094,1.0115501880645752,0.0,0.01996358297765255,-0.004791259765625
18534149224612,-0.07062894850969315,-9.823410034179688,1.0319008827209473,0.0029279920272529125,0.02608574740588665,0.0002661811013240367
18534150461850,-0.07661445438861847,-9.84256362915039,1.0211269855499268,0.008517795242369175,0.02262539230287075,-0.005589802749454975
18534151699087,-0.06703764945268631,-9.889249801635742,1.0330979824066162,0.0013309054775163531,0.0215606689453125,-0.010647243820130825
18534152936350,-0.13407529890537262,-9.825803756713867,1.049857497215271,0.0013309054775163531,0.02076212503015995,-0.0026618109550327063
18534154173550,-0.05386953800916672,-9.825803756713867,1.049857497215271,0.0007985432748682797,0.0204959437251091,-0.0026618109550327063
18534155410800,-0.07062894850969315,-9.819818496704102,1.091755986213684,0.0007985432748682797,0.01783413253724575,-0.0039927163161337376
18534156648025,-0.04788403585553169,-9.847352027893066,1.116895079612732,0.005589802749454975,0.02076212503015995,-0.00452507846057415
18534157885275,-0.07182604819536209,-9.864110946655273,1.113303780555725,0.0029279920272529125,0.02129448764026165,-0.006122165359556675
18534159122525,-0.061052143573760986,-9.862914085388184,1.1061211824417114,0.0010647244052961469,0.02129448764026165,-0.0063883461989462376
18534160359750,-0.07422025501728058,-9.849745750427246,1.0797849893569946,0.005855984054505825,0.01889885775744915,-0.0039927163161337376
18534161597000,-0.07062894850969315,-9.848548889160156,1.0462661981582642,0.0026618109550327063,0.0215606689453125,-0.008783976547420025
18534162834237,-0.020350715145468712,-9.874884605407715,1.0594342947006226,-0.0007985432748682797,0.0210283063352108,-0.010114881210029125
18534164071475,-0.05147533863782883,-9.8784761428833,1.0749965906143188,-0.0031941730994731188,0.0223592109978199,-0.010114881210029125
18534165308700,-0.04668693244457245,-9.806650161743164,1.0905588865280151,0.0021294488105922937,0.02182685025036335,-0.008783976547420025
18534166545962,-0.04788403585553169,-9.81263542175293,1.0354923009872437,0.0042588976211845875,0.0223592109978199,-0.00958251953125
18534167783162,-0.04908113554120064,-9.80904483795166,1.0809820890426636,-0.003460354171693325,0.02022976242005825,-0.010114881210029125
18534169020400,-0.05267243832349777,-9.803058624267578,1.0773907899856567,-0.0013309054775163531,0.0220930315554142,-0.00984870083630085
18534170257650,-0.04788403585553169,-9.829395294189453,1.0690110921859741,0.0015970865497365594,0.02022976242005825,-0.005589802749454975
18534171494900,-0.06224924325942993,-9.823410034179688,1.0438719987869263,-0.0007985432748682797,0.02182685025036335,-0.0119781494140625
18534172732125,-0.03232172504067421,-9.834183692932129,1.0546458959579468,-0.0007985432748682797,0.02182685025036335,-0.012510511092841625
18534173969362,-0.05746084079146385,-9.804256439208984,1.0546458959579468,0.0015970865497365594,0.0204959437251091,-0.01463996060192585
18534175206612,-0.07781155407428741,-9.767146110534668,1.0330979824066162,-0.0010647244052961469,0.0215606689453125,-0.00958251953125
18534176443837,-0.023942017927765846,-9.758766174316406,1.0594342947006226,-0.0010647244052961469,0.02262539230287075,-0.00958251953125
18534177681075,-0.033518824726343155,-9.763554573059082,1.1001356840133667,-0.0042588976211845875,0.01996358297765255,-0.00958251953125
18534178918300,-0.0347159244120121,-9.787496566772461,1.1121066808700562,-0.0010647244052961469,0.014906140975654125,-0.010114881210029125
18534180155562,-0.023942017927765846,-9.795876502990723,1.0235211849212646,-0.0029279920272529125,0.02129448764026165,-0.01357523538172245
18534181392775,-0.031124621629714966,-9.771934509277344,1.015141487121582,-0.0039927163161337376,0.023956298828125,-0.0162370465695858
18534182630025,-0.0454898327589035,-9.769539833068848,1.05105459690094,-0.0029279920272529125,0.02555338479578495,-0.012510511092841625
18534183867275,-0.05267243832349777,-9.762357711791992,1.07379949092865,-0.003460354171693325,0.0244886614382267,-0.0114457868039608
18534185104500,-0.02513911761343479,-9.782708168029785,1.070208191871643,-0.0010647244052961469,0.02076212503015995,-0.00692070834338665
18534186341737,0.0011971008498221636,-9.761160850524902,1.0342952013015747,-0.0042588976211845875,0.0223592109978199,-0.00958251953125
18534187578962,-0.0059855044819414616,-9.743204116821289,1.091755986213684,-0.0023956298828125,0.02262539230287075,-0.0119781494140625
18534188816212,0.020350715145468712,-9.801861763000488,1.094150185585022,-0.0026618109550327063,0.02661811001598835,-0.007453070487827063
18534190053450,0.014365210197865963,-9.75397777557373,1.0187327861785889,-0.0023956298828125,0.0215606689453125,-0.0077192517928779125
18534191290700,-0.013168109580874443,-9.732430458068848,1.0570400953292847,-0.0010647244052961469,0.0220930315554142,-0.01224433071911335
18534192527925,-0.008379706181585789,-9.78869342803955,1.0965443849563599,0.0002661811013240367,0.02262539230287075,-0.007453070487827063
18534193765175,0.011971008963882923,-9.767146110534668,1.0845733880996704,-0.0005323622026480734,0.02369011752307415,-0.010913425125181675
18534195002400,0.019153613597154617,-9.75517463684082,1.0366894006729126,0.0021294488105922937,0.02741665206849575,-0.014373779296875
18534196239637,-0.040701430290937424,-9.768342971801758,1.0618284940719604,0.0,0.02262539230287075,-0.010381062515079975
18534197476875,-0.038307227194309235,-9.77672290802002,1.0833762884140015,-0.0013309054775163531,0.01650322787463665,-0.00692070834338665
18534198714112,-0.021547814831137657,-9.769539833068848,1.071405291557312,-0.0026618109550327063,0.01996358297765255,-0.00931633822619915
18534199951350,0.014365210197865963,-9.759963035583496,1.0438719987869263,0.0002661811013240367,0.01703559048473835,-0.008251613937318325
18534201188600,0.015562310814857483,-9.75278091430664,1.048660397529602,0.0013309054775163531,0.0157046839594841,-0.00984870083630085
18534202425837,-0.020350715145468712,-9.773131370544434,1.0773907899856567,0.0021294488105922937,0.02129448764026165,-0.012510511092841625
18534203663062,-0.03950432687997818,-9.7791166305542,1.0558429956436157,0.0015970865497365594,0.02022976242005825,-0.01117960549890995
18534204900287,0.0,-9.749189376831055,1.0402806997299194,0.0023956298828125,0.01756795309484005,-0.010647243820130825
18534206137525,-0.017956512048840523,-9.757569313049316,1.0773907899856567,0.0023956298828125,0.0119781494140625,-0.008783976547420025
18534207374775,0.015562310814857483,-9.761160850524902,1.0546458959579468,0.0,0.0114457868039608,-0.006122165359556675
18534208612012,-0.03232172504067421,-9.769539833068848,1.049857497215271,0.0029279920272529125,0.0181003138422966,-0.01224433071911335
18534209849262,-0.0071826050989329815,-9.757569313049316,1.070208191871643,0.0090501569211483,0.01463996060192585,-0.00984870083630085
18534211086487,-0.023942017927765846,-9.72165584564209,1.0785878896713257,0.010913425125181675,0.01783413253724575,-0.0071868896484375
18534212323712,-0.026336219161748886,-9.739612579345703,1.0211269855499268,0.007985432632267475,0.013042873702943325,-0.00692070834338665
18534213560950,-0.016759412363171577,-9.701305389404297,1.0450690984725952,0.008783976547420025,0.01224433071911335,-0.010381062515079975
18534214798212,0.03950432687997818,-9.710882186889648,1.0462661981582642,0.0066545275039970875,0.01783413253724575,-0.012510511092841625
18534216035450,-0.010773907415568829,-9.692925453186035,1.0666168928146362,0.005855984054505825,0.01756795309484005,-0.005855984054505825
18534217272687,0.0035913025494664907,-9.696516990661621,1.0390836000442505,0.008783976547420025,0.0186326764523983,-0.006122165359556675
18534218509925,0.02513911761343479,-9.71926212310791,1.0618284940719604,0.00931633822619915,0.01117960549890995,-0.005057440605014563
18534219747162,0.0059855044819414616,-9.734824180603027,1.0594342947006226,0.0138414166867733,0.01650322787463665,-0.0042588976211845875
18534220984400,0.011971008963882923,-9.743204116821289,1.0558429956436157,0.013309055007994175,0.0204959437251091,-0.01117960549890995
18534222221637,0.02274491637945175,-9.728838920593262,1.0330979824066162,0.008783976547420025,0.012776692397892475,-0.010114881210029125
18534223458875,0.015562310814857483,-9.696516990661621,1.0438719987869263,0.013042873702943325,0.014373779296875,-0.008251613937318325
18534224696100,0.019153613597154617,-9.756372451782227,1.0330979824066162,0.010647243820130825,0.01357523538172245,-0.01597086526453495
18534225933337,0.008379706181585789,-9.771934509277344,1.0390836000442505,0.013309055007994175,0.012510511092841625,-0.008783976547420025
18534227170587,-0.013168109580874443,-9.771934509277344,1.091755986213684,0.0173017717897892,0.0162370465695858,-0.008783976547420025
18534228407812,0.05746084079146385,-9.780314445495605,1.047463297843933,0.012776692397892475,0.015438503585755825,-0.00931633822619915
18534229645050,0.014365210197865963,-9.81024169921875,1.071405291557312,0.013042873702943325,0.012776692397892475,-0.012776692397892475
18534230882287,-0.010773907415568829,-9.7791166305542,1.0678139925003052,0.01357523538172245,0.012776692397892475,-0.012510511092841625
18534232119525,0.023942017927765846,-9.789891242980957,1.0426748991012573,0.01357523538172245,0.015438503585755825,-0.004791259765625
18534233356775,0.03232172504067421,-9.799468040466309,1.0438719987869263,0.014906140975654125,0.0090501569211483,-0.00452507846057415
18534234594000,0.033518824726343155,-9.793481826782227,1.049857497215271,0.0119781494140625,0.0114457868039608,-0.0119781494140625
18534235831250,-0.023942017927765846,-9.840168952941895,1.0522516965866089,0.0119781494140625,0.015438503585755825,-0.01117960549890995
18534237068487,-0.0059855044819414616,-9.81263542175293,1.072602391242981,0.01703559048473835,0.01357523538172245,-0.0077192517928779125
18534238305725,0.05267243832349777,-9.81263542175293,1.0977414846420288,0.0157046839594841,0.012776692397892475,-0.0066545275039970875
18534239542962,0.035913024097681046,-9.7791166305542,1.0809820890426636,0.01410759799182415,0.0119781494140625,-0.008783976547420025
18534240780200,0.02992752194404602,-9.797073364257812,1.0534487962722778,0.0167694091796875,0.008251613937318325,-0.005057440605014563
18534242017425,0.04429273307323456,-9.780314445495605,1.0654197931289673,0.01703559048473835,0.01597086526453495,-0.0066545275039970875
18534243254650,0.02992752194404602,-9.816226959228516,1.070208191871643,0.01756795309484005,0.012776692397892475,-0.0053236219100654125
18534244491900,0.035913024097681046,-9.780314445495605,1.092953085899353,0.01996358297765255,0.010381062515079975,-0.008783976547420025
18534245729150,0.05267243832349777,-9.782708168029785,1.1240776777267456,0.01996358297765255,0.013042873702943325,-0.0037265352439135313
18534246966387,0.026336219161748886,-9.793481826782227,1.0271124839782715,0.0223592109978199,0.008251613937318325,-0.0002661811013240367
18534248203612,0.07661445438861847,-9.803058624267578,1.0594342947006226,0.02369011752307415,0.008517795242369175,-0.003460354171693325
18534249440862,0.04189852997660637,-9.795876502990723,1.0342952013015747,0.015438503585755825,0.014373779296875,-0.0077192517928779125
18534250678100,0.05985504388809204,-9.786299705505371,1.0295066833496094,0.0173017717897892,0.010913425125181675,-0.006122165359556675
18534251915337,0.02274491637945175,-9.77791976928711,1.0989385843276978,0.0210283063352108,0.00692070834338665,-0.0042588976211845875
18534253152575,0.016759412363171577,-9.785102844238281,1.1420341730117798,0.0162370465695858,0.007453070487827063,0.0010647244052961469
18534254389825,0.07182604819536209,-9.806650161743164,1.1204863786697388,0.0204959437251091,0.007985432632267475,-0.0013309054775163531
18534255627050,0.03232172504067421,-9.75278091430664,1.1264718770980835,0.01756795309484005,0.008783976547420025,-0.0007985432748682797
18534256864287,0.04908113554120064,-9.718064308166504,1.1228805780410767,0.0204959437251091,0.007453070487827063,-0.0021294488105922937
18534258101537,0.04908113554120064,-9.756372451782227,1.0905588865280151,0.023956298828125,0.008517795242369175,0.0002661811013240367
18534259338775,0.03232172504067421,-9.728838920593262,1.1013327836990356,0.0247548408806324,0.00692070834338665,0.0018632676219567657
18534260576000,-0.015562310814857483,-9.750386238098145,1.091755986213684,0.02502102218568325,0.0053236219100654125,-0.005057440605014563
18534261813225,0.008379706181585789,-9.77672290802002,1.0785878896713257,0.02608574740588665,0.0071868896484375,0.0
18534263050475,-0.015562310814857483,-9.794679641723633,1.048660397529602,0.023956298828125,0.007453070487827063,-0.0015970865497365594
18534264287712,0.0059855044819414616,-9.72285270690918,1.0881646871566772,0.0247548408806324,0.007453070487827063,0.0
18534265524950,0.020350715145468712,-9.758766174316406,1.0522516965866089,0.02315775491297245,0.005057440605014563,0.0039927163161337376
18534266762187,0.03950432687997818,-9.785102844238281,1.0845733880996704,0.02315775491297245,0.005589802749454975,-0.0013309054775163531
18534267999412,-0.009576806798577309,-9.799468040466309,1.0390836000442505,0.02369011752307415,0.0023956298828125,0.0023956298828125
18534269236662,-0.013168109580874443,-9.829395294189453,1.0283095836639404,0.0244886614382267,0.004791259765625,0.0026618109550327063
18534270473912,-0.009576806798577309,-9.771934509277344,1.0378865003585815,0.02182685025036335,0.008517795242369175,0.0053236219100654125
18534271711150,0.002394201699644327,-9.865307807922363,1.0905588865280151,0.0196974016726017,0.005057440605014563,0.0005323622026480734
18534272948362,-0.015562310814857483,-9.853337287902832,1.0690110921859741,0.02076212503015995,0.005855984054505825,0.0031941730994731188
18534274185612,0.013168109580874443,-9.872490882873535,1.0809820890426636,0.02129448764026165,0.005057440605014563,0.004791259765625
18534275422850,-0.009576806798577309,-9.890447616577148,1.0797849893569946,0.0204959437251091,0.0077192517928779125,0.0023956298828125
18534276660100,0.0035913025494664907,-9.922768592834473,1.0378865003585815,0.01597086526453495,0.008517795242369175,0.0010647244052961469
18534277897325,-0.026336219161748886,-9.86650562286377,1.0295066833496094,0.015438503585755825,0.007985432632267475,0.0
18534279134550,-0.017956512048840523,-9.93354320526123,1.07379949092865,0.01597086526453495,0.0053236219100654125,-0.0013309054775163531
18534280371800,0.002394201699644327,-9.940725326538086,1.0235211849212646,0.01783413253724575,0.0021294488105922937,0.0077192517928779125
18534281609062,-0.016759412363171577,-9.892841339111328,1.047463297843933,0.0157046839594841,0.0031941730994731188,0.0066545275039970875
18534282846275,0.0,-9.917980194091797,1.0905588865280151,0.014373779296875,0.0077192517928779125,0.0066545275039970875
18534284083512,-0.04429273307323456,-9.985018730163574,1.072602391242981,0.01357523538172245,0.006122165359556675,0.008783976547420025
18534285320750,-0.038307227194309235,-9.938331604003906,1.095347285270691,0.01357523538172245,0.0018632676219567657,0.00692070834338665
18534286557987,0.023942017927765846,-9.919178009033203,1.1025298833847046,0.0138414166867733,0.0010647244052961469,0.007453070487827063
18534287795225,0.02992752194404602,-9.945513725280762,1.0785878896713257,0.0119781494140625,0.004791259765625,-0.0002661811013240367
18534289032475,-0.0011971008498221636,-9.93354320526123,1.1240776777267456,0.00958251953125,0.0063883461989462376,0.0090501569211483
18534290269712,-0.016759412363171577,-9.921571731567383,1.1336544752120972,0.0063883461989462376,0.0018632676219567657,0.01357523538172245
18534291506937,0.02992752194404602,-9.945513725280762,1.1204863786697388,0.0114457868039608,0.0015970865497365594,0.01357523538172245
18534292744200,0.016759412363171577,-9.909601211547852,1.1073182821273804,0.007985432632267475,0.005057440605014563,0.0167694091796875
18534293981425,0.0071826050989329815,-9.90361499786377,1.1001356840133667,0.00958251953125,0.0005323622026480734,0.01756795309484005
18534295218650,0.017956512048840523,-9.880870819091797,1.07379949092865,0.01171196810901165,0.0021294488105922937,0.01703559048473835
18534296455887,0.028730420395731926,-9.90241813659668,1.0630255937576294,0.012510511092841625,0.0029279920272529125,0.015438503585755825
18534297693137,0.019153613597154617,-9.858125686645508,1.0690110921859741,0.008517795242369175,-0.0010647244052961469,0.0220930315554142
18534298930362,-0.021547814831137657,-9.897629737854004,1.0618284940719604,0.0029279920272529125,0.0010647244052961469,0.01836649514734745
18534300167612,0.04429273307323456,-9.877279281616211,1.0821791887283325,0.0071868896484375,-0.005589802749454975,0.0223592109978199
18534301404837,0.05147533863782883,-9.86889934539795,1.1037269830703735,0.007453070487827063,-0.0005323622026480734,0.02369011752307415
18534302642075,-0.03232172504067421,-9.80904483795166,1.1001356840133667,0.0026618109550327063,0.0031941730994731188,0.01996358297765255
18534303879312,-0.004788403399288654,-9.84376049041748,1.0678139925003052,0.00692070834338665,-0.0015970865497365594,0.0247548408806324
18534305116537,-0.017956512048840523,-9.831789016723633,1.0821791887283325,0.0039927163161337376,-0.004791259765625,0.023956298828125
18534306353812,-0.043095629662275314,-9.856928825378418,1.0654197931289673,0.0042588976211845875,0.0007985432748682797,0.0215606689453125
18534307591025,-0.004788403399288654,-9.827000617980957,1.0690110921859741,0.006122165359556675,0.008251613937318325,0.02502102218568325
18534308828250,0.008379706181585789,-9.853337287902832,1.0761936902999878,0.0029279920272529125,0.0031941730994731188,0.02661811001598835
18534310065500,-0.040701430290937424,-9.831789016723633,1.0618284940719604,0.0031941730994731188,-0.0031941730994731188,0.0258195661008358
18534311302737,0.009576806798577309,-9.835380554199219,0.9995791912078857,0.0015970865497365594,-0.0026618109550327063,0.0247548408806324
18534312539962,0.002394201699644327,-9.822212219238281,1.0558429956436157,-0.0015970865497365594,-0.0066545275039970875,0.0282151959836483
18534313777225,-0.017956512048840523,-9.852140426635742,1.0785878896713257,0.0007985432748682797,-0.0037265352439135313,0.0234239362180233
18534315014437,-0.015562310814857483,-9.862914085388184,1.0893617868423462,-0.0021294488105922937,-0.0013309054775163531,0.02129448764026165
18534316251687,0.008379706181585789,-9.872490882873535,1.1049240827560425,0.0023956298828125,-0.00452507846057415,0.02608574740588665
18534317488950,0.05626374110579491,-9.886856079101562,1.0223240852355957,0.0007985432748682797,-0.0023956298828125,0.0282151959836483
18534318726175,-0.019153613597154617,-9.877279281616211,1.0606313943862915,-0.0023956298828125,0.0021294488105922937,0.0311431884765625
18534319963425,0.016759412363171577,-9.823410034179688,1.0690110921859741,-0.0010647244052961469,-0.005589802749454975,0.0314093679189682
18534321200650,-0.023942017927765846,-9.876082420349121,1.0893617868423462,-0.0023956298828125,-0.0071868896484375,0.02874755859375
18534322437887,-0.020350715145468712,-9.90122127532959,1.0893617868423462,-0.0002661811013240367,-0.00984870083630085,0.03087700717151165
18534323675125,0.02513911761343479,-9.876082420349121,1.0630255937576294,-0.005855984054505825,-0.010913425125181675,0.03087700717151165
18534324912362,0.002394201699644327,-9.86889934539795,1.1097124814987183,-0.005589802749454975,-0.0063883461989462376,0.0322079136967659
18534326149612,-0.03232172504067421,-9.864110946655273,1.1025298833847046,-0.0002661811013240367,-0.008783976547420025,0.03034464456140995
18534327386837,-0.02274491637945175,-9.886856079101562,1.070208191871643,-0.0018632676219567657,-0.0119781494140625,0.0258195661008358
18534328624075,-0.0035913025494664907,-9.86889934539795,1.115697979927063,-0.0071868896484375,-0.0077192517928779125,0.0292799212038517
18534329861312,0.002394201699644327,-9.864110946655273,1.1037269830703735,-0.0053236219100654125,-0.010114881210029125,0.0268842913210392
18534331098550,0.02753331884741783,-9.910798072814941,1.0618284940719604,-0.0037265352439135313,-0.00984870083630085,0.02555338479578495
18534332335775,0.0011971008498221636,-9.895236015319824,1.115697979927063,-0.010114881210029125,-0.006122165359556675,0.02794901467859745
18534333573025,-0.031124621629714966,-9.892841339111328,1.1228805780410767,-0.007985432632267475,-0.00452507846057415,0.0204959437251091
18534334810262,-0.0059855044819414616,-9.886856079101562,1.1288660764694214,-0.0077192517928779125,-0.007985432632267475,0.01889885775744915
18534336047525,-0.02513911761343479,-9.9000244140625,1.0773907899856567,-0.008783976547420025,-0.010913425125181675,0.01996358297765255
18534337284750,0.008379706181585789,-9.871294021606445,1.0989385843276978,-0.010913425125181675,-0.0090501569211483,0.02129448764026165
18534338521975,0.004788403399288654,-9.895236015319824,1.070208191871643,-0.0071868896484375,-0.01224433071911335,0.0204959437251091
18534339759225,0.02274491637945175,-9.895236015319824,1.092953085899353,-0.010647243820130825,-0.013042873702943325,0.02022976242005825
18534340996450,-0.038307227194309235,-9.880870819091797,1.0821791887283325,-0.0181003138422966,-0.0114457868039608,0.0157046839594841
18534342233687,-0.031124621629714966,-9.873687744140625,1.0857704877853394,-0.0157046839594841,-0.012510511092841625,0.01703559048473835
18534343470925,-0.05506663769483566,-9.90361499786377,1.0833762884140015,-0.01357523538172245,-0.0077192517928779125,0.015172322280704975
18534344708175,-0.04189852997660637,-9.860519409179688,1.0678139925003052,-0.012510511092841625,-0.013309055007994175,0.0119781494140625
18534345945412,-0.06823474913835526,-9.877279281616211,1.1121066808700562,-0.00984870083630085,-0.010381062515079975,0.0157046839594841
18534347182637,-0.013168109580874443,-9.849745750427246,1.0821791887283325,-0.012510511092841625,-0.00984870083630085,0.013309055007994175
18534348419900,-0.033518824726343155,-9.861717224121094,1.0606313943862915,-0.01597086526453495,-0.0071868896484375,0.007453070487827063
18534349657125,-0.05626374110579491,-9.86889934539795,1.0869675874710083,-0.0138414166867733,-0.008517795242369175,0.013042873702943325
18534350894362,-0.0454898327589035,-9.838972091674805,1.0678139925003052,-0.013042873702943325,-0.01117960549890995,0.0119781494140625
18534352131612,-0.02513911761343479,-9.838972091674805,1.0666168928146362,-0.012776692397892475,-0.010647243820130825,0.013042873702943325
18534353368837,-0.02753331884741783,-9.829395294189453,1.0558429956436157,-0.014373779296875,-0.0114457868039608,0.00958251953125
18534354606062,0.0,-9.800664901733398,1.0558429956436157,-0.014906140975654125,-0.014906140975654125,0.007453070487827063
18534355843312,-0.05267243832349777,-9.794679641723633,1.0570400953292847,-0.01703559048473835,-0.0138414166867733,0.0071868896484375
18534357080550,-0.017956512048840523,-9.823410034179688,1.0211269855499268,-0.01224433071911335,-0.012510511092841625,0.005589802749454975
18534358317800,-0.090979665517807,-9.785102844238281,1.0582371950149536,-0.013042873702943325,-0.0114457868039608,0.007985432632267475
18534359555025,-0.05985504388809204,-9.786299705505371,1.07379949092865,-0.014906140975654125,-0.0119781494140625,0.006122165359556675
18534360792262,-0.05267243832349777,-9.793481826782227,1.0330979824066162,-0.0114457868039608,-0.0114457868039608,0.0042588976211845875
18534362029500,-0.026336219161748886,-9.803058624267578,1.0570400953292847,-0.0138414166867733,-0.0071868896484375,0.005855984054505825
18534363266737,-0.05386953800916672,-9.799468040466309,1.071405291557312,-0.01224433071911335,-0.006122165359556675,0.004791259765625
18534364503987,-0.028730420395731926,-9.805453300476074,1.0618284940719604,-0.008783976547420025,-0.01171196810901165,0.0039927163161337376
18534365741225,0.0071826050989329815,-9.799468040466309,1.0283095836639404,-0.010381062515079975,-0.0138414166867733,0.005855984054505825
18534366978450,-0.05267243832349777,-9.819818496704102,1.049857497215271,-0.01117960549890995,-0.00958251953125,0.00958251953125
18534368215700,-0.035913024097681046,-9.769539833068848,1.0666168928146362,-0.013042873702943325,-0.003460354171693325,0.0037265352439135313
18534369452925,-0.023942017927765846,-9.767146110534668,1.0438719987869263,-0.01357523538172245,-0.008251613937318325,0.008517795242369175
18534370690175,-0.0035913025494664907,-9.759963035583496,1.0642226934432983,-0.01357523538172245,-0.00984870083630085,0.010381062515079975
18534371927425,-0.04189852997660637,-9.75517463684082,1.05105459690094,-0.0119781494140625,-0.0090501569211483,0.00958251953125
18534373164637,-0.03711012750864029,-9.743204116821289,1.05105459690094,-0.008517795242369175,-0.01224433071911335,0.0090501569211483
18534374401875,-0.05147533863782883,-9.75397777557373,1.0426748991012573,-0.008251613937318325,-0.0090501569211483,0.01171196810901165
18534375639112,-0.043095629662275314,-9.749189376831055,1.0678139925003052,-0.008517795242369175,-0.0077192517928779125,0.013042873702943325
18534376876362,-0.035913024097681046,-9.713275909423828,1.0857704877853394,-0.0071868896484375,-0.0053236219100654125,0.0119781494140625
18534378113600,-0.05147533863782883,-9.738415718078613,1.07379949092865,-0.00931633822619915,-0.012776692397892475,0.015438503585755825
18534379350812,-0.021547814831137657,-9.733627319335938,1.048660397529602,-0.008517795242369175,-0.010381062515079975,0.014373779296875
18534380588075,-0.06823474913835526,-9.737218856811523,1.0761936902999878,-0.0138414166867733,-0.0007985432748682797,0.007453070487827063
18534381825312,-0.035913024097681046,-9.720458984375,1.071405291557312,-0.00958251953125,-0.005855984054505825,0.0090501569211483
18534383062550,-0.0454898327589035,-9.736021041870117,1.0666168928146362,-0.0037265352439135313,-0.007453070487827063,0.01117960549890995
18534384299812,-0.06224924325942993,-9.746795654296875,1.0678139925003052,-0.005589802749454975,-0.00692070834338665,0.01171196810901165
18534385537012,-0.02274491637945175,-9.744400978088379,1.047463297843933,-0.00692070834338665,-0.0037265352439135313,0.0066545275039970875
18534386774262,-0.06464345008134842,-9.718064308166504,1.0330979824066162,-0.0071868896484375,-0.0039927163161337376,0.01224433071911335
18534388011500,-0.07781155407428741,-9.761160850524902,1.0558429956436157,-0.00452507846057415,-0.004791259765625,0.012776692397892475
18534389248737,-0.04668693244457245,-9.75397777557373,1.0247182846069336,-0.0037265352439135313,-0.006122165359556675,0.014373779296875
18534390485987,-0.05267243832349777,-9.736021041870117,1.0354923009872437,-0.00452507846057415,-0.0039927163161337376,0.01463996060192585
18534391723225,-0.038307227194309235,-9.792284965515137,1.0534487962722778,-0.0042588976211845875,-0.003460354171693325,0.01357523538172245
18534392960462,-0.05267243832349777,-9.781511306762695,0.9971849918365479,-0.0042588976211845875,-0.0039927163161337376,0.01357523538172245
18534394197712,-0.09576807171106339,-9.794679641723633,1.0091559886932373,-0.005589802749454975,-0.003460354171693325,0.010647243820130825
18534395434937,-0.038307227194309235,-9.800664901733398,1.0330979824066162,-0.0018632676219567657,-0.0013309054775163531,0.01703559048473835
18534396672175,-0.043095629662275314,-9.77672290802002,1.01753568649292,-0.0015970865497365594,0.0010647244052961469,0.0162370465695858
18534397909412,-0.0586579404771328,-9.783905029296875,1.072602391242981,-0.0023956298828125,-0.0010647244052961469,0.012776692397892475
18534399146637,-0.06224924325942993,-9.791088104248047,1.0330979824066162,-0.0010647244052961469,-0.0053236219100654125,0.0162370465695858
18534400383900,-0.03711012750864029,-9.771934509277344,1.0055646896362305,0.0029279920272529125,-0.0005323622026480734,0.01597086526453495
18534401621125,-0.014365210197865963,-9.770737648010254,1.01753568649292,-0.0026618109550327063,0.0013309054775163531,0.015438503585755825
18534402858362,-0.06464345008134842,-9.782708168029785,1.0378865003585815,0.0010647244052961469,-0.0013309054775163531,0.01756795309484005
18534404095612,-0.06224924325942993,-9.77791976928711,1.0295066833496094,0.0005323622026480734,-0.0002661811013240367,0.015172322280704975
18534405332850,-0.06224924325942993,-9.758766174316406,1.0235211849212646,0.0010647244052961469,0.0013309054775163531,0.01996358297765255
18534406570087,-0.08140286058187485,-9.75397777557373,1.0031704902648926,0.0010647244052961469,-0.0005323622026480734,0.01463996060192585
18534407807300,-0.08140286058187485,-9.782708168029785,1.048660397529602,0.0013309054775163531,0.0037265352439135313,0.01783413253724575
18534409044550,-0.04668693244457245,-9.827000617980957,1.0534487962722778,-0.0018632676219567657,0.003460354171693325,0.02369011752307415
18534410281775,-0.05267243832349777,-9.771934509277344,1.0378865003585815,-0.0018632676219567657,0.005057440605014563,0.01943122036755085
18534411519037,-0.07781155407428741,-9.761160850524902,1.049857497215271,-0.0013309054775163531,0.00958251953125,0.0119781494140625
18534412756275,-0.09457096457481384,-9.794679641723633,1.0666168928146362,-0.0018632676219567657,0.008517795242369175,0.01996358297765255
18534413993500,-0.05985504388809204,-9.795876502990723,1.0247182846069336,0.0026618109550327063,0.0063883461989462376,0.0173017717897892
18534415230737,-0.09217676520347595,-9.803058624267578,1.0187327861785889,0.0013309054775163531,0.0063883461989462376,0.013042873702943325
18534416467987,-0.07062894850969315,-9.768342971801758,1.015141487121582,-0.0015970865497365594,0.0037265352439135313,0.015438503585755825
18534417705212,-0.043095629662275314,-9.81263542175293,1.016338586807251,-0.0053236219100654125,0.0077192517928779125,0.015172322280704975
18534418942462,-0.10055647045373917,-9.786299705505371,0.9995791912078857,-0.0042588976211845875,0.010381062515079975,0.01703559048473835
18534420179712,-0.0802057608962059,-9.782708168029785,1.0283095836639404,0.0015970865497365594,0.0063883461989462376,0.0162370465695858
18534421416937,-0.06344634294509888,-9.783905029296875,1.0199298858642578,-0.0031941730994731188,0.00984870083630085,0.01756795309484005
18534422654187,-0.08619125932455063,-9.783905029296875,1.0450690984725952,-0.0031941730994731188,0.0119781494140625,0.0215606689453125
18534423891437,-0.07422025501728058,-9.764751434326172,1.0342952013015747,0.0021294488105922937,0.0162370465695858,0.014373779296875
18534425128662,-0.10654197633266449,-9.782708168029785,1.0402806997299194,-0.0010647244052961469,0.010114881210029125,0.010381062515079975
18534426365912,-0.06584054976701736,-9.794679641723633,1.0642226934432983,-0.0015970865497365594,0.010647243820130825,0.0138414166867733
18534427603125,-0.06703764945268631,-9.81143856048584,1.0295066833496094,-0.0029279920272529125,0.0162370465695858,0.0167694091796875
18534428840362,-0.07302315533161163,-9.789891242980957,1.047463297843933,-0.0071868896484375,0.0167694091796875,0.0138414166867733
18534430077612,-0.09457096457481384,-9.764751434326172,1.0079588890075684,0.0002661811013240367,0.013042873702943325,0.014906140975654125
18534431314837,-0.07422025501728058,-9.780314445495605,1.0055646896362305,-0.0023956298828125,0.0138414166867733,0.01783413253724575
